#time,accel_x,accel_y,accel_z
3828.890487,363.709035,401.994197,-9915.856854
3828.893049,784.845813,1205.982590,-9762.716208
3828.895611,421.136778,708.275490,-10068.997501
3828.898173,593.420005,516.849682,-9858.429112
3828.900735,497.707101,1339.980656,-9839.286531
3828.903297,555.134843,325.423874,-9915.856854
3828.905859,631.705166,899.701298,-9915.856854
3828.908421,1741.974853,1435.693560,-9877.571693
3828.910983,-306.281293,-19.142581,-10202.995566
3828.913544,1129.412267,1818.545176,-9552.147819
3828.916106,823.130974,1014.556782,-9762.716208
3828.918668,593.420005,344.566454,-10145.567824
3828.921230,918.843878,2029.113565,-9896.714274
3828.923792,2679.961312,3062.812928,-9341.579430
3828.926354,2699.103893,1933.400661,-10049.854920
3828.928916,784.845813,3943.371645,-9609.575562
3828.931478,-1244.267752,1282.552914,-9896.714274
3828.934040,-1416.550979,-3062.812928,-10222.138147
3828.936602,708.275490,-287.138712,-9647.860723
3828.939164,4096.512291,842.273555,-9896.714274
3828.941726,1071.984525,-57.427742,-10509.276859
3828.944288,-4651.647134,2239.681954,-9341.579430
3828.946850,-133.998066,3445.664544,-8863.014910
3828.949412,3120.240670,-2258.824534,-10796.415571
3828.951974,1550.549045,1244.267752,-10547.562021
3828.954536,1129.412267,1129.412267,-9552.147819
3828.957098,-1761.117434,-306.281293,-10011.569758
3828.959660,-1569.691626,803.988394,-9705.288466
3828.962222,1282.552914,363.709035,-9801.001370
3828.964784,1263.410333,267.996131,-10719.845248
3828.967346,478.564520,861.416136,-9839.286531
3828.969908,-459.421939,574.277424,-9456.434915
3828.972470,-363.709035,114.855485,-9724.431046
3828.975032,899.701298,803.988394,-9915.856854
3828.977594,1110.269686,1052.841944,-10432.706536
3828.980156,-210.568389,57.427742,-10145.567824
3828.982718,-516.849682,1033.699363,-9341.579430
3828.985279,708.275490,823.130974,-9877.571693
3828.987841,325.423874,-363.709035,-10317.851051
3828.990403,-1033.699363,689.132909,-10068.997501
3828.992966,191.425808,-516.849682,-9896.714274
3828.995529,248.853550,-708.275490,-10126.425243
3828.998092,1818.545176,1359.123237,-9877.571693
3829.000655,306.281293,1703.689691,-10088.140082
3829.003218,-612.562586,1703.689691,-9877.571693
3829.005780,-363.709035,-1148.554848,-9475.577496
3829.008343,440.279358,-1167.697429,-10375.278794
3829.010906,3771.088418,3656.232933,-9628.718142
3829.013469,440.279358,-1703.689691,-10413.563955
3829.016032,-5225.924558,-306.281293,-10183.852986
3829.018595,2392.822600,3292.523898,-8556.733618
3829.021157,784.845813,-4019.941968,-11447.263318
3829.023720,727.418070,5206.781978,-9016.155557
3829.026283,5187.639397,555.134843,-9303.294269
3829.028846,-1607.976787,-4019.941968,-11542.976222
3829.031409,-3924.229064,4594.219392,-8786.444587
3829.033972,2986.242605,-1225.125171,-9456.434915
3829.036535,4345.365842,2182.254211,-10451.849117
3829.039097,-440.279358,76.570323,-10413.563955
3829.041660,-210.568389,1799.402595,-9533.005238
3829.044223,-1167.697429,2335.394858,-8843.872330
3829.046786,0.000000,-784.845813,-10585.847182
3829.049349,4766.502619,2928.814862,-9801.001370
3829.051912,765.703232,1741.974853,-9552.147819
3829.054474,-957.129040,957.129040,-9915.856854
3829.057037,-823.130974,382.851616,-9399.007173
3829.059600,382.851616,172.283227,-9992.427178
3829.062163,2277.967115,325.423874,-10528.419440
3829.064726,2641.676150,1359.123237,-10107.282662
3829.067289,-1071.984525,1971.685822,-9820.143950
3829.069851,708.275490,1665.404530,-9188.438784
3829.072414,1473.978722,497.707101,-10088.140082
3829.074977,803.988394,650.847747,-10470.991698
3829.077540,-19.142581,1454.836141,-9915.856854
3829.080103,76.570323,612.562586,-9801.001370
3829.082666,1512.263883,440.279358,-9571.290400
3829.085228,229.710970,612.562586,-10088.140082
3829.087791,1014.556782,1799.402595,-10298.708470
3829.090354,1607.976787,1282.552914,-9954.142016
3829.092917,-1014.556782,-1339.980656,-10183.852986
3829.095481,1148.554848,3081.955509,-8958.727814
3829.098045,2852.244539,3215.953574,-9533.005238
3829.100608,1895.115499,937.986459,-10202.995566
3829.103172,-1493.121302,2277.967115,-9571.290400
3829.105736,-2124.826469,-3445.664544,-10126.425243
3829.108300,2488.535504,2450.250342,-9150.153622
3829.110864,4211.367776,746.560651,-9743.573627
3829.113427,-287.138712,133.998066,-11026.126541
3829.115991,-2143.969050,650.847747,-9418.149754
3829.118555,1454.836141,918.843878,-9341.579430
3829.121119,-153.140646,1914.258080,-10336.993632
3829.123683,1416.550979,-593.420005,-9494.720077
3829.126246,-153.140646,459.421939,-10202.995566
3829.128810,382.851616,2967.100024,-9839.286531
3829.131374,-2565.105827,-4345.365842,-10528.419440
3829.133938,-861.416136,4709.074877,-8575.876198
3829.136501,3751.945837,-1014.556782,-10279.565890
3829.139065,2009.970984,248.853550,-11294.122672
3829.141629,-1359.123237,3177.668413,-9111.868461
3829.144193,-1435.693560,-3522.234867,-9781.858789
3829.146757,-401.994197,287.138712,-10375.278794
3829.149320,3196.810994,2316.252277,-9686.145885
3829.151884,2124.826469,-114.855485,-10490.134278
3829.154448,-1607.976787,2737.389054,-9494.720077
3829.157012,-1741.974853,-995.414202,-9992.427178
3829.159576,-325.423874,823.130974,-9590.432981
3829.162139,1052.841944,1167.697429,-9896.714274
3829.164703,2220.539373,-555.134843,-10643.274925
3829.167267,-803.988394,1359.123237,-10030.712339
3829.169831,-842.273555,612.562586,-9399.007173
3829.172395,1646.261949,325.423874,-9647.860723
3829.174958,1091.127106,669.990328,-10222.138147
3829.177523,-746.560651,1110.269686,-10413.563955
3829.180087,191.425808,765.703232,-9743.573627
3829.182651,248.853550,325.423874,-9533.005238
3829.185216,-746.560651,-210.568389,-9743.573627
3829.187780,267.996131,440.279358,-9973.284597
3829.190344,172.283227,19.142581,-10298.708470
3829.192909,2507.678085,1837.687757,-9647.860723
3829.195473,-1512.263883,-842.273555,-10317.851051
3829.198037,-1205.982590,2603.390989,-9092.725880
3829.200602,-516.849682,-918.843878,-9686.145885
3829.203166,382.851616,0.000000,-10547.562021
3829.205730,4058.227130,4249.652938,-9533.005238
3829.208295,19.142581,-2622.533570,-10796.415571
3829.210859,-4843.072942,899.701298,-9762.716208
3829.213423,2220.539373,2143.969050,-8652.446522
3829.215988,1148.554848,-4900.500685,-11791.829773
3829.218552,38.285162,4766.502619,-9284.151688
3829.221116,5398.207786,2718.246474,-8614.161360
3829.223681,-2622.533570,-3292.523898,-11389.835576
3829.226245,-2565.105827,5283.352301,-8480.163294
3829.228809,2622.533570,-2354.537438,-9877.571693
3829.231374,3081.955509,2258.824534,-10375.278794
3829.233938,842.273555,-363.709035,-10566.704602
3829.236502,555.134843,1186.840010,-9399.007173
3829.239067,-612.562586,1531.406464,-9073.583299
3829.241631,-229.710970,-765.703232,-10432.706536
3829.244195,3732.803256,2354.537438,-10164.710405
3829.246760,2048.256146,3885.943902,-9475.577496
3829.249324,-325.423874,-918.843878,-10222.138147
3829.251888,-2048.256146,535.992262,-9341.579430
3829.254453,114.855485,669.990328,-9762.716208
3829.257017,2182.254211,-918.843878,-10738.987829
3829.259581,1378.265818,1952.543242,-10183.852986
3829.262145,-19.142581,2105.683888,-9131.011042
3829.264710,440.279358,650.847747,-9341.579430
3829.267274,612.562586,497.707101,-10049.854920
3829.269838,1091.127106,1320.838075,-9781.858789
3829.272403,708.275490,1531.406464,-10222.138147
3829.274967,-401.994197,459.421939,-10049.854920
3829.277531,937.986459,1033.699363,-9245.866526
3829.280096,1531.406464,1014.556782,-9609.575562
3829.282661,-478.564520,191.425808,-10394.421374
3829.285226,1818.545176,3407.379382,-9609.575562
3829.287791,2603.390989,937.986459,-9801.001370
3829.290356,746.560651,1071.984525,-9858.429112
3829.292921,689.132909,2775.674216,-9265.009107
3829.295486,-784.845813,153.140646,-9820.143950
3829.298051,-535.992262,-1205.982590,-10049.854920
3829.300616,1818.545176,861.416136,-10011.569758
3829.303181,3828.516160,3196.810994,-10011.569758
3829.305746,-2411.965181,555.134843,-9954.142016
3829.308311,57.427742,4919.643266,-8671.589102
3829.310876,2756.531635,-306.281293,-10413.563955
3829.313441,-1933.400661,-1761.117434,-11332.407834
3829.316006,2775.674216,4364.508422,-8614.161360
3829.318571,1320.838075,-3388.236802,-10451.849117
3829.321136,-2871.387120,2029.113565,-10413.563955
3829.323701,-344.566454,-1741.974853,-9628.718142
3829.326266,880.558717,1301.695494,-9954.142016
3829.328831,3120.240670,2679.961312,-9839.286531
3829.331396,957.129040,478.564520,-9628.718142
3829.333961,-3139.383251,1741.974853,-9590.432981
3829.336525,-1627.119368,-1014.556782,-9858.429112
3829.339090,1033.699363,-1627.119368,-10892.128475
3829.341655,2660.818731,3024.527766,-9743.573627
3829.344220,1875.972918,-57.427742,-10241.280728
3829.346785,-1607.976787,2737.389054,-9265.009107
3829.349350,-1301.695494,153.140646,-9724.431046
3829.351915,612.562586,-650.847747,-10413.563955
3829.354480,1071.984525,1320.838075,-10145.567824
3829.357045,421.136778,-669.990328,-10356.136213
3829.359610,-555.134843,1014.556782,-9456.434915
3829.362175,57.427742,478.564520,-9494.720077
3829.364740,1761.117434,-516.849682,-10088.140082
3829.367305,19.142581,650.847747,-9724.431046
3829.369870,-1512.263883,210.568389,-10183.852986
3829.372435,-76.570323,191.425808,-9571.290400
3829.375000,229.710970,-880.558717,-9667.003304
3829.377565,-229.710970,-172.283227,-9877.571693
3829.380130,2105.683888,823.130974,-9839.286531
3829.382676,-784.845813,114.855485,-10470.991698
3829.385224,-1205.982590,2201.396792,-9379.864592
3829.387773,-133.998066,-497.707101,-9609.575562
3829.390321,631.705166,-880.558717,-10604.989763
3829.392870,3885.943902,4460.221326,-9265.009107
3829.395418,-57.427742,-3062.812928,-11006.983960
3829.397966,-5130.211654,861.416136,-10049.854920
3829.400515,1914.258080,1761.117434,-8748.159426
3829.403063,976.271621,-995.414202,-11236.694930
3829.405612,1071.984525,3254.238736,-9494.720077
3829.408160,3311.666478,-2545.963246,-10145.567824
3829.410708,-2220.539373,-1627.119368,-11217.552349
3829.413257,-1186.840010,4670.789715,-8614.161360
3829.415805,1550.549045,-2277.967115,-10202.995566
3829.418354,2411.965181,2947.957443,-10011.569758
3829.420902,1895.115499,57.427742,-10547.562021
3829.423451,976.271621,1263.410333,-9781.858789
3829.425999,-3101.098090,593.420005,-9169.296203
3829.428547,95.712904,153.140646,-10260.423309
3829.431096,3617.947771,1875.972918,-10222.138147
3829.433644,3617.947771,3579.662610,-9188.438784
3829.436193,-1761.117434,-229.710970,-10432.706536
3829.438741,-1799.402595,1416.550979,-9111.868461
3829.441289,1110.269686,1033.699363,-9284.151688
3829.443838,1550.549045,-210.568389,-10930.413637
3829.446386,1129.412267,1397.408398,-10011.569758
3829.448935,1167.697429,1435.693560,-9552.147819
3829.451483,-574.277424,976.271621,-9686.145885
3829.454031,918.843878,1071.984525,-9475.577496
3829.456580,1091.127106,784.845813,-10317.851051
3829.459128,344.566454,1512.263883,-10164.710405
3829.461677,1014.556782,880.558717,-9858.429112
3829.464225,631.705166,421.136778,-9743.573627
3829.466773,727.418070,440.279358,-9705.288466
3829.469322,1914.258080,2526.820666,-10011.569758
3829.471870,2641.676150,2411.965181,-10088.140082
3829.474419,784.845813,1799.402595,-9475.577496
3829.476967,421.136778,2143.969050,-9245.866526
3829.479515,-976.271621,-287.138712,-10107.282662
3829.482064,2986.242605,1646.261949,-9475.577496
3829.484615,2182.254211,-1454.836141,-10872.985894
3829.487166,1052.841944,2967.100024,-10030.712339
3829.489717,-1722.832272,0.000000,-9609.575562
3829.492269,631.705166,4039.084549,-8863.014910
3829.494820,2603.390989,95.712904,-10145.567824
3829.497371,-1627.119368,-2450.250342,-11408.978157
3829.499922,2699.103893,3637.090352,-8786.444587
3829.502473,19.142581,-3158.525832,-10164.710405
3829.505024,-3656.232933,-1052.841944,-11198.409768
3829.507575,-95.712904,842.273555,-8843.872330
3829.510127,2373.680019,-1225.125171,-10222.138147
3829.512678,1550.549045,2813.959378,-10356.136213
3829.515229,1033.699363,76.570323,-10011.569758
3829.517780,-2526.820666,2009.970984,-9379.864592
3829.520331,-1856.830338,-2986.242605,-10126.425243
3829.522882,1052.841944,-287.138712,-10413.563955
3829.525434,1895.115499,2450.250342,-10164.710405
3829.527985,995.414202,593.420005,-10126.425243
3829.530536,-1282.552914,1435.693560,-9667.003304
3829.533087,-1244.267752,1091.127106,-9188.438784
3829.535638,842.273555,-555.134843,-10145.567824
3829.538189,1531.406464,-133.998066,-10279.565890
3829.540741,229.710970,1244.267752,-10490.134278
3829.543292,-689.132909,535.992262,-10126.425243
3829.545843,555.134843,1454.836141,-8863.014910
3829.548394,1129.412267,-727.418070,-9628.718142
3829.550945,574.277424,1014.556782,-10336.993632
3829.553496,-1339.980656,880.558717,-10470.991698
3829.556047,287.138712,-535.992262,-10011.569758
3829.558599,267.996131,-555.134843,-9494.720077
3829.561150,2182.254211,1990.828403,-9418.149754
3829.563701,-784.845813,-2431.107762,-10624.132344
3829.566252,-2086.541307,1780.260014,-9839.286531
3829.568803,-133.998066,669.990328,-9571.290400
3829.571354,1301.695494,-1244.267752,-10317.851051
3829.573906,1665.404530,4460.221326,-9513.862658
3829.576457,210.568389,612.562586,-9552.147819
3829.579008,-3637.090352,-2526.820666,-10738.987829
3829.581559,1895.115499,2967.100024,-9341.579430
3829.584110,937.986459,-3771.088418,-11236.694930
3829.586664,1167.697429,4536.791650,-9073.583299
3829.589218,4287.938099,1282.552914,-9111.868461
3829.591771,-2105.683888,-478.564520,-11160.124606
3829.594325,-918.843878,4689.932296,-8920.442653
3829.596879,2890.529701,-650.847747,-9379.864592
3829.599433,4134.797453,287.138712,-10585.847182
3829.601987,-803.988394,1378.265818,-10088.140082
3829.604540,1148.554848,2067.398726,-9533.005238
3829.607094,-1416.550979,593.420005,-9437.292334
3829.609648,-478.564520,38.285162,-10432.706536
3829.612202,4058.227130,1837.687757,-9858.429112
3829.614755,3483.949706,1665.404530,-9590.432981
3829.617309,-1359.123237,2297.109696,-10088.140082
3829.619863,-1110.269686,899.701298,-9494.720077
3829.622417,746.560651,918.843878,-9590.432981
3829.624970,1320.838075,535.992262,-10643.274925
3829.627524,918.843878,363.709035,-10183.852986
3829.630078,191.425808,1282.552914,-9667.003304
3829.632632,19.142581,765.703232,-9552.147819
3829.635185,1454.836141,497.707101,-9954.142016
3829.637739,0.000000,38.285162,-10566.704602
3829.640293,344.566454,1435.693560,-9667.003304
3829.642847,133.998066,306.281293,-9915.856854
3829.645400,2009.970984,1225.125171,-9743.573627
3829.647954,1952.543242,1684.547110,-9571.290400
3829.650508,1014.556782,1684.547110,-10068.997501
3829.653062,1397.408398,2316.252277,-9839.286531
3829.655616,344.566454,1014.556782,-9801.001370
3829.658169,-2890.529701,-1837.687757,-10145.567824
3829.660723,3483.949706,3101.098090,-8843.872330
3829.663277,3483.949706,-1531.406464,-10662.417506
3829.665831,-1014.556782,248.853550,-10604.989763
3829.668384,-2813.959378,76.570323,-9418.149754
3829.670938,1875.972918,1799.402595,-9303.294269
3829.673492,3081.955509,2431.107762,-10011.569758
3829.676046,-1282.552914,-4421.936165,-11179.267187
3829.678599,382.851616,4977.071008,-8671.589102
3829.681153,2239.681954,-1339.980656,-10011.569758
3829.683707,-3483.949706,-2239.681954,-11523.833642
3829.686261,-957.129040,2622.533570,-8652.446522
3829.688816,3771.088418,-1952.543242,-10700.702667
3829.691372,1569.691626,1512.263883,-10911.271056
3829.693928,-727.418070,2813.959378,-9073.583299
3829.696484,-2431.107762,-133.998066,-10107.282662
3829.699040,-1071.984525,-1359.123237,-10107.282662
3829.701595,1493.121302,-133.998066,-10107.282662
3829.704151,2354.537438,1339.980656,-10509.276859
3829.706707,708.275490,937.986459,-9934.999435
3829.709263,-976.271621,1493.121302,-9571.290400
3829.711818,-861.416136,0.000000,-9973.284597
3829.714374,612.562586,899.701298,-9839.286531
3829.716930,1512.263883,421.136778,-10317.851051
3829.719486,191.425808,918.843878,-9839.286531
3829.722041,-440.279358,1091.127106,-9724.431046
3829.724597,574.277424,76.570323,-9513.862658
3829.727153,1473.978722,669.990328,-9877.571693
3829.729709,-210.568389,191.425808,-10260.423309
3829.732265,-765.703232,287.138712,-10030.712339
3829.734820,1588.834206,1454.836141,-9169.296203
3829.737376,-612.562586,-1148.554848,-10164.710405
3829.739932,-574.277424,1531.406464,-9705.288466
3829.742488,-631.705166,-1205.982590,-10068.997501
3829.745043,-344.566454,114.855485,-10222.138147
3829.747599,3943.371645,1263.410333,-9667.003304
3829.750155,248.853550,76.570323,-10394.421374
3829.752711,-1646.261949,3751.945837,-9054.440718
3829.755267,-1129.412267,-1799.402595,-9801.001370
3829.757822,2182.254211,2029.113565,-10375.278794
3829.760378,1129.412267,-1588.834206,-10585.847182
3829.762934,-133.998066,-880.558717,-10260.423309
3829.765490,2833.101958,7312.465866,-8595.018779
3829.768045,325.423874,-2565.105827,-10872.985894
3829.770601,-3656.232933,2718.246474,-9781.858789
3829.773157,2526.820666,1684.547110,-8805.587168
3829.775713,5187.639397,-459.421939,-10777.272990
3829.778268,-2163.111630,153.140646,-10241.280728
3829.780824,-957.129040,803.988394,-9552.147819
3829.783380,842.273555,1225.125171,-9667.003304
3829.785936,1454.836141,-114.855485,-10202.995566
3829.788492,1875.972918,1703.689691,-10107.282662
3829.791049,995.414202,2756.531635,-9284.151688
3829.793607,-153.140646,0.000000,-9954.142016
3829.796165,-191.425808,76.570323,-9686.145885
3829.798722,1282.552914,1320.838075,-9379.864592
3829.801280,842.273555,-133.998066,-11064.411702
3829.803838,133.998066,1569.691626,-9743.573627
3829.806395,1014.556782,1033.699363,-8824.729749
3829.808953,-76.570323,-459.421939,-10011.569758
3829.811511,612.562586,2335.394858,-10088.140082
3829.814069,1129.412267,976.271621,-10279.565890
3829.816626,1301.695494,650.847747,-9858.429112
3829.819184,669.990328,1378.265818,-9284.151688
3829.821742,1818.545176,1014.556782,-10107.282662
3829.824299,1646.261949,3081.955509,-9954.142016
3829.826857,631.705166,2794.816797,-9934.999435
3829.829415,-1799.402595,689.132909,-10202.995566
3829.831972,1397.408398,-325.423874,-9188.438784
3829.834530,1320.838075,-746.560651,-9992.427178
3829.837088,2756.531635,3483.949706,-10202.995566
3829.839646,-1837.687757,918.843878,-9724.431046
3829.842203,516.849682,3771.088418,-9016.155557
3829.844761,1933.400661,-57.427742,-9973.284597
3829.847319,-1186.840010,-1110.269686,-10681.560086
3829.849876,2813.959378,3254.238736,-8805.587168
3829.852434,-287.138712,-2526.820666,-10413.563955
3829.854992,-1722.832272,2163.111630,-10317.851051
3829.857549,-459.421939,-1780.260014,-9494.720077
3829.860107,19.142581,2392.822600,-9322.436850
3829.862665,2239.681954,2641.676150,-10356.136213
3829.865223,1167.697429,191.425808,-10088.140082
3829.867780,-2182.254211,2316.252277,-9456.434915
3829.870338,-2852.244539,-1952.543242,-10088.140082
3829.872896,2105.683888,-421.136778,-9896.714274
3829.875453,459.421939,210.568389,-9915.856854
3829.878011,1837.687757,1167.697429,-10681.560086
3829.880569,363.709035,1493.121302,-9743.573627
3829.883127,-1359.123237,2124.826469,-9131.011042
3829.885684,497.707101,1339.980656,-9820.143950
3829.888242,1454.836141,-210.568389,-10126.425243
3829.890800,114.855485,478.564520,-10547.562021
3829.893342,363.709035,1531.406464,-9877.571693
3829.895884,650.847747,535.992262,-9590.432981
3829.898426,-57.427742,172.283227,-9896.714274
3829.900969,727.418070,631.705166,-9915.856854
3829.903511,306.281293,440.279358,-10164.710405
3829.906053,-172.283227,2009.970984,-9934.999435
3829.908595,-421.136778,344.566454,-9341.579430
3829.911137,-1129.412267,-2009.970984,-9896.714274
3829.913680,-287.138712,-95.712904,-10126.425243
3829.916222,1895.115499,-133.998066,-10126.425243
3829.918764,1627.119368,4651.647134,-9322.436850
3829.921306,-1014.556782,-248.853550,-10049.854920
3829.923849,-3445.664544,-1780.260014,-10145.567824
3829.926391,2163.111630,976.271621,-8939.585234
3829.928933,1378.265818,-2469.392923,-11026.126541
3829.931475,-133.998066,3426.521963,-9418.149754
3829.934017,4058.227130,3617.947771,-8422.735552
3829.936560,-1761.117434,-1684.547110,-11294.122672
3829.939102,-995.414202,5149.354235,-8882.157491
3829.941644,1799.402595,-1990.828403,-9647.860723
3829.944186,2182.254211,574.277424,-10585.847182
3829.946729,1818.545176,1895.115499,-9877.571693
3829.949271,1091.127106,440.279358,-9992.427178
3829.951813,-2699.103893,344.566454,-9781.858789
3829.954355,-535.992262,1052.841944,-10030.712339
3829.956898,3388.236802,612.562586,-10241.280728
3829.959440,2411.965181,1627.119368,-9781.858789
3829.961982,-133.998066,2105.683888,-9820.143950
3829.964524,-95.712904,1014.556782,-9839.286531
3829.967066,382.851616,-440.279358,-9992.427178
3829.969609,1148.554848,2220.539373,-9379.864592
3829.972151,1186.840010,-38.285162,-10738.987829
3829.974693,-459.421939,689.132909,-10202.995566
3829.977235,172.283227,1569.691626,-9169.296203
3829.979778,842.273555,-689.132909,-10356.136213
3829.982320,1856.830338,2220.539373,-9915.856854
3829.984862,593.420005,1167.697429,-9647.860723
3829.987404,555.134843,612.562586,-9954.142016
3829.989947,2450.250342,2067.398726,-9341.579430
3829.992489,1722.832272,2507.678085,-9705.288466
3829.995035,344.566454,2048.256146,-10011.569758
3829.997580,-2392.822600,-478.564520,-9858.429112
3830.000126,2067.398726,3177.668413,-9054.440718
3830.002672,4651.647134,631.705166,-10030.712339
3830.005218,306.281293,555.134843,-10585.847182
3830.007763,-2775.674216,-19.142581,-9724.431046
3830.010309,1454.836141,2545.963246,-9092.725880
3830.012855,3598.805190,2488.535504,-10011.569758
3830.015401,-2392.822600,-3637.090352,-11160.124606
3830.017947,1780.260014,5589.633594,-8556.733618
3830.020492,2469.392923,-2258.824534,-10241.280728
3830.023038,-3005.385186,-3560.520029,-11294.122672
3830.025584,-1856.830338,2584.248408,-9035.298138
3830.028130,3656.232933,-880.558717,-10145.567824
3830.030675,1646.261949,1684.547110,-10719.845248
3830.033221,76.570323,2009.970984,-9322.436850
3830.035767,-1569.691626,1225.125171,-9494.720077
3830.038313,-3196.810994,-1627.119368,-10145.567824
3830.040859,2890.529701,-957.129040,-10011.569758
3830.043404,1014.556782,555.134843,-10222.138147
3830.045950,382.851616,1646.261949,-10183.852986
3830.048496,-114.855485,803.988394,-9494.720077
3830.051042,38.285162,-899.701298,-9571.290400
3830.053587,-421.136778,1186.840010,-9781.858789
3830.056133,2297.109696,-784.845813,-10681.560086
3830.058679,-306.281293,1684.547110,-9820.143950
3830.061225,-918.843878,267.996131,-9801.001370
3830.063771,1071.984525,-191.425808,-9437.292334
3830.066316,287.138712,631.705166,-9762.716208
3830.068862,650.847747,957.129040,-10413.563955
3830.071408,-1110.269686,-1301.695494,-10241.280728
3830.073954,-1512.263883,-172.283227,-9475.577496
3830.076500,-803.988394,-1550.549045,-9667.003304
3830.079045,650.847747,-574.277424,-10432.706536
3830.081591,2641.676150,2507.678085,-9858.429112
3830.084137,631.705166,2220.539373,-10222.138147
3830.086683,-1225.125171,1818.545176,-9552.147819
3830.089228,-2488.535504,-1895.115499,-9437.292334
3830.091774,3330.809059,1186.840010,-9973.284597
3830.094320,1129.412267,-3790.230998,-11313.265253
3830.096852,-1014.556782,1627.119368,-9801.001370
3830.099384,3847.658741,6585.047795,-8346.165229
3830.101916,-1186.840010,-2737.389054,-10796.415571
3830.104449,-2507.678085,4996.213589,-9341.579430
3830.106981,3005.385186,-19.142581,-9571.290400
3830.109513,4134.797453,-497.707101,-10815.558152
3830.112045,-1148.554848,1320.838075,-9839.286531
3830.114577,1033.699363,1722.832272,-9341.579430
3830.117109,1378.265818,1569.691626,-9265.009107
3830.119641,-153.140646,574.277424,-10413.563955
3830.122174,2890.529701,1646.261949,-10183.852986
3830.124706,2507.678085,1818.545176,-9456.434915
3830.127238,-784.845813,1225.125171,-9820.143950
3830.129770,191.425808,1033.699363,-9839.286531
3830.132302,1493.121302,1416.550979,-9590.432981
3830.134834,516.849682,727.418070,-10260.423309
3830.137366,650.847747,727.418070,-10260.423309
3830.139898,382.851616,1665.404530,-9341.579430
3830.142431,899.701298,459.421939,-9743.573627
3830.144963,880.558717,325.423874,-10164.710405
3830.147495,1052.841944,1837.687757,-9820.143950
3830.150027,1129.412267,937.986459,-9954.142016
3830.152559,1416.550979,1703.689691,-9839.286531
3830.155091,1875.972918,2469.392923,-9628.718142
3830.157623,803.988394,1607.976787,-9992.427178
3830.160156,-1722.832272,-1761.117434,-10432.706536
3830.162688,1359.123237,1722.832272,-9360.722011
3830.165220,4039.084549,2316.252277,-9877.571693
3830.167752,267.996131,727.418070,-10317.851051
3830.170284,-3081.955509,153.140646,-9456.434915
3830.172816,1282.552914,1148.554848,-9628.718142
3830.175348,3292.523898,2986.242605,-10183.852986
3830.177881,-1339.980656,-4192.225195,-10892.128475
3830.180413,19.142581,4517.649069,-8882.157491
3830.182945,2890.529701,-421.136778,-9781.858789
3830.185477,-2220.539373,-3464.807125,-10758.130410
3830.188009,-1741.974853,2660.818731,-9188.438784
3830.190541,2986.242605,-765.703232,-10068.997501
3830.193073,1952.543242,1263.410333,-10643.274925
3830.195605,-631.705166,2163.111630,-9035.298138
3830.198126,-1493.121302,114.855485,-9590.432981
3830.200647,-2565.105827,-2086.541307,-10624.132344
3830.203167,2603.390989,976.271621,-9418.149754
3830.205688,2143.969050,612.562586,-10202.995566
3830.208208,-325.423874,306.281293,-10394.421374
3830.210729,-574.277424,708.275490,-9265.009107
3830.213250,497.707101,-76.570323,-9456.434915
3830.215770,-306.281293,363.709035,-10126.425243
3830.218291,1225.125171,1014.556782,-10490.134278
3830.220811,172.283227,995.414202,-9571.290400
3830.223332,1033.699363,421.136778,-9188.438784
3830.225852,-229.710970,38.285162,-10164.710405
3830.228373,708.275490,2086.541307,-9973.284597
3830.230894,-210.568389,-1359.123237,-10279.565890
3830.233414,-2431.107762,-478.564520,-10145.567824
3830.235935,-114.855485,-440.279358,-9513.862658
3830.238455,1091.127106,-1301.695494,-10298.708470
3830.240976,1971.685822,2507.678085,-10222.138147
3830.243497,-1569.691626,191.425808,-10222.138147
3830.246017,-1818.545176,2622.533570,-9456.434915
3830.248538,-1167.697429,-1301.695494,-9552.147819
3830.251058,2507.678085,2220.539373,-9781.858789
3830.253579,1244.267752,-3790.230998,-11562.118803
3830.256099,-823.130974,1512.263883,-9896.714274
3830.258620,3732.803256,7063.612315,-7886.743290
3830.261141,-1033.699363,-2699.103893,-11045.269122
3830.263661,-2833.101958,5053.641331,-9341.579430
3830.266182,2143.969050,2622.533570,-8997.012976
3830.268702,6259.623922,-1148.554848,-10892.128475
3830.271223,-2277.967115,-191.425808,-10068.997501
3830.273744,-957.129040,3349.951640,-8422.735552
3830.276264,1244.267752,267.996131,-9877.571693
3830.278785,-133.998066,1531.406464,-10049.854920
3830.281305,2679.961312,1933.400661,-9954.142016
3830.283826,3062.812928,995.414202,-9762.716208
3830.286346,-1148.554848,1416.550979,-9628.718142
3830.288867,-727.418070,1397.408398,-9609.575562
3830.291388,2105.683888,937.986459,-9820.143950
3830.293908,1550.549045,1148.554848,-10145.567824
3830.296429,-95.712904,382.851616,-10183.852986
3830.298956,899.701298,1014.556782,-9571.290400
3830.301484,803.988394,976.271621,-9609.575562
3830.304012,861.416136,248.853550,-10375.278794
3830.306539,1741.974853,1588.834206,-10107.282662
3830.309067,1588.834206,1933.400661,-9801.001370
3830.311595,593.420005,1818.545176,-9801.001370
3830.314122,0.000000,1320.838075,-9915.856854
3830.316650,-248.853550,-2182.254211,-10164.710405
3830.319178,1588.834206,2622.533570,-9667.003304
3830.321705,4039.084549,1359.123237,-10202.995566
3830.324233,574.277424,57.427742,-10260.423309
3830.326761,-3656.232933,-957.129040,-9475.577496
3830.329288,1454.836141,2316.252277,-9265.009107
3830.331816,3905.086483,1416.550979,-10145.567824
3830.334344,-3120.240670,-3866.801322,-10949.556218
3830.336871,-899.701298,4058.227130,-8767.302006
3830.339399,2928.814862,306.281293,-9379.864592
3830.341927,-2890.529701,-3464.807125,-11045.269122
3830.344454,-2545.963246,1856.830338,-8939.585234
3830.346982,3617.947771,-612.562586,-10088.140082
3830.349510,1607.976787,1818.545176,-10700.702667
3830.352037,-229.710970,2201.396792,-9016.155557
3830.354565,-689.132909,1339.980656,-9131.011042
3830.357093,-2009.970984,-765.703232,-10202.995566
3830.359620,1588.834206,-1071.984525,-9973.284597
3830.362148,1014.556782,1703.689691,-10279.565890
3830.364676,574.277424,1167.697429,-10336.993632
3830.367203,-440.279358,555.134843,-9456.434915
3830.369731,-344.566454,1588.834206,-8882.157491
3830.372259,995.414202,287.138712,-10222.138147
3830.374786,803.988394,1837.687757,-10719.845248
3830.377314,-727.418070,1052.841944,-10145.567824
3830.379842,1837.687757,1148.554848,-8767.302006
3830.382369,1320.838075,555.134843,-10030.712339
3830.384897,-1952.543242,-1339.980656,-10834.700733
3830.387425,-114.855485,1665.404530,-9801.001370
3830.389952,-57.427742,-1416.550979,-10145.567824
3830.392480,-765.703232,-1531.406464,-10126.425243
3830.395008,1454.836141,880.558717,-9131.011042
3830.397535,2488.535504,3828.516160,-9590.432981
3830.400066,-1397.408398,-861.416136,-10911.271056
3830.402600,-3330.809059,-1780.260014,-9973.284597
3830.405134,3235.096155,1339.980656,-8977.870395
3830.407668,765.703232,-4058.227130,-11217.552349
3830.410202,497.707101,3330.809059,-9513.862658
3830.412736,3254.238736,1665.404530,-9131.011042
3830.415270,-1646.261949,1091.127106,-10815.558152
3830.417804,382.851616,3885.943902,-9169.296203
3830.420338,918.843878,-1531.406464,-9475.577496
3830.422872,421.136778,2048.256146,-10068.997501
3830.425407,4536.791650,3101.098090,-9934.999435
3830.427941,2163.111630,516.849682,-10049.854920
3830.430475,-2852.244539,172.283227,-9781.858789
3830.433009,19.142581,1665.404530,-9475.577496
3830.435543,3751.945837,133.998066,-10260.423309
3830.438077,1627.119368,2469.392923,-9705.288466
3830.440611,76.570323,1761.117434,-10011.569758
3830.443145,765.703232,612.562586,-9992.427178
3830.445679,-459.421939,-133.998066,-9628.718142
3830.448213,1129.412267,1129.412267,-9934.999435
3830.450747,746.560651,38.285162,-10547.562021
3830.453281,535.992262,1014.556782,-9992.427178
3830.455816,-153.140646,727.418070,-9571.290400
3830.458350,1052.841944,229.710970,-9705.288466
3830.460884,2086.541307,1320.838075,-9781.858789
3830.463418,1416.550979,2067.398726,-9686.145885
3830.465952,344.566454,2507.678085,-9762.716208
3830.468486,-784.845813,1282.552914,-9954.142016
3830.471020,-19.142581,-1052.841944,-9667.003304
3830.473554,2029.113565,-1416.550979,-10566.704602
3830.476088,2163.111630,2852.244539,-10049.854920
3830.478622,-842.273555,1607.976787,-9437.292334
3830.481161,-1875.972918,421.136778,-9533.005238
3830.483701,765.703232,421.136778,-10030.712339
3830.486240,2411.965181,2545.963246,-10049.854920
3830.488779,459.421939,-2603.390989,-10164.710405
3830.491318,-995.414202,2277.967115,-9150.153622
3830.493857,1607.976787,2545.963246,-9513.862658
3830.496397,-1282.552914,-2009.970984,-10049.854920
3830.498936,0.000000,2258.824534,-9475.577496
3830.501475,2450.250342,-229.710970,-10164.710405
3830.504014,2009.970984,478.564520,-10509.276859
3830.506554,-631.705166,3311.666478,-8958.727814
3830.509093,-1378.265818,76.570323,-9820.143950
3830.511632,-1741.974853,-133.998066,-10394.421374
3830.514171,1607.976787,-957.129040,-9724.431046
3830.516710,1320.838075,1799.402595,-9839.286531
3830.519250,95.712904,114.855485,-10719.845248
3830.521789,38.285162,1091.127106,-9111.868461
3830.524328,631.705166,-287.138712,-9571.290400
3830.526867,401.994197,880.558717,-10279.565890
3830.529406,1071.984525,2163.111630,-10356.136213
3830.531946,267.996131,-248.853550,-9934.999435
3830.534485,-803.988394,1052.841944,-8863.014910
3830.537024,401.994197,172.283227,-9954.142016
3830.539563,-401.994197,-861.416136,-10624.132344
3830.542102,-1282.552914,306.281293,-9934.999435
3830.544642,-114.855485,-478.564520,-9724.431046
3830.547181,1646.261949,-746.560651,-9973.284597
3830.549720,784.845813,4115.654872,-9379.864592
3830.552259,-574.277424,382.851616,-9934.999435
3830.554799,-3043.670347,-2220.539373,-10815.558152
3830.557338,2009.970984,1282.552914,-9456.434915
3830.559877,1607.976787,-2220.539373,-10662.417506
3830.562416,1091.127106,2641.676150,-9494.720077
3830.564955,4096.512291,3675.375514,-8575.876198
3830.567495,-2009.970984,-1167.697429,-11160.124606
3830.570034,-1110.269686,4900.500685,-9245.866526
3830.572573,1818.545176,-1856.830338,-9647.860723
3830.575112,880.558717,535.992262,-10336.993632
3830.577651,2909.672282,3254.238736,-9705.288466
3830.580191,1952.543242,-1435.693560,-10451.849117
3830.582735,-3445.664544,1397.408398,-9399.007173
3830.585279,497.707101,1780.260014,-9801.001370
3830.587823,4039.084549,325.423874,-10336.993632
3830.590367,1856.830338,2354.537438,-9341.579430
3830.592911,0.000000,861.416136,-9801.001370
3830.595455,-114.855485,363.709035,-9820.143950
3830.597999,421.136778,1875.972918,-9322.436850
3830.600543,1473.978722,421.136778,-9954.142016
3830.603087,1167.697429,689.132909,-10490.134278
3830.605631,-191.425808,1703.689691,-9609.575562
3830.608175,1320.838075,133.998066,-9475.577496
3830.610719,1531.406464,631.705166,-9877.571693
3830.613263,1684.547110,2450.250342,-9877.571693
3830.615807,1588.834206,1780.260014,-10049.854920
3830.618351,-899.701298,2029.113565,-9705.288466
3830.620896,19.142581,-1531.406464,-9571.290400
3830.623440,2373.680019,-401.994197,-10183.852986
3830.625984,2641.676150,3522.234867,-10030.712339
3830.628528,421.136778,803.988394,-10241.280728
3830.631072,-2967.100024,-746.560651,-9839.286531
3830.633616,344.566454,1952.543242,-9322.436850
3830.636160,3522.234867,2411.965181,-10375.278794
3830.638704,-689.132909,-3981.656806,-11121.839445
3830.641248,-650.847747,5053.641331,-8461.020714
3830.643792,76.570323,3215.953574,-9686.145885
3830.646336,-1225.125171,-2909.672282,-10451.849117
3830.648880,-1493.121302,2277.967115,-9341.579430
3830.651424,2220.539373,-191.425808,-10432.706536
3830.653968,2699.103893,1148.554848,-10758.130410
3830.656512,-650.847747,2947.957443,-9035.298138
3830.659056,-1167.697429,1033.699363,-9360.722011
3830.661600,-708.275490,57.427742,-9820.143950
3830.664144,401.994197,-1971.685822,-10260.423309
3830.666689,1933.400661,1244.267752,-10011.569758
3830.669233,-727.418070,1033.699363,-10604.989763
3830.671777,229.710970,650.847747,-9552.147819
3830.674321,1052.841944,57.427742,-8824.729749
3830.676865,574.277424,612.562586,-9820.143950
3830.679409,76.570323,1339.980656,-10872.985894
3830.681953,1493.121302,803.988394,-10107.282662
3830.684501,-995.414202,-191.425808,-9341.579430
3830.687050,-421.136778,172.283227,-9456.434915
3830.689598,306.281293,-248.853550,-10107.282662
3830.692146,-842.273555,-1205.982590,-10451.849117
3830.694695,-210.568389,918.843878,-9954.142016
3830.697243,3369.094221,1895.115499,-9628.718142
3830.699792,-1952.543242,-2411.965181,-10528.419440
3830.702340,-2737.389054,2775.674216,-8977.870395
3830.704888,95.712904,-784.845813,-9934.999435
3830.707437,1837.687757,2699.103893,-10241.280728
3830.709985,918.843878,-2163.111630,-10432.706536
3830.712533,-861.416136,-1875.972918,-9973.284597
3830.715082,823.130974,5895.914886,-9111.868461
3830.717630,1091.127106,-440.279358,-10413.563955
3830.720179,-2775.674216,612.562586,-10088.140082
3830.722727,1397.408398,3005.385186,-8595.018779
3830.725275,6585.047795,-1435.693560,-10777.272990
3830.727824,-1799.402595,57.427742,-10126.425243
3830.730372,-650.847747,4192.225195,-8633.303941
3830.732920,995.414202,114.855485,-10068.997501
3830.735469,-784.845813,1320.838075,-10279.565890
3830.738017,1665.404530,2201.396792,-9533.005238
3830.740566,2833.101958,-76.570323,-9954.142016
3830.743114,-803.988394,765.703232,-9896.714274
3830.745662,267.996131,2124.826469,-9552.147819
3830.748211,1703.689691,631.705166,-9973.284597
3830.750759,727.418070,382.851616,-10183.852986
3830.753308,995.414202,1952.543242,-9743.573627
3830.755856,440.279358,-325.423874,-10068.997501
3830.758404,344.566454,1875.972918,-9437.292334
3830.760953,2335.394858,2431.107762,-9839.286531
3830.763501,1780.260014,765.703232,-10566.704602
3830.766049,-2143.969050,2545.963246,-9839.286531
3830.768598,1320.838075,1205.982590,-9092.725880
3830.771146,1971.685822,-1129.412267,-10470.991698
3830.773695,2699.103893,3713.660675,-9954.142016
3830.776243,1091.127106,784.845813,-9820.143950
3830.778791,-3273.381317,-957.129040,-9877.571693
3830.781340,727.418070,2411.965181,-9341.579430
3830.783888,1282.552914,2584.248408,-10088.140082
3830.786440,1148.554848,-1856.830338,-10126.425243
3830.788993,-1167.697429,1186.840010,-9456.434915
3830.791545,1454.836141,2679.961312,-9418.149754
3830.794098,-1818.545176,-2928.814862,-10643.274925
3830.796650,-2220.539373,1493.121302,-9188.438784
3830.799202,2947.957443,-612.562586,-9954.142016
3830.801755,1971.685822,669.990328,-10604.989763
3830.804307,-497.707101,2297.109696,-8977.870395
3830.806859,-1225.125171,153.140646,-9647.860723
3830.809412,-918.843878,57.427742,-10202.995566
3830.811964,363.709035,-689.132909,-9839.286531
3830.814517,1263.410333,191.425808,-10164.710405
3830.817069,267.996131,1301.695494,-10049.854920
3830.819621,325.423874,995.414202,-9743.573627
3830.822174,0.000000,-421.136778,-9513.862658
3830.824726,937.986459,1244.267752,-9494.720077
3830.827278,631.705166,1091.127106,-10853.843314
3830.829831,-440.279358,76.570323,-10317.851051
3830.832383,-133.998066,382.851616,-9035.298138
3830.834936,-574.277424,-1129.412267,-9973.284597
3830.837488,-708.275490,-937.986459,-10624.132344
3830.840040,-19.142581,1052.841944,-10068.997501
3830.842593,2641.676150,1091.127106,-10126.425243
3830.845145,-593.420005,1454.836141,-10279.565890
3830.847697,-401.994197,1990.828403,-8977.870395
3830.850250,-2124.826469,-2545.963246,-10011.569758
3830.852802,1588.834206,1665.404530,-10394.421374
3830.855355,861.416136,-3483.949706,-11006.983960
3830.857907,-287.138712,1627.119368,-9571.290400
3830.860459,3751.945837,5800.201982,-8231.309744
3830.863012,-995.414202,-2316.252277,-10968.698798
3830.865564,-1818.545176,5130.211654,-9169.296203
3830.868116,2201.396792,-574.277424,-9092.725880
3830.870669,2679.961312,-1205.982590,-10815.558152
3830.873221,1225.125171,4479.363907,-9035.298138
3830.875774,976.271621,3177.668413,-8843.872330
3830.878326,-57.427742,-574.277424,-10049.854920
3830.880878,-823.130974,1646.261949,-9915.856854
3830.883431,3215.953574,287.138712,-10279.565890
3830.885983,2947.957443,1225.125171,-9686.145885
3830.888539,-823.130974,765.703232,-9801.001370
3830.891094,-210.568389,1627.119368,-9839.286531
3830.893649,1493.121302,880.558717,-9820.143950
3830.896205,631.705166,765.703232,-9992.427178
3830.898760,306.281293,803.988394,-10222.138147
3830.901316,172.283227,1129.412267,-9571.290400
3830.903871,574.277424,1722.832272,-9858.429112
3830.906427,2239.681954,1014.556782,-10107.282662
3830.908982,1014.556782,1933.400661,-9858.429112
3830.911537,-1971.685822,1110.269686,-10068.997501
3830.914093,2354.537438,3235.096155,-9207.581365
3830.916648,2316.252277,-880.558717,-10547.562021
3830.919204,1205.982590,2622.533570,-10279.565890
3830.921759,-2852.244539,784.845813,-9418.149754
3830.924315,2182.254211,1818.545176,-9284.151688
3830.926870,1205.982590,-1110.269686,-10719.845248
3830.929425,-2143.969050,631.705166,-10413.563955
3830.931981,3407.379382,2009.970984,-9111.868461
3830.934536,-440.279358,-2545.963246,-10566.704602
3830.937092,-1301.695494,2813.959378,-9494.720077
3830.939647,-937.986459,-1588.834206,-9954.142016
3830.942203,-229.710970,803.988394,-9915.856854
3830.944758,1397.408398,-363.709035,-10413.563955
3830.947314,1110.269686,421.136778,-10202.995566
3830.949869,95.712904,2086.541307,-9188.438784
3830.952424,-1148.554848,-325.423874,-9954.142016
3830.954980,-765.703232,287.138712,-10375.278794
3830.957535,803.988394,0.000000,-9609.575562
3830.960091,1397.408398,-325.423874,-10356.136213
3830.962646,-267.996131,1952.543242,-10126.425243
3830.965202,-76.570323,1110.269686,-9590.432981
3830.967757,669.990328,631.705166,-9437.292334
3830.970312,1014.556782,1607.976787,-9781.858789
3830.972868,-401.994197,172.283227,-10834.700733
3830.975423,-440.279358,765.703232,-9839.286531
3830.977979,-133.998066,-38.285162,-9035.298138
3830.980534,-669.990328,-1818.545176,-10298.708470
3830.983090,-248.853550,459.421939,-10088.140082
3830.985645,1875.972918,1263.410333,-9686.145885
3830.988200,535.992262,2526.820666,-10107.282662
3830.990759,-1186.840010,2641.676150,-8901.300072
3830.993317,-1569.691626,-1780.260014,-9533.005238
3830.995875,2833.101958,784.845813,-10260.423309
3830.998434,306.281293,-3579.662610,-11045.269122
3831.000992,535.992262,3445.664544,-9207.581365
3831.003550,3885.943902,3177.668413,-8709.874264
3831.006108,-1741.974853,-114.855485,-10700.702667
3831.008667,-248.853550,4230.510357,-9207.581365
3831.011225,1244.267752,-2297.109696,-9934.999435
3831.013783,2737.389054,-1665.404530,-11198.409768
3831.016341,574.277424,4536.791650,-9341.579430
3831.018900,2794.816797,38.285162,-9667.003304
3831.021458,-2354.537438,421.136778,-10088.140082
3831.024016,-842.273555,1952.543242,-9743.573627
3831.026575,3771.088418,76.570323,-10509.276859
3831.029133,2431.107762,2163.111630,-9379.864592
3831.031691,-267.996131,1148.554848,-9724.431046
3831.034249,76.570323,-38.285162,-10394.421374
3831.036808,497.707101,1971.685822,-9513.862658
3831.039366,1320.838075,363.709035,-10202.995566
3831.041924,1339.980656,669.990328,-10509.276859
3831.044482,-574.277424,1588.834206,-9552.147819
3831.047041,803.988394,1416.550979,-9571.290400
3831.049599,2392.822600,1703.689691,-9667.003304
3831.052157,-363.709035,1244.267752,-10183.852986
3831.054716,593.420005,1741.974853,-9801.001370
3831.057274,1282.552914,57.427742,-9858.429112
3831.059832,2813.959378,3483.949706,-9418.149754
3831.062390,937.986459,823.130974,-9877.571693
3831.064949,-3177.668413,-2009.970984,-10183.852986
3831.067507,1339.980656,2794.816797,-9169.296203
3831.070065,3541.377448,1225.125171,-10260.423309
3831.072623,-344.566454,-3024.527766,-10413.563955
3831.075182,-976.271621,3464.807125,-8958.727814
3831.077740,2565.105827,1646.261949,-9647.860723
3831.080298,-1512.263883,-2699.103893,-10987.841379
3831.082857,-3062.812928,937.986459,-9092.725880
3831.085415,2794.816797,-1244.267752,-10126.425243
3831.087973,1665.404530,1205.982590,-10241.280728
3831.090531,-401.994197,1722.832272,-9399.007173
3831.093092,-765.703232,421.136778,-9686.145885
3831.095653,-976.271621,631.705166,-9992.427178
3831.098214,344.566454,-823.130974,-9801.001370
3831.100775,1282.552914,-880.558717,-10298.708470
3831.103336,172.283227,1761.117434,-9877.571693
3831.105896,-172.283227,1588.834206,-9915.856854
3831.108457,421.136778,-516.849682,-9609.575562
3831.111018,-382.851616,1627.119368,-9073.583299
3831.113579,1225.125171,1129.412267,-10509.276859
3831.116140,-267.996131,-784.845813,-10624.132344
3831.118701,-1244.267752,287.138712,-9207.581365
3831.121261,-516.849682,-669.990328,-9609.575562
3831.123822,784.845813,-1722.832272,-10624.132344
3831.126383,2852.244539,2584.248408,-10011.569758
3831.128944,-976.271621,1014.556782,-10509.276859
3831.131505,-1052.841944,1741.974853,-9590.432981
3831.134066,-1665.404530,-1569.691626,-9360.722011
3831.136626,2679.961312,976.271621,-9915.856854
3831.139187,497.707101,-3694.518094,-11810.972354
3831.141748,-574.277424,1627.119368,-9820.143950
3831.144309,3847.658741,5857.629725,-8212.167163
3831.146870,-1378.265818,-2239.681954,-10968.698798
3831.149431,-1856.830338,5264.209720,-9054.440718
3831.151991,2565.105827,-497.707101,-9494.720077
3831.154552,2545.963246,-1454.836141,-11313.265253
3831.157113,937.986459,5072.783912,-8863.014910
3831.159674,2143.969050,-765.703232,-9705.288466
3831.162235,-2354.537438,612.562586,-9896.714274
3831.164795,-861.416136,1875.972918,-9954.142016
3831.167356,2928.814862,-344.566454,-10432.706536
3831.169917,2258.824534,1339.980656,-9456.434915
3831.172478,-1378.265818,823.130974,-9571.290400
3831.175039,803.988394,497.707101,-9781.858789
3831.177600,1263.410333,1914.258080,-9360.722011
3831.180160,861.416136,842.273555,-10394.421374
3831.182721,669.990328,555.134843,-10164.710405
3831.185282,880.558717,1588.834206,-9360.722011
3831.187843,1167.697429,1378.265818,-9705.288466
3831.190404,1473.978722,1225.125171,-10202.995566
3831.192965,-191.425808,-306.281293,-10432.706536
3831.195528,1588.834206,4287.938099,-9054.440718
3831.198091,3388.236802,1244.267752,-9686.145885
3831.200654,497.707101,287.138712,-10413.563955
3831.203217,-3483.949706,976.271621,-9686.145885
3831.205780,2909.672282,1665.404530,-9609.575562
3831.208343,1665.404530,-1722.832272,-11255.837510
3831.210906,-4211.367776,-2124.826469,-10777.272990
3831.213470,2354.537438,5551.348432,-8288.737486
3831.216033,2105.683888,-3637.090352,-10892.128475
3831.218596,-3349.951640,1091.127106,-10490.134278
3831.221159,-1359.123237,-229.710970,-9609.575562
3831.223722,1933.400661,-57.427742,-10030.712339
3831.226285,76.570323,-861.416136,-10279.565890
3831.228848,1205.982590,842.273555,-10126.425243
3831.231411,325.423874,2392.822600,-9245.866526
3831.233975,-1129.412267,-497.707101,-10202.995566
3831.236538,-1033.699363,-172.283227,-10336.993632
3831.239101,1550.549045,842.273555,-9341.579430
3831.241664,784.845813,-650.847747,-10222.138147
3831.244227,-803.988394,1244.267752,-10126.425243
3831.246790,784.845813,1741.974853,-9131.011042
3831.249353,880.558717,-689.132909,-9839.286531
3831.251916,-440.279358,612.562586,-9686.145885
3831.254480,459.421939,803.988394,-10030.712339
3831.257043,-574.277424,95.712904,-10049.854920
3831.259606,-421.136778,-880.558717,-9303.294269
3831.262169,95.712904,-555.134843,-9896.714274
3831.264732,3943.371645,2086.541307,-9954.142016
3831.267295,-1339.980656,-516.849682,-10585.847182
3831.269858,-2488.535504,2737.389054,-9284.151688
3831.272421,-727.418070,-1435.693560,-9456.434915
3831.274985,3005.385186,1205.982590,-9915.856854
3831.277548,76.570323,-3349.951640,-11064.411702
3831.280111,-574.277424,1282.552914,-9705.288466
3831.282674,3981.656806,6585.047795,-8767.302006
3831.285237,-1282.552914,-2048.256146,-10911.271056
3831.287800,-2373.680019,4804.787781,-9245.866526
3831.290363,2852.244539,497.707101,-9150.153622
3831.292926,2871.387120,-1875.972918,-11179.267187
3831.295489,-57.427742,4670.789715,-9571.290400
3831.298054,3024.527766,516.849682,-9820.143950
3831.300619,-2488.535504,-76.570323,-10222.138147
3831.303184,-957.129040,1378.265818,-10317.851051
3831.305748,2737.389054,229.710970,-10260.423309
3831.308313,1856.830338,1454.836141,-9667.003304
3831.310878,-363.709035,784.845813,-9954.142016
3831.313443,38.285162,459.421939,-9915.856854
3831.316008,574.277424,1493.121302,-9418.149754
3831.318572,1627.119368,669.990328,-10241.280728
3831.321137,631.705166,631.705166,-10298.708470
3831.323702,344.566454,2220.539373,-9533.005238
3831.326267,1473.978722,1493.121302,-9533.005238
3831.328831,-363.709035,-669.990328,-10088.140082
3831.331396,2545.963246,4230.510357,-9092.725880
3831.333961,2679.961312,-344.566454,-10432.706536
3831.336526,1129.412267,2641.676150,-9973.284597
3831.339090,-363.709035,1110.269686,-9379.864592
3831.341655,-746.560651,-2967.100024,-10298.708470
3831.344220,708.275490,1818.545176,-9533.005238
3831.346785,3445.664544,2507.678085,-9954.142016
3831.349349,-1416.550979,-3847.658741,-9552.147819
3831.351914,-1799.402595,1186.840010,-9494.720077
3831.354479,803.988394,2718.246474,-9552.147819
3831.357044,-497.707101,-2718.246474,-10566.704602
3831.359608,-2507.678085,535.992262,-9322.436850
3831.362173,1588.834206,-631.705166,-10145.567824
3831.364738,2431.107762,1301.695494,-10183.852986
3831.367303,-1033.699363,1722.832272,-9322.436850
3831.369867,-459.421939,1684.547110,-9781.858789
3831.372432,-669.990328,363.709035,-10222.138147
3831.374997,95.712904,-57.427742,-9858.429112
3831.377562,1473.978722,-689.132909,-10183.852986
3831.380126,-38.285162,1799.402595,-9915.856854
3831.382691,-459.421939,823.130974,-10183.852986
3831.385256,267.996131,76.570323,-9628.718142
3831.387821,669.990328,1301.695494,-9513.862658
3831.390385,95.712904,401.994197,-10700.702667
3831.392950,-535.992262,-803.988394,-10336.993632
3831.395515,-899.701298,535.992262,-9456.434915
3831.398080,401.994197,-689.132909,-9820.143950
3831.400643,3522.234867,1914.258080,-10241.280728
3831.403209,-1703.689691,-957.129040,-10815.558152
3831.405775,-2756.531635,2354.537438,-9245.866526
3831.408342,-287.138712,-1033.699363,-9609.575562
3831.410908,2488.535504,1684.547110,-9801.001370
3831.413474,210.568389,-3292.523898,-10796.415571
3831.416040,287.138712,2545.963246,-9973.284597
3831.418607,4096.512291,5283.352301,-8690.731683
3831.421173,-19.142581,-2833.101958,-10968.698798
3831.423739,-2833.101958,3177.668413,-9475.577496
3831.426306,2756.531635,1473.978722,-8384.450390
3831.428872,4173.082614,-2718.246474,-11294.122672
3831.431438,-995.414202,4632.504554,-9724.431046
3831.434004,2871.387120,1627.119368,-9169.296203
3831.436571,-1607.976787,-1129.412267,-10394.421374
3831.439137,-1129.412267,2699.103893,-9379.864592
3831.441703,3560.520029,631.705166,-9954.142016
3831.444270,2890.529701,880.558717,-10126.425243
3831.446836,-1665.404530,1512.263883,-9801.001370
3831.449402,76.570323,823.130974,-9801.001370
3831.451969,1722.832272,918.843878,-9399.007173
3831.454535,746.560651,1569.691626,-9686.145885
3831.457101,535.992262,172.283227,-10662.417506
3831.459667,1225.125171,1646.261949,-9533.005238
3831.462234,-133.998066,2067.398726,-9399.007173
3831.464800,1722.832272,-995.414202,-10164.710405
3831.467366,1301.695494,1990.828403,-9954.142016
3831.469933,2871.387120,4709.074877,-9265.009107
3831.472499,995.414202,95.712904,-10183.852986
3831.475065,-3713.660675,-1588.834206,-9992.427178
3831.477632,2201.396792,3541.377448,-8901.300072
3831.480198,4728.217458,1473.978722,-10107.282662
3831.482764,-2890.529701,-4804.787781,-11638.689126
3831.485330,-459.421939,6967.899411,-7733.602643
3831.487897,3177.668413,-1703.689691,-10298.708470
3831.490463,-2392.822600,-1684.547110,-11542.976222
3831.493029,-2048.256146,880.558717,-9054.440718
3831.495596,3254.238736,-267.996131,-9781.858789
3831.498162,689.132909,-880.558717,-10719.845248
3831.500728,-344.566454,880.558717,-9896.714274
3831.503296,-172.283227,2105.683888,-9494.720077
3831.505863,57.427742,153.140646,-10202.995566
3831.508430,-612.562586,-401.994197,-10126.425243
3831.510998,1301.695494,1607.976787,-9609.575562
3831.513565,1129.412267,-459.421939,-10183.852986
3831.516132,-765.703232,1378.265818,-10049.854920
3831.518700,267.996131,516.849682,-9915.856854
3831.521267,1148.554848,191.425808,-9418.149754
3831.523834,-497.707101,555.134843,-10662.417506
3831.526402,-1091.127106,478.564520,-10279.565890
3831.528969,76.570323,-344.566454,-9437.292334
3831.531536,-133.998066,-267.996131,-9858.429112
3831.534104,3005.385186,3005.385186,-9552.147819
3831.536671,-363.709035,-2297.109696,-10547.562021
3831.539238,-3924.229064,1607.976787,-9686.145885
3831.541806,-248.853550,-95.712904,-9418.149754
3831.544373,3579.662610,2105.683888,-9801.001370
3831.546941,-421.136778,-2297.109696,-10604.989763
3831.549508,-593.420005,-95.712904,-9877.571693
3831.552075,2813.959378,6623.332957,-9016.155557
3831.554643,612.562586,-1990.828403,-10968.698798
3831.557210,-3215.953574,2029.113565,-9915.856854
3831.559777,2182.254211,1971.685822,-8633.303941
3831.562345,4977.071008,-2526.820666,-10987.841379
3831.564912,-1091.127106,3981.656806,-9858.429112
3831.567479,2163.111630,2679.961312,-9379.864592
3831.570047,-765.703232,-918.843878,-10662.417506
3831.572614,-842.273555,1263.410333,-9992.427178
3831.575181,2411.965181,669.990328,-9475.577496
3831.577749,1741.974853,0.000000,-10413.563955
3831.580316,-746.560651,1914.258080,-9954.142016
3831.582883,708.275490,1091.127106,-9743.573627
3831.585451,842.273555,918.843878,-9628.718142
3831.588018,650.847747,1148.554848,-9724.431046
3831.590585,1665.404530,957.129040,-10068.997501
3831.593153,689.132909,1895.115499,-10011.569758
3831.595720,-1339.980656,0.000000,-10030.712339
3831.598287,3043.670347,3924.229064,-9016.155557
3831.600855,3579.662610,1148.554848,-9743.573627
3831.603422,478.564520,1569.691626,-9992.427178
3831.605990,-2488.535504,1837.687757,-9207.581365
3831.608558,1435.693560,-1359.123237,-9820.143950
3831.611127,861.416136,-1339.980656,-10834.700733
3831.613695,1301.695494,3694.518094,-9360.722011
3831.616263,918.843878,-3120.240670,-10126.425243
3831.618831,-1110.269686,-2105.683888,-10356.136213
3831.621399,-1607.976787,3656.232933,-9743.573627
3831.623967,727.418070,-2029.113565,-10413.563955
3831.626536,-1186.840010,-937.986459,-9724.431046
3831.629104,114.855485,114.855485,-9877.571693
3831.631672,2392.822600,612.562586,-10394.421374
3831.634240,-267.996131,2143.969050,-9245.866526
3831.636808,-1397.408398,1856.830338,-9667.003304
3831.639376,574.277424,210.568389,-10279.565890
3831.641945,-459.421939,325.423874,-9571.290400
3831.644513,650.847747,-382.851616,-10145.567824
3831.647081,650.847747,1167.697429,-10241.280728
3831.649649,0.000000,1282.552914,-10126.425243
3831.652217,-1110.269686,-191.425808,-9667.003304
3831.654785,2029.113565,727.418070,-9341.579430
3831.657353,-344.566454,-995.414202,-10834.700733
3831.659922,-1512.263883,248.853550,-10604.989763
3831.662490,574.277424,612.562586,-9590.432981
3831.665058,2947.957443,823.130974,-9552.147819
3831.667626,-1282.552914,-2431.107762,-10719.845248
3831.670194,-2813.959378,1761.117434,-9571.290400
3831.672762,133.998066,133.998066,-9513.862658
3831.675331,2316.252277,1646.261949,-10279.565890
3831.677899,-248.853550,-2431.107762,-10949.556218
3831.680467,133.998066,2105.683888,-9322.436850
3831.683035,4441.078746,4977.071008,-8805.587168
3831.685603,-1225.125171,-2373.680019,-11294.122672
3831.688172,-2947.957443,2316.252277,-9571.290400
3831.690741,1875.972918,1588.834206,-9054.440718
3831.693310,4441.078746,-2507.678085,-10911.271056
3831.695879,-669.990328,4709.074877,-9284.151688
3831.698448,2335.394858,1416.550979,-9609.575562
3831.701017,-1493.121302,-344.566454,-10432.706536
3831.703586,-1148.554848,2335.394858,-9207.581365
3831.706155,3062.812928,-267.996131,-10317.851051
3831.708724,1990.828403,1646.261949,-9877.571693
3831.711293,-1052.841944,823.130974,-10030.712339
3831.713862,-229.710970,516.849682,-9858.429112
3831.716431,2641.676150,1703.689691,-8920.442653
3831.719000,-19.142581,267.996131,-10222.138147
3831.721569,1148.554848,1378.265818,-10336.993632
3831.724138,1052.841944,2392.822600,-9303.294269
3831.726707,516.849682,-957.129040,-10049.854920
3831.729276,1722.832272,3139.383251,-9341.579430
3831.731845,3905.086483,3503.092286,-9131.011042
3831.734414,1225.125171,957.129040,-10068.997501
3831.736983,-3483.949706,-1990.828403,-10202.995566
3831.739552,2239.681954,3503.092286,-8652.446522
3831.742121,4919.643266,-1665.404530,-10662.417506
3831.744690,-3885.943902,-2450.250342,-11332.407834
3831.747259,1454.836141,6144.768437,-7791.030386
3831.749828,899.701298,-3445.664544,-10624.132344
3831.752397,-2737.389054,1397.408398,-10624.132344
3831.754966,-669.990328,516.849682,-9418.149754
3831.757535,1627.119368,-1512.263883,-9915.856854
3831.760104,133.998066,-1473.978722,-10834.700733
3831.762673,-153.140646,1359.123237,-9915.856854
3831.765242,382.851616,1512.263883,-9877.571693
3831.767811,-478.564520,535.992262,-10145.567824
3831.770379,-957.129040,631.705166,-9896.714274
3831.772948,1684.547110,248.853550,-9628.718142
3831.775517,459.421939,-1052.841944,-10681.560086
3831.778086,-899.701298,2297.109696,-10107.282662
3831.780655,19.142581,669.990328,-10049.854920
3831.783224,823.130974,861.416136,-9341.579430
3831.785793,95.712904,153.140646,-9781.858789
3831.788362,-918.843878,-1186.840010,-10911.271056
3831.790932,-153.140646,1148.554848,-9896.714274
3831.793502,2679.961312,1186.840010,-9207.581365
3831.796072,-1167.697429,-1493.121302,-10872.985894
3831.798641,-459.421939,3369.094221,-9207.581365
3831.801211,-1148.554848,-1569.691626,-9667.003304
3831.803781,1895.115499,248.853550,-10470.991698
3831.806351,-497.707101,-2239.681954,-10470.991698
3831.808920,267.996131,2813.959378,-9226.723946
3831.811490,4804.787781,4307.080680,-9035.298138
3831.814060,-1244.267752,-765.703232,-10490.134278
3831.816630,-765.703232,4785.645200,-9054.440718
3831.819200,1933.400661,-1569.691626,-9475.577496
3831.821769,172.283227,-133.998066,-10356.136213
3831.824339,4364.508422,3771.088418,-9169.296203
3831.826909,1148.554848,-1780.260014,-10758.130410
3831.829479,-2086.541307,1263.410333,-10049.854920
3831.832048,-535.992262,1435.693560,-9379.864592
3831.834618,3330.809059,-1339.980656,-10183.852986
3831.837188,-76.570323,2335.394858,-9628.718142
3831.839758,1339.980656,172.283227,-10202.995566
3831.842327,248.853550,459.421939,-9858.429112
3831.844897,-363.709035,1071.984525,-9437.292334
3831.847467,1914.258080,114.855485,-10260.423309
3831.850037,1569.691626,574.277424,-10030.712339
3831.852606,-842.273555,1780.260014,-9839.286531
3831.855176,1722.832272,1990.828403,-9705.288466
3831.857746,2392.822600,631.705166,-10336.993632
3831.860316,1856.830338,4249.652938,-9647.860723
3831.862885,1148.554848,1550.549045,-9743.573627
3831.865455,-1282.552914,-2909.672282,-10222.138147
3831.868025,727.418070,2048.256146,-9533.005238
3831.870595,4364.508422,2737.389054,-9896.714274
3831.873165,-1933.400661,-4785.645200,-11485.548480
3831.875734,-1588.834206,6719.045861,-7905.885870
3831.878304,2622.533570,-937.986459,-10145.567824
3831.880874,-2239.681954,-1550.549045,-11274.980091
3831.883444,-2201.396792,1454.836141,-8863.014910
3831.886013,3120.240670,172.283227,-9781.858789
3831.888583,1856.830338,0.000000,-10222.138147
3831.891153,-1435.693560,1148.554848,-9705.288466
3831.893723,535.992262,1397.408398,-9552.147819
3831.896294,325.423874,459.421939,-9552.147819
3831.898864,-803.988394,57.427742,-10088.140082
3831.901435,1339.980656,-1167.697429,-10049.854920
3831.904005,19.142581,1473.978722,-9686.145885
3831.906575,-497.707101,765.703232,-10528.419440
3831.909146,114.855485,-765.703232,-9647.860723
3831.911716,401.994197,1741.974853,-8901.300072
3831.914287,-650.847747,-1684.547110,-10853.843314
3831.916857,-957.129040,-497.707101,-10604.989763
3831.919428,708.275490,2029.113565,-9265.009107
3831.921998,861.416136,1301.695494,-9896.714274
3831.924568,-172.283227,38.285162,-10164.710405
3831.927139,-2469.392923,-1339.980656,-9954.142016
3831.929709,-229.710970,210.568389,-10260.423309
3831.932280,2354.537438,1282.552914,-11121.839445
3831.934850,1971.685822,3541.377448,-8863.014910
3831.937421,2392.822600,765.703232,-9571.290400
3831.939991,-95.712904,3637.090352,-10183.852986
3831.942561,2297.109696,2641.676150,-9513.862658
3831.945132,-1588.834206,-2354.537438,-10509.276859
3831.947702,-210.568389,2392.822600,-9724.431046
3831.950273,6049.055533,-440.279358,-9915.856854
3831.952843,325.423874,784.845813,-10528.419440
3831.955414,-2852.244539,4268.795518,-9150.153622
3831.957984,1263.410333,995.414202,-9245.866526
3831.960554,1282.552914,0.000000,-10298.708470
3831.963125,803.988394,1091.127106,-9609.575562
3831.965695,2258.824534,459.421939,-10260.423309
3831.968266,-497.707101,382.851616,-10202.995566
3831.970836,957.129040,918.843878,-9150.153622
3831.973407,823.130974,401.994197,-9513.862658
3831.975977,1837.687757,1091.127106,-10068.997501
3831.978547,-574.277424,1052.841944,-10068.997501
3831.981118,2411.965181,3196.810994,-9437.292334
3831.983688,2163.111630,842.273555,-9915.856854
3831.986259,1531.406464,2871.387120,-9437.292334
3831.988829,1052.841944,1914.258080,-9494.720077
3831.991400,-1933.400661,-3503.092286,-10738.987829
3831.993970,784.845813,3177.668413,-9322.436850
3831.996541,5359.922624,1722.832272,-9552.147819
3831.999111,-3120.240670,-5072.783912,-11715.259450
3832.001682,-2660.818731,5245.067139,-8365.307810
3832.004252,2239.681954,1493.121302,-9552.147819
3832.006823,-401.994197,-3292.523898,-11830.114934
3832.009393,-3483.949706,1550.549045,-9341.579430
3832.011964,3809.373579,401.994197,-9609.575562
3832.014534,1435.693560,-2124.826469,-10719.845248
3832.017105,-1339.980656,1856.830338,-9647.860723
3832.019675,1186.840010,1301.695494,-9858.429112
3832.022246,-248.853550,172.283227,-10183.852986
3832.024816,-995.414202,-344.566454,-9973.284597
3832.027387,19.142581,-191.425808,-9973.284597
3832.029957,746.560651,478.564520,-10088.140082
3832.032528,-38.285162,1741.974853,-10068.997501
3832.035098,-440.279358,-363.709035,-10394.421374
3832.037669,133.998066,421.136778,-9456.434915
3832.040240,76.570323,-727.418070,-10030.712339
3832.042810,-631.705166,-861.416136,-10528.419440
3832.045381,2009.970984,1148.554848,-9973.284597
3832.047951,-1282.552914,-76.570323,-10336.993632
3832.050522,-2354.537438,1301.695494,-9724.431046
3832.053092,153.140646,38.285162,-9150.153622
3832.055663,2565.105827,1741.974853,-10068.997501
3832.058233,-1435.693560,-2584.248408,-11083.554283
3832.060804,172.283227,3541.377448,-9131.011042
3832.063374,5130.211654,3560.520029,-8671.589102
3832.065945,-1627.119368,-976.271621,-10892.128475
3832.068515,-191.425808,5551.348432,-8997.012976
3832.071086,2009.970984,-1416.550979,-9628.718142
3832.073656,1569.691626,-2450.250342,-11102.696864
3832.076227,1933.400661,5053.641331,-8997.012976
3832.078797,2392.822600,-382.851616,-10088.140082
3832.081368,-2411.965181,1837.687757,-10011.569758
3832.083939,-574.277424,1722.832272,-9035.298138
3832.086509,3369.094221,19.142581,-10011.569758
3832.089080,191.425808,325.423874,-10068.997501
3832.091650,937.986459,1914.258080,-9628.718142
3832.094221,95.712904,172.283227,-9973.284597
3832.096791,325.423874,784.845813,-9322.436850
3832.099362,1263.410333,1473.978722,-9628.718142
3832.101932,574.277424,38.285162,-10796.415571
3832.104503,1473.978722,2297.109696,-9456.434915
3832.107074,1205.982590,1512.263883,-9322.436850
3832.109644,2239.681954,3426.521963,-9743.573627
3832.112215,1320.838075,1493.121302,-9820.143950
3832.114786,-3656.232933,-172.283227,-10164.710405
3832.117356,2775.674216,3235.096155,-9245.866526
3832.119927,5819.344563,172.283227,-9743.573627
3832.122498,-3560.520029,-3388.236802,-11389.835576
3832.125068,57.427742,6546.762634,-8116.454259
3832.127639,1856.830338,-3254.238736,-10872.985894
3832.130210,-3101.098090,1856.830338,-10566.704602
3832.132780,-803.988394,918.843878,-9303.294269
3832.135351,2469.392923,-2220.539373,-10336.993632
3832.137922,-1569.691626,-153.140646,-10336.993632
3832.140492,1473.978722,1244.267752,-10222.138147
3832.143063,1684.547110,1703.689691,-9628.718142
3832.145634,-593.420005,612.562586,-9877.571693
3832.148204,-803.988394,803.988394,-9858.429112
3832.150775,1703.689691,-727.418070,-9705.288466
3832.153346,57.427742,631.705166,-10088.140082
3832.155916,-516.849682,631.705166,-10336.993632
3832.158487,727.418070,-478.564520,-9877.571693
3832.161058,-133.998066,1339.980656,-9111.868461
3832.163628,-287.138712,-1397.408398,-10202.995566
3832.166199,-401.994197,-593.420005,-10241.280728
3832.168770,2182.254211,3120.240670,-9207.581365
3832.171340,-727.418070,-2794.816797,-10336.993632
3832.173911,-3081.955509,746.560651,-9590.432981
3832.176482,38.285162,823.130974,-9207.581365
3832.179052,3081.955509,1359.123237,-10509.276859
3832.181623,-2067.398726,-2373.680019,-11121.839445
3832.184194,191.425808,3483.949706,-8958.727814
3832.186764,5493.920690,2928.814862,-8920.442653
3832.189335,-57.427742,-2890.529701,-11408.978157
3832.191905,-2718.246474,5072.783912,-9284.151688
3832.194476,2335.394858,689.132909,-9073.583299
3832.197047,957.129040,-1722.832272,-10796.415571
3832.199617,2277.967115,4268.795518,-9265.009107
3832.202188,2335.394858,-153.140646,-9934.999435
3832.204759,-1856.830338,2469.392923,-9743.573627
3832.207330,-574.277424,784.845813,-9609.575562
3832.209901,1895.115499,-172.283227,-10049.854920
3832.212472,1339.980656,1550.549045,-10030.712339
3832.215042,114.855485,1052.841944,-9839.286531
3832.217613,1397.408398,459.421939,-9667.003304
3832.220184,-593.420005,631.705166,-9513.862658
3832.222755,1895.115499,918.843878,-9954.142016
3832.225326,516.849682,-555.134843,-10719.845248
3832.227897,1263.410333,4441.078746,-9533.005238
3832.230467,2756.531635,1741.974853,-9705.288466
3832.233038,937.986459,1741.974853,-10107.282662
3832.235609,-248.853550,2526.820666,-9284.151688
3832.238180,1052.841944,-1244.267752,-9973.284597
3832.240751,1052.841944,-995.414202,-10987.841379
3832.243322,2718.246474,4575.076811,-9207.581365
3832.245892,-382.851616,-4115.654872,-10470.991698
3832.248463,-3388.236802,4766.502619,-8997.012976
3832.251034,2297.109696,1990.828403,-9399.007173
3832.253605,19.142581,-2718.246474,-11542.976222
3832.256176,-3349.951640,1359.123237,-9437.292334
3832.258746,4019.941968,459.421939,-9341.579430
3832.261317,3158.525832,-210.568389,-10413.563955
3832.263888,-1818.545176,1416.550979,-9667.003304
3832.266459,172.283227,1627.119368,-9801.001370
3832.269030,957.129040,-497.707101,-10183.852986
3832.271601,-287.138712,1186.840010,-9494.720077
3832.274171,669.990328,-1454.836141,-10202.995566
3832.276742,401.994197,765.703232,-10030.712339
3832.279313,382.851616,650.847747,-10049.854920
3832.281884,-191.425808,-229.710970,-9992.427178
3832.284455,-133.998066,612.562586,-9150.153622
3832.287026,76.570323,-1416.550979,-10375.278794
3832.289596,1397.408398,133.998066,-10509.276859
3832.292167,-1397.408398,-229.710970,-10298.708470
3832.294738,-2105.683888,1205.982590,-9245.866526
3832.297309,-267.996131,-516.849682,-9456.434915
3832.299880,2603.390989,1454.836141,-10126.425243
3832.302450,-1320.838075,-2488.535504,-10968.698798
3832.305004,-306.281293,3139.383251,-9341.579430
3832.307558,5111.069074,3024.527766,-9016.155557
3832.310112,-899.701298,-535.992262,-10815.558152
3832.312666,-95.712904,4957.928427,-9016.155557
3832.315219,1282.552914,-1818.545176,-9896.714274
3832.317773,-669.990328,-1914.258080,-10930.413637
3832.320327,2105.683888,4211.367776,-9341.579430
3832.322881,1837.687757,-153.140646,-10126.425243
3832.325435,-1435.693560,1895.115499,-9705.288466
3832.327988,-1091.127106,937.986459,-9571.290400
3832.330542,1703.689691,555.134843,-9954.142016
3832.333096,880.558717,669.990328,-9973.284597
3832.335650,1416.550979,1416.550979,-10183.852986
3832.338204,95.712904,765.703232,-9896.714274
3832.340757,555.134843,1473.978722,-9226.723946
3832.343311,746.560651,937.986459,-10088.140082
3832.345865,1990.828403,172.283227,-10260.423309
3832.348419,1167.697429,3043.670347,-9973.284597
3832.350973,2813.959378,3713.660675,-9399.007173
3832.353526,497.707101,1320.838075,-9973.284597
3832.356080,-2411.965181,2354.537438,-9724.431046
3832.358634,2450.250342,-421.136778,-9379.864592
3832.361188,1895.115499,-1875.972918,-10796.415571
3832.363742,1378.265818,3943.371645,-9820.143950
3832.366295,1473.978722,2009.970984,-8671.589102
3832.368849,-1933.400661,-1722.832272,-10987.841379
3832.371403,-1167.697429,4383.651003,-9552.147819
3832.373957,2411.965181,-1952.543242,-9992.427178
3832.376511,-2124.826469,-2450.250342,-10202.995566
3832.379064,229.710970,1359.123237,-9475.577496
3832.381618,2967.100024,-19.142581,-10260.423309
3832.384172,-1761.117434,1895.115499,-9820.143950
3832.386726,-1665.404530,1933.400661,-9379.864592
3832.389280,650.847747,440.279358,-9877.571693
3832.391834,1129.412267,-267.996131,-9552.147819
3832.394387,-344.566454,574.277424,-10088.140082
3832.396941,57.427742,1282.552914,-10470.991698
3832.399495,784.845813,-38.285162,-10049.854920
3832.402049,-248.853550,823.130974,-9092.725880
3832.404603,172.283227,-516.849682,-9533.005238
3832.407156,-114.855485,-1282.552914,-10738.987829
3832.409712,516.849682,2545.963246,-10183.852986
3832.412268,-133.998066,765.703232,-9667.003304
3832.414824,-1914.258080,-3349.951640,-10088.140082
3832.417380,-689.132909,440.279358,-9456.434915
3832.419936,2947.957443,2373.680019,-10145.567824
3832.422492,38.285162,-229.710970,-10834.700733
3832.425048,-1071.984525,1167.697429,-9628.718142
3832.427604,4230.510357,5359.922624,-8729.016845
3832.430160,1914.258080,-3541.377448,-10834.700733
3832.432716,-3809.373579,2392.822600,-9437.292334
3832.435272,-401.994197,2622.533570,-9533.005238
3832.437828,4498.506488,-1761.117434,-10777.272990
3832.440384,1435.693560,3407.379382,-9743.573627
3832.442940,325.423874,1818.545176,-9092.725880
3832.445496,229.710970,-38.285162,-10107.282662
3832.448052,-1205.982590,440.279358,-9801.001370
3832.450608,2411.965181,1454.836141,-9954.142016
3832.453164,1818.545176,401.994197,-10585.847182
3832.455720,-1071.984525,1148.554848,-9533.005238
3832.458276,172.283227,1071.984525,-9437.292334
3832.460832,1378.265818,746.560651,-9992.427178
3832.463388,1512.263883,114.855485,-10547.562021
3832.465944,1263.410333,3349.951640,-10068.997501
3832.468500,3426.521963,2660.818731,-9456.434915
3832.471056,133.998066,2048.256146,-9667.003304
3832.473612,-1205.982590,2603.390989,-9437.292334
3832.476168,727.418070,-2545.963246,-10298.708470
3832.478724,1933.400661,1588.834206,-10107.282662
3832.481280,1014.556782,3560.520029,-9762.716208
3832.483836,0.000000,-2813.959378,-9628.718142
3832.486392,-3349.951640,2603.390989,-9437.292334
3832.488948,1454.836141,2967.100024,-9590.432981
3832.491504,1014.556782,-2756.531635,-11102.696864
3832.494060,-3081.955509,363.709035,-9571.290400
3832.496616,3292.523898,1033.699363,-9207.581365
3832.499172,1569.691626,-1761.117434,-10432.706536
3832.501728,-1780.260014,1837.687757,-9801.001370
3832.504284,-497.707101,2220.539373,-9552.147819
3832.506840,1990.828403,-210.568389,-10145.567824
3832.509398,-1320.838075,-306.281293,-10049.854920
3832.511956,689.132909,823.130974,-9590.432981
3832.514514,1550.549045,535.992262,-10107.282662
3832.517073,-976.271621,842.273555,-10356.136213
3832.519631,401.994197,535.992262,-9590.432981
3832.522189,-153.140646,-38.285162,-9552.147819
3832.524747,19.142581,-478.564520,-10164.710405
3832.527305,593.420005,669.990328,-10547.562021
3832.529863,-153.140646,1703.689691,-9667.003304
3832.532422,-1531.406464,-2277.967115,-9992.427178
3832.534980,57.427742,-229.710970,-10164.710405
3832.537538,1818.545176,2086.541307,-10222.138147
3832.540096,574.277424,1186.840010,-10202.995566
3832.542654,-344.566454,746.560651,-10011.569758
3832.545212,3445.664544,5551.348432,-8997.012976
3832.547771,2258.824534,-2029.113565,-10700.702667
3832.550329,-1339.980656,-1799.402595,-10298.708470
3832.552887,-842.273555,1512.263883,-9973.284597
3832.555445,4307.080680,-803.988394,-10413.563955
3832.558003,2201.396792,3196.810994,-9762.716208
3832.560562,-306.281293,1703.689691,-9475.577496
3832.563120,-133.998066,382.851616,-9801.001370
3832.565678,-421.136778,0.000000,-9724.431046
3832.568236,2143.969050,478.564520,-10030.712339
3832.570794,1722.832272,248.853550,-10643.274925
3832.573352,-1301.695494,1033.699363,-9494.720077
3832.575911,593.420005,995.414202,-8977.870395
3832.578469,650.847747,-746.560651,-10107.282662
3832.581027,1895.115499,2488.535504,-9992.427178
3832.583585,2565.105827,1397.408398,-10336.993632
3832.586143,1875.972918,3617.947771,-9226.723946
3832.588701,19.142581,1665.404530,-9131.011042
3832.591260,-3369.094221,-669.990328,-10088.140082
3832.593818,3349.951640,2833.101958,-9188.438784
3832.596376,5704.489078,-937.986459,-10624.132344
3832.598934,-3292.523898,-2277.967115,-11370.692995
3832.601492,382.851616,5436.492947,-7657.032320
3832.604051,-401.994197,-3503.092286,-10796.415571
3832.606609,-2737.389054,3081.955509,-10490.134278
3832.609167,1761.117434,574.277424,-9628.718142
3832.611727,574.277424,-3560.520029,-10624.132344
3832.614286,-1952.543242,1301.695494,-9609.575562
3832.616846,2450.250342,708.275490,-10126.425243
3832.619406,1493.121302,1665.404530,-9647.860723
3832.621965,-1320.838075,2775.674216,-9647.860723
3832.624525,574.277424,-401.994197,-10260.423309
3832.627085,229.710970,421.136778,-9590.432981
3832.629644,842.273555,995.414202,-9801.001370
3832.632204,-95.712904,784.845813,-10566.704602
3832.634764,38.285162,784.845813,-10088.140082
3832.637323,153.140646,-38.285162,-9092.725880
3832.639883,-497.707101,-478.564520,-9992.427178
3832.642443,1990.828403,3101.098090,-9915.856854
3832.645002,650.847747,210.568389,-9915.856854
3832.647562,-3005.385186,-2833.101958,-10796.415571
3832.650122,-727.418070,555.134843,-9303.294269
3832.652681,4192.225195,2622.533570,-9609.575562
3832.655241,-1129.412267,-1282.552914,-10834.700733
3832.657801,-1225.125171,2335.394858,-9571.290400
3832.660360,6068.198114,4938.785846,-9035.298138
3832.662920,0.000000,-3311.666478,-11217.552349
3832.665480,-2143.969050,4575.076811,-8958.727814
3832.668039,823.130974,2220.539373,-8863.014910
3832.670599,2603.390989,-2373.680019,-10949.556218
3832.673159,1588.834206,4460.221326,-9609.575562
3832.675719,1454.836141,1607.976787,-9839.286531
3832.678278,-593.420005,593.420005,-9992.427178
3832.680838,-574.277424,478.564520,-9188.438784
3832.683398,1569.691626,631.705166,-10107.282662
3832.685957,1148.554848,1129.412267,-10356.136213
3832.688517,535.992262,1129.412267,-9762.716208
3832.691077,957.129040,133.998066,-9360.722011
3832.693636,76.570323,-191.425808,-9781.858789
3832.696196,2909.672282,2507.678085,-9992.427178
3832.698756,2220.539373,861.416136,-10700.702667
3832.701315,1282.552914,2852.244539,-9207.581365
3832.703875,153.140646,2029.113565,-8786.444587
3832.706435,-1780.260014,-3388.236802,-10585.847182
3832.708994,2392.822600,3885.943902,-9399.007173
3832.711554,5359.922624,-76.570323,-10528.419440
3832.714115,-3445.664544,-3062.812928,-11676.974288
3832.716676,95.712904,5398.207786,-7599.604578
3832.719238,133.998066,-3694.518094,-10260.423309
3832.721799,-2679.961312,2029.113565,-10834.700733
3832.724360,-1378.265818,2584.248408,-9284.151688
3832.726921,4134.797453,-1722.832272,-10145.567824
3832.729483,-2794.816797,-746.560651,-10700.702667
3832.732044,-38.285162,2048.256146,-9724.431046
3832.734605,1512.263883,1244.267752,-9762.716208
3832.737166,-976.271621,1875.972918,-9705.288466
3832.739727,-440.279358,-421.136778,-10413.563955
3832.742289,1435.693560,1110.269686,-9628.718142
3832.744850,0.000000,746.560651,-9781.858789
3832.747411,-937.986459,-38.285162,-10490.134278
3832.749972,76.570323,1225.125171,-9475.577496
3832.752534,344.566454,459.421939,-9226.723946
3832.755095,1761.117434,-1014.556782,-10356.136213
3832.757656,-2124.826469,-440.279358,-10490.134278
3832.760217,-38.285162,2258.824534,-9303.294269
3832.762778,-784.845813,-2431.107762,-10068.997501
3832.765340,612.562586,-229.710970,-9705.288466
3832.767901,995.414202,1550.549045,-10011.569758
3832.770462,899.701298,3751.945837,-9131.011042
3832.773023,4192.225195,1225.125171,-9418.149754
3832.775585,574.277424,2029.113565,-10222.138147
3832.778146,2373.680019,3024.527766,-8997.012976
3832.780707,-1071.984525,-2622.533570,-10011.569758
3832.783268,-1282.552914,1588.834206,-10145.567824
3832.785829,3809.373579,-95.712904,-10298.708470
3832.788391,3503.092286,3139.383251,-10011.569758
3832.790952,-1205.982590,1895.115499,-9781.858789
3832.793513,516.849682,1129.412267,-9150.153622
3832.796059,937.986459,497.707101,-9896.714274
3832.798604,459.421939,765.703232,-10509.276859
3832.801150,1244.267752,1895.115499,-10528.419440
3832.803695,727.418070,1263.410333,-9609.575562
3832.806241,-823.130974,-287.138712,-9073.583299
3832.808786,1607.976787,1301.695494,-9590.432981
3832.811332,2450.250342,1856.830338,-10777.272990
3832.813877,2507.678085,3694.518094,-10107.282662
3832.816423,535.992262,2105.683888,-9188.438784
3832.818968,-3483.949706,-612.562586,-9667.003304
3832.821514,3024.527766,2201.396792,-8977.870395
3832.824059,3426.521963,-2182.254211,-10968.698798
3832.826605,-95.712904,2488.535504,-10566.704602
3832.829150,650.847747,-976.271621,-9341.579430
3832.831695,-3388.236802,76.570323,-9877.571693
3832.834241,-555.134843,3330.809059,-9418.149754
3832.836786,2411.965181,-3235.096155,-10930.413637
3832.839332,-191.425808,-3675.375514,-10643.274925
3832.841877,-1263.410333,1895.115499,-9150.153622
3832.844423,2373.680019,-210.568389,-10164.710405
3832.846968,-1052.841944,995.414202,-9934.999435
3832.849514,-1416.550979,2813.959378,-9494.720077
3832.852059,3081.955509,-325.423874,-10528.419440
3832.854605,-918.843878,-459.421939,-10222.138147
3832.857150,-689.132909,478.564520,-9552.147819
3832.859696,1722.832272,574.277424,-9896.714274
3832.862241,689.132909,-19.142581,-10470.991698
3832.864787,-1416.550979,708.275490,-9839.286531
3832.867332,1914.258080,-95.712904,-9360.722011
3832.869878,-1148.554848,-1110.269686,-10528.419440
3832.872423,-995.414202,1971.685822,-9475.577496
3832.874969,-1091.127106,-1837.687757,-9954.142016
3832.877514,401.994197,210.568389,-10088.140082
3832.880060,1359.123237,1971.685822,-10164.710405
3832.882605,0.000000,842.273555,-9781.858789
3832.885151,-133.998066,1186.840010,-9571.290400
3832.887696,1512.263883,3349.951640,-9858.429112
3832.890242,2871.387120,1607.976787,-9647.860723
3832.892787,-1397.408398,-1761.117434,-10126.425243
3832.895333,-1052.841944,1914.258080,-9686.145885
3832.897882,3541.377448,-1071.984525,-10279.565890
3832.900430,3101.098090,3464.807125,-9992.427178
3832.902979,-229.710970,2239.681954,-9839.286531
3832.905528,861.416136,440.279358,-9934.999435
3832.908077,-382.851616,459.421939,-9533.005238
3832.910626,1665.404530,1856.830338,-10011.569758
3832.913175,1435.693560,823.130974,-10968.698798
3832.915724,-76.570323,746.560651,-9877.571693
3832.918273,-440.279358,19.142581,-9169.296203
3832.920822,2660.818731,2048.256146,-9858.429112
3832.923370,1990.828403,1607.976787,-10662.417506
3832.925919,2009.970984,3809.373579,-9973.284597
3832.928468,918.843878,2871.387120,-9207.581365
3832.931017,-3196.810994,-172.283227,-9839.286531
3832.933566,2277.967115,3675.375514,-9169.296203
3832.936115,5091.926493,-1282.552914,-10662.417506
3832.938664,-2009.970984,-784.845813,-11160.124606
3832.941213,459.421939,3560.520029,-8288.737486
3832.943761,-1990.828403,-2756.531635,-10030.712339
3832.946310,-2067.398726,2756.531635,-9705.288466
3832.948859,2660.818731,-1282.552914,-10279.565890
3832.951408,-957.129040,-3388.236802,-10585.847182
3832.953957,-612.562586,2297.109696,-9016.155557
3832.956506,1091.127106,1359.123237,-9571.290400
3832.959055,1244.267752,1091.127106,-9456.434915
3832.961604,-1646.261949,3043.670347,-9360.722011
3832.964152,1167.697429,-1320.838075,-10566.704602
3832.966701,574.277424,440.279358,-9820.143950
3832.969250,-535.992262,784.845813,-9954.142016
3832.971799,1014.556782,57.427742,-10145.567824
3832.974348,-363.709035,1665.404530,-9801.001370
3832.976897,191.425808,-555.134843,-9743.573627
3832.979446,1301.695494,708.275490,-9858.429112
3832.981995,-1627.119368,-2201.396792,-10949.556218
3832.984544,-2411.965181,-650.847747,-10030.712339
3832.987092,76.570323,459.421939,-9647.860723
3832.989641,3139.383251,2431.107762,-9762.716208
3832.992190,-2086.541307,-2105.683888,-10738.987829
3832.994739,-1071.984525,4019.941968,-9035.298138
3832.997288,6202.196179,3177.668413,-9073.583299
3832.999840,-133.998066,-957.129040,-11657.831707
3833.002391,-3215.953574,4881.358104,-9111.868461
3833.004943,1263.410333,631.705166,-8882.157491
3833.007494,497.707101,-1761.117434,-10930.413637
3833.010046,1569.691626,3503.092286,-9207.581365
3833.012597,3905.086483,2928.814862,-9781.858789
3833.015149,-803.988394,153.140646,-10470.991698
3833.017701,-803.988394,765.703232,-9226.723946
3833.020252,1110.269686,1435.693560,-9303.294269
3833.022804,1071.984525,746.560651,-10700.702667
3833.025355,2143.969050,2239.681954,-9667.003304
3833.027907,-1493.121302,-1225.125171,-9571.290400
3833.030458,1454.836141,1990.828403,-8805.587168
3833.033010,2928.814862,1378.265818,-10222.138147
3833.035562,2105.683888,3177.668413,-10566.704602
3833.038113,1454.836141,3656.232933,-9475.577496
3833.040665,-1091.127106,1033.699363,-9533.005238
3833.043216,-727.418070,-1588.834206,-9552.147819
3833.045768,2679.961312,401.994197,-9973.284597
3833.048319,1493.121302,2890.529701,-10547.562021
3833.050871,-95.712904,-1244.267752,-9724.431046
3833.053423,-4173.082614,784.845813,-9552.147819
3833.055974,38.285162,3541.377448,-9054.440718
3833.058526,1473.978722,-3483.949706,-10834.700733
3833.061077,-2890.529701,-497.707101,-10068.997501
3833.063629,3196.810994,2775.674216,-8690.731683
3833.066180,1741.974853,-2258.824534,-10872.985894
3833.068732,-2947.957443,1569.691626,-9781.858789
3833.071284,-535.992262,2316.252277,-9322.436850
3833.073835,1607.976787,-1416.550979,-10624.132344
3833.076387,-133.998066,1014.556782,-9571.290400
3833.078938,574.277424,631.705166,-9456.434915
3833.081490,-38.285162,-842.273555,-10241.280728
3833.084042,-325.423874,1148.554848,-9954.142016
3833.086593,153.140646,133.998066,-10011.569758
3833.089145,1359.123237,1052.841944,-9705.288466
3833.091696,-2029.113565,-2794.816797,-10394.421374
3833.094248,-2086.541307,-2009.970984,-10126.425243
3833.096799,344.566454,172.283227,-9839.286531
3833.099351,3177.668413,2775.674216,-9954.142016
3833.101905,-2603.390989,-2277.967115,-11198.409768
3833.104459,-976.271621,3751.945837,-9188.438784
3833.107013,6565.905214,3445.664544,-8843.872330
3833.109567,-248.853550,-1397.408398,-11083.554283
3833.112121,-19.142581,4402.793584,-9092.725880
3833.114676,1033.699363,-842.273555,-9743.573627
3833.117230,401.994197,-1531.406464,-11102.696864
3833.119784,1129.412267,3024.527766,-9686.145885
3833.122338,4173.082614,3062.812928,-9590.432981
3833.124892,-650.847747,-57.427742,-10356.136213
3833.127446,-2258.824534,267.996131,-8977.870395
3833.130000,784.845813,2124.826469,-9379.864592
3833.132554,2431.107762,765.703232,-10815.558152
3833.135108,-133.998066,1550.549045,-9992.427178
3833.137662,-784.845813,612.562586,-8977.870395
3833.140217,2469.392923,1320.838075,-9226.723946
3833.142771,2201.396792,1091.127106,-10298.708470
3833.145325,2220.539373,3771.088418,-9762.716208
3833.147879,1091.127106,3158.525832,-9820.143950
3833.150433,-3349.951640,-229.710970,-10011.569758
3833.152987,2258.824534,3675.375514,-8633.303941
3833.155541,5647.061336,-1052.841944,-10202.995566
3833.158095,-2067.398726,-1359.123237,-11198.409768
3833.160649,229.710970,4785.645200,-8346.165229
3833.163203,-1244.267752,-3694.518094,-10700.702667
3833.165757,-2450.250342,2411.965181,-9992.427178
3833.168312,2431.107762,172.283227,-9552.147819
3833.170866,459.421939,-4192.225195,-10911.271056
3833.173420,-1282.552914,3005.385186,-9073.583299
3833.175974,114.855485,1665.404530,-9571.290400
3833.178528,1339.980656,555.134843,-9877.571693
3833.181082,-1263.410333,2565.105827,-9284.151688
3833.183636,382.851616,861.416136,-10241.280728
3833.186190,1378.265818,-478.564520,-10068.997501
3833.188744,-957.129040,1244.267752,-9418.149754
3833.191298,-133.998066,344.566454,-10126.425243
3833.193853,803.988394,-306.281293,-10375.278794
3833.196407,861.416136,669.990328,-9552.147819
3833.198961,-2603.390989,-3426.521963,-10777.272990
3833.201515,-1493.121302,1454.836141,-9801.001370
3833.204071,535.992262,-842.273555,-9609.575562
3833.206628,1091.127106,-1052.841944,-10356.136213
3833.209184,-803.988394,1607.976787,-10509.276859
3833.211741,1320.838075,2488.535504,-9475.577496
3833.214298,267.996131,172.283227,-9896.714274
3833.216854,2431.107762,5570.491013,-9628.718142
3833.219411,3924.229064,-478.564520,-10547.562021
3833.221967,-669.990328,-2679.961312,-10222.138147
3833.224524,-2258.824534,1148.554848,-10145.567824
3833.227080,3292.523898,-133.998066,-10164.710405
3833.229637,3139.383251,2411.965181,-10183.852986
3833.232193,-1339.980656,3694.518094,-9513.862658
3833.234750,1761.117434,-325.423874,-9705.288466
3833.237306,0.000000,-631.705166,-9399.007173
3833.239863,-957.129040,1339.980656,-10107.282662
3833.242420,3158.525832,1780.260014,-10624.132344
3833.244976,1684.547110,-593.420005,-9820.143950
3833.247533,-306.281293,1167.697429,-8575.876198
3833.250089,1933.400661,1091.127106,-9399.007173
3833.252646,3617.947771,2009.970984,-10604.989763
3833.255202,957.129040,4000.799387,-9667.003304
3833.257759,-2545.963246,976.271621,-9494.720077
3833.260315,1588.834206,-267.996131,-8997.012976
3833.262872,2335.394858,-880.558717,-9686.145885
3833.265428,2794.816797,3158.525832,-10011.569758
3833.267985,784.845813,1110.269686,-9552.147819
3833.270542,-3120.240670,-1129.412267,-10298.708470
3833.273098,-1684.547110,3369.094221,-9303.294269
3833.275655,2756.531635,-2297.109696,-10030.712339
3833.278211,-1990.828403,-1990.828403,-10604.989763
3833.280768,957.129040,3598.805190,-9092.725880
3833.283324,2775.674216,-957.129040,-10872.985894
3833.285881,-2469.392923,1301.695494,-9915.856854
3833.288437,0.000000,2182.254211,-9245.866526
3833.290994,2507.678085,-784.845813,-10509.276859
3833.293550,287.138712,1071.984525,-10279.565890
3833.296107,-1071.984525,1110.269686,-10202.995566
3833.298664,1129.412267,267.996131,-9839.286531
3833.301220,-669.990328,325.423874,-9915.856854
3833.303777,229.710970,1282.552914,-9571.290400
3833.306335,-612.562586,-1914.258080,-10470.991698
3833.308893,-1684.547110,823.130974,-9915.856854
3833.311452,-421.136778,-2488.535504,-10260.423309
3833.314010,2794.816797,-1378.265818,-10107.282662
3833.316568,-2182.254211,995.414202,-10088.140082
3833.319127,382.851616,3235.096155,-9131.011042
3833.321685,2545.963246,267.996131,-10068.997501
3833.324243,2009.970984,4919.643266,-9552.147819
3833.326802,3292.523898,-191.425808,-10030.712339
3833.329360,-2335.394858,-1799.402595,-10068.997501
3833.331918,-861.416136,2373.680019,-9092.725880
3833.334476,3196.810994,-1971.685822,-10968.698798
3833.337035,3847.658741,2373.680019,-9877.571693
3833.339593,-1033.699363,3751.945837,-9284.151688
3833.342151,1110.269686,-1339.980656,-9915.856854
3833.344710,287.138712,459.421939,-9131.011042
3833.347268,0.000000,1990.828403,-10107.282662
3833.349826,2545.963246,555.134843,-11466.405899
3833.352385,-459.421939,861.416136,-9743.573627
3833.354943,287.138712,2201.396792,-8384.450390
3833.357501,3101.098090,-229.710970,-9877.571693
3833.360060,1856.830338,2545.963246,-10796.415571
3833.362618,-153.140646,4326.223261,-9820.143950
3833.365176,-2316.252277,-1569.691626,-10088.140082
3833.367735,2373.680019,3273.381317,-8480.163294
3833.370293,4058.227130,-1493.121302,-9954.142016
3833.372851,-957.129040,-593.420005,-11466.405899
3833.375409,382.851616,3522.234867,-9111.868461
3833.377968,-2718.246474,-2737.389054,-10528.419440
3833.380526,-1914.258080,2584.248408,-9705.288466
3833.383084,2909.672282,-1167.697429,-9360.722011
3833.385643,1990.828403,-4651.647134,-10949.556218
3833.388201,-2775.674216,1895.115499,-10241.280728
3833.390759,1971.685822,1244.267752,-9781.858789
3833.393318,267.996131,-267.996131,-10126.425243
3833.395876,-1818.545176,3617.947771,-9169.296203
3833.398434,2220.539373,-1167.697429,-10336.993632
3833.400993,-229.710970,650.847747,-10394.421374
3833.403551,-1454.836141,861.416136,-10222.138147
3833.406109,2009.970984,1263.410333,-9475.577496
3833.408666,1129.412267,-976.271621,-10317.851051
3833.411227,-1665.404530,2086.541307,-9322.436850
3833.413787,-153.140646,-1052.841944,-9801.001370
3833.416347,-1397.408398,-2660.818731,-10892.128475
3833.418907,-1301.695494,535.992262,-9743.573627
3833.421467,3943.371645,2373.680019,-9399.007173
3833.424027,-2431.107762,-2316.252277,-10853.843314
3833.426588,-1971.685822,4575.076811,-8805.587168
3833.429148,6221.338760,5570.491013,-8748.159426
3833.431708,2124.826469,-3483.949706,-11523.833642
3833.434268,-2852.244539,4517.649069,-8997.012976
3833.436828,574.277424,229.710970,-8882.157491
3833.439388,689.132909,-1454.836141,-10509.276859
3833.441949,1531.406464,2622.533570,-9628.718142
3833.444509,3866.801322,2201.396792,-9915.856854
3833.447069,-918.843878,1646.261949,-10068.997501
3833.449629,-995.414202,-382.851616,-9628.718142
3833.452189,1320.838075,1129.412267,-9092.725880
3833.454749,1186.840010,401.994197,-10987.841379
3833.457310,-363.709035,1741.974853,-10336.993632
3833.459870,1569.691626,1244.267752,-9054.440718
3833.462430,1493.121302,306.281293,-9494.720077
3833.464990,1512.263883,2163.111630,-10088.140082
3833.467550,2220.539373,3330.809059,-10088.140082
3833.470110,-363.709035,1550.549045,-10413.563955
3833.472671,-497.707101,-497.707101,-9475.577496
3833.475231,2143.969050,-133.998066,-9456.434915
3833.477791,918.843878,2220.539373,-10566.704602
3833.480351,-38.285162,-784.845813,-9571.290400
3833.482911,-3962.514226,344.566454,-10202.995566
3833.485471,-459.421939,2871.387120,-9705.288466
3833.488032,1933.400661,-2603.390989,-9915.856854
3833.490592,-3292.523898,-516.849682,-10049.854920
3833.493152,3081.955509,2201.396792,-9437.292334
3833.495712,1990.828403,-287.138712,-10394.421374
3833.498272,-3120.240670,937.986459,-10030.712339
3833.500833,-440.279358,2086.541307,-9111.868461
3833.503393,2105.683888,-899.701298,-10547.562021
3833.505953,-842.273555,555.134843,-10030.712339
3833.508513,880.558717,1033.699363,-9533.005238
3833.511075,382.851616,574.277424,-9743.573627
3833.513636,-669.990328,401.994197,-10030.712339
3833.516198,478.564520,1952.543242,-9475.577496
3833.518759,-689.132909,-2316.252277,-10432.706536
3833.521321,-2718.246474,-1320.838075,-10413.563955
3833.523882,-306.281293,555.134843,-9571.290400
3833.526444,3522.234867,2220.539373,-9456.434915
3833.529005,-2450.250342,-2699.103893,-11064.411702
3833.531567,-2526.820666,4268.795518,-9341.579430
3833.534128,6738.188442,3847.658741,-8729.016845
3833.536690,2833.101958,-3483.949706,-11351.550414
3833.539251,-2833.101958,4364.508422,-8671.589102
3833.541813,574.277424,344.566454,-8901.300072
3833.544374,401.994197,-1665.404530,-11313.265253
3833.546936,1263.410333,3694.518094,-9705.288466
3833.549497,4345.365842,1741.974853,-9896.714274
3833.552059,-440.279358,1397.408398,-10030.712339
3833.554620,-2124.826469,0.000000,-9284.151688
3833.557182,2411.965181,1512.263883,-8997.012976
3833.559744,2048.256146,708.275490,-11179.267187
3833.562305,153.140646,1569.691626,-10317.851051
3833.564867,708.275490,1512.263883,-8805.587168
3833.567428,2565.105827,1091.127106,-8805.587168
3833.569990,976.271621,2143.969050,-9973.284597
3833.572551,1473.978722,3656.232933,-10528.419440
3833.575113,-1646.261949,784.845813,-10566.704602
3833.577674,2048.256146,2756.531635,-8537.591037
3833.580236,3081.955509,-2526.820666,-10068.997501
3833.582797,-2009.970984,-1550.549045,-10968.698798
3833.585359,267.996131,4651.647134,-8939.585234
3833.587920,-1952.543242,-3732.803256,-11370.692995
3833.590482,-2220.539373,2182.254211,-9820.143950
3833.593043,3024.527766,-497.707101,-8633.303941
3833.595605,-784.845813,-4823.930362,-10490.134278
3833.598166,-1397.408398,3637.090352,-9418.149754
3833.600728,2947.957443,114.855485,-11006.983960
3833.603289,-1378.265818,-325.423874,-10566.704602
3833.605851,-1665.404530,1225.125171,-8671.589102
3833.608412,669.990328,-172.283227,-9552.147819
3833.610974,1607.976787,842.273555,-10260.423309
3833.613537,-1914.258080,823.130974,-10834.700733
3833.616099,631.705166,1244.267752,-10049.854920
3833.618662,2163.111630,-918.843878,-9552.147819
3833.621225,-3656.232933,-1512.263883,-9667.003304
3833.623788,-803.988394,1263.410333,-9054.440718
3833.626350,689.132909,-2622.533570,-11236.694930
3833.628913,1646.261949,-421.136778,-10930.413637
3833.631476,-1282.552914,2469.392923,-9609.575562
3833.634039,689.132909,1244.267752,-9131.011042
3833.636601,-267.996131,727.418070,-9513.862658
3833.639164,3598.805190,6240.481341,-9647.860723
3833.641727,4728.217458,-937.986459,-11389.835576
3833.644290,-3292.523898,1646.261949,-9590.432981
3833.646852,-957.129040,1646.261949,-8748.159426
3833.649415,2450.250342,-2354.537438,-10719.845248
3833.651978,1186.840010,2871.387120,-9896.714274
3833.654541,861.416136,4345.365842,-9954.142016
3833.657103,1339.980656,440.279358,-10164.710405
3833.659666,-459.421939,-114.855485,-8824.729749
3833.662229,516.849682,842.273555,-9399.007173
3833.664792,2143.969050,1052.841944,-11006.983960
3833.667354,861.416136,1780.260014,-10451.849117
3833.669917,497.707101,1244.267752,-9284.151688
3833.672480,1895.115499,2201.396792,-8729.016845
3833.675042,2277.967115,2316.252277,-10030.712339
3833.677605,-803.988394,1512.263883,-10490.134278
3833.680168,-210.568389,-95.712904,-9781.858789
3833.682731,2239.681954,267.996131,-9762.716208
3833.685293,3885.943902,2737.389054,-9456.434915
3833.687856,-1856.830338,-4134.797453,-10356.136213
3833.690419,-2986.242605,5206.781978,-8997.012976
3833.692982,1473.978722,-421.136778,-10260.423309
3833.695544,-1033.699363,-2699.103893,-11160.124606
3833.698107,-3120.240670,-114.855485,-9475.577496
3833.700670,3330.809059,1320.838075,-9303.294269
3833.703233,1244.267752,306.281293,-10796.415571
3833.705795,-2737.389054,1071.984525,-10164.710405
3833.708358,2297.109696,1569.691626,-9379.864592
3833.710921,1301.695494,-1454.836141,-10241.280728
3833.713484,-2584.248408,650.847747,-9954.142016
3833.716047,803.988394,1033.699363,-9877.571693
3833.718611,2048.256146,861.416136,-9915.856854
3833.721175,612.562586,-842.273555,-10222.138147
3833.723739,-2756.531635,-593.420005,-10164.710405
3833.726303,229.710970,899.701298,-8997.012976
3833.728867,-880.558717,-4039.084549,-10777.272990
3833.731431,-976.271621,-516.849682,-10566.704602
3833.733995,3407.379382,4268.795518,-9131.011042
3833.736559,-1818.545176,-2852.244539,-10662.417506
3833.739122,-2737.389054,2258.824534,-9533.005238
3833.741686,7293.323285,5915.057467,-8537.591037
3833.744250,4000.799387,-2220.539373,-11370.692995
3833.746814,-3885.943902,1856.830338,-9513.862658
3833.749378,-210.568389,2009.970984,-8633.303941
3833.751942,1684.547110,-2507.678085,-11179.267187
3833.754506,995.414202,3675.375514,-9647.860723
3833.757070,3924.229064,2833.101958,-9590.432981
3833.759634,19.142581,784.845813,-10432.706536
3833.762197,-2565.105827,631.705166,-9207.581365
3833.764761,1818.545176,1722.832272,-8882.157491
3833.767325,1761.117434,746.560651,-11064.411702
3833.769889,497.707101,2201.396792,-10145.567824
3833.772453,937.986459,1895.115499,-9035.298138
3833.775017,2411.965181,1646.261949,-8977.870395
3833.777581,1473.978722,2641.676150,-9915.856854
3833.780145,-191.425808,1550.549045,-10585.847182
3833.782709,229.710970,-1186.840010,-10011.569758
3833.785273,1914.258080,1588.834206,-9016.155557
3833.787836,4153.940034,2277.967115,-9284.151688
3833.790400,-2143.969050,-4804.787781,-10987.841379
3833.792964,-3388.236802,2947.957443,-9628.718142
3833.795528,535.992262,1569.691626,-9896.714274
3833.798092,976.271621,-3694.518094,-11006.983960
3833.800656,-2392.822600,1818.545176,-8958.727814
3833.803220,3081.955509,-267.996131,-9647.860723
3833.805784,210.568389,306.281293,-11102.696864
3833.808348,-2239.681954,2258.824534,-10011.569758
3833.810911,2718.246474,976.271621,-9303.294269
3833.813475,-191.425808,-1071.984525,-10260.423309
3833.816039,-2565.105827,1263.410333,-9839.286531
3833.818604,1167.697429,995.414202,-10126.425243
3833.821168,1071.984525,267.996131,-10432.706536
3833.823733,-593.420005,2258.824534,-9437.292334
3833.826298,-1129.412267,-1607.976787,-10260.423309
3833.828862,-1397.408398,0.000000,-9781.858789
3833.831427,-1071.984525,-1282.552914,-10030.712339
3833.833991,842.273555,-1493.121302,-10930.413637
3833.836556,1512.263883,4211.367776,-9839.286531
3833.839121,-344.566454,3005.385186,-8384.450390
3833.841685,899.701298,-1091.127106,-10030.712339
3833.844250,3005.385186,5647.061336,-9494.720077
3833.846814,4594.219392,-172.283227,-10202.995566
3833.849379,-2909.672282,-1263.410333,-10336.993632
3833.851944,-1359.123237,2163.111630,-8729.016845
3833.854508,2622.533570,-2660.818731,-10356.136213
3833.857073,1052.841944,2182.254211,-9992.427178
3833.859637,2699.103893,4287.938099,-9265.009107
3833.862202,1301.695494,421.136778,-10011.569758
3833.864767,-535.992262,-1071.984525,-9475.577496
3833.867331,-95.712904,1761.117434,-9092.725880
3833.869896,3675.375514,842.273555,-11006.983960
3833.872460,-38.285162,172.283227,-10796.415571
3833.875025,574.277424,3445.664544,-8422.735552
3833.877590,3177.668413,1780.260014,-9207.581365
3833.880154,823.130974,1454.836141,-10758.130410
3833.882719,-2833.101958,2373.680019,-10336.993632
3833.885283,2775.674216,4326.223261,-8901.300072
3833.887848,4977.071008,-1320.838075,-10356.136213
3833.890413,-2622.533570,-382.851616,-10413.563955
3833.892977,57.427742,2928.814862,-8748.159426
3833.895542,-1244.267752,-2584.248408,-11006.983960
3833.898106,-1952.543242,3062.812928,-9973.284597
3833.900671,2775.674216,-1110.269686,-9628.718142
3833.903236,-1569.691626,-3062.812928,-10375.278794
3833.905800,-114.855485,3369.094221,-8997.012976
3833.908365,2316.252277,497.707101,-10260.423309
3833.910929,976.271621,-191.425808,-10164.710405
3833.913494,-918.843878,3694.518094,-8805.587168
3833.916059,1320.838075,-2431.107762,-10872.985894
3833.918623,363.709035,1186.840010,-9877.571693
3833.921188,57.427742,1339.980656,-9762.716208
3833.923754,1359.123237,-1091.127106,-10566.704602
3833.926319,-765.703232,2029.113565,-9456.434915
3833.928884,-880.558717,-918.843878,-9667.003304
3833.931449,-1167.697429,-3981.656806,-10815.558152
3833.934015,-459.421939,727.418070,-10260.423309
3833.936580,3560.520029,3905.086483,-9379.864592
3833.939145,-2143.969050,-3445.664544,-11083.554283
3833.941710,-3081.955509,3885.943902,-9035.298138
3833.944276,7025.327154,4728.217458,-8575.876198
3833.946841,1588.834206,-2794.816797,-11849.257515
3833.949406,-1378.265818,5666.203917,-8824.729749
3833.951971,172.283227,1071.984525,-8882.157491
3833.954537,995.414202,-2373.680019,-10872.985894
3833.957102,38.285162,3809.373579,-9169.296203
3833.959667,4689.932296,1205.982590,-10107.282662
3833.962232,76.570323,1569.691626,-10375.278794
3833.964798,-1952.543242,287.138712,-9150.153622
3833.967363,1205.982590,172.283227,-9475.577496
3833.969928,3503.092286,1263.410333,-10317.851051
3833.972494,-57.427742,1033.699363,-10681.560086
3833.975059,1263.410333,2316.252277,-9131.011042
3833.977624,3101.098090,2048.256146,-8614.161360
3833.980189,727.418070,1780.260014,-9973.284597
3833.982755,-2450.250342,421.136778,-10547.562021
3833.985320,3254.238736,2431.107762,-9399.007173
3833.987885,4364.508422,-1301.695494,-10317.851051
3833.990450,-2986.242605,-995.414202,-10662.417506
3833.993016,650.847747,3024.527766,-8480.163294
3833.995581,-1990.828403,-2833.101958,-10834.700733
3833.998146,-2182.254211,2258.824534,-10470.991698
3834.000711,3081.955509,-1263.410333,-9934.999435
3834.003277,-2105.683888,-2297.109696,-10068.997501
3834.005842,-114.855485,2431.107762,-9284.151688
3834.008407,2392.822600,478.564520,-10509.276859
3834.010972,689.132909,440.279358,-10088.140082
3834.013538,-1378.265818,1875.972918,-9437.292334
3834.016103,1703.689691,-689.132909,-10279.565890
3834.018668,114.855485,1339.980656,-9801.001370
3834.021233,-842.273555,650.847747,-10030.712339
3834.023799,1914.258080,306.281293,-9781.858789
3834.026365,-1512.263883,421.136778,-9992.427178
3834.028931,-1244.267752,114.855485,-9686.145885
3834.031497,-880.558717,-2565.105827,-9915.856854
3834.034063,-229.710970,-650.847747,-10432.706536
3834.036629,1780.260014,3828.516160,-9667.003304
3834.039195,-784.845813,-861.416136,-10088.140082
3834.041761,-2143.969050,1186.840010,-9686.145885
3834.044327,6068.198114,6010.770371,-8748.159426
3834.046893,3483.949706,-2526.820666,-11274.980091
3834.049459,-2488.535504,4134.797453,-9226.723946
3834.052025,344.566454,191.425808,-9188.438784
3834.054591,210.568389,-1378.265818,-10604.989763
3834.057156,784.845813,3177.668413,-9571.290400
3834.059722,3330.809059,2239.681954,-9915.856854
3834.062288,746.560651,1722.832272,-10030.712339
3834.064854,-2143.969050,38.285162,-9533.005238
3834.067420,1493.121302,363.709035,-9456.434915
3834.069986,2086.541307,3311.666478,-9877.571693
3834.072552,421.136778,-191.425808,-11217.552349
3834.075118,1033.699363,2201.396792,-9245.866526
3834.077684,2239.681954,3637.090352,-8327.022648
3834.080250,746.560651,421.136778,-10490.134278
3834.082816,-1588.834206,-1339.980656,-10796.415571
3834.085382,2794.816797,4900.500685,-8518.448456
3834.087948,4919.643266,-555.134843,-10202.995566
3834.090514,-3369.094221,-2488.535504,-10930.413637
3834.093080,-76.570323,5474.778109,-7752.745224
3834.095646,-765.703232,-4594.219392,-11198.409768
3834.098212,-2354.537438,1339.980656,-10949.556218
3834.100777,2718.246474,669.990328,-8997.012976
3834.103343,-746.560651,-4498.506488,-10604.989763
3834.105910,-3177.668413,2067.398726,-9915.856854
3834.108476,1091.127106,1550.549045,-9954.142016
3834.111042,1971.685822,-172.283227,-10260.423309
3834.113608,-1569.691626,1837.687757,-9111.868461
3834.116174,172.283227,-267.996131,-10241.280728
3834.118741,325.423874,574.277424,-10202.995566
3834.121307,-267.996131,1933.400661,-9667.003304
3834.123873,1837.687757,401.994197,-9992.427178
3834.126439,-1990.828403,-2507.678085,-10490.134278
3834.129006,-3005.385186,-574.277424,-9552.147819
3834.131572,382.851616,-555.134843,-9992.427178
3834.134138,4326.223261,-861.416136,-10662.417506
3834.136704,-2392.822600,1378.265818,-10126.425243
3834.139270,-650.847747,3675.375514,-8652.446522
3834.141837,2297.109696,-382.851616,-9896.714274
3834.144403,2354.537438,5168.496816,-9647.860723
3834.146969,4211.367776,765.703232,-10202.995566
3834.149535,-1761.117434,-1473.978722,-10298.708470
3834.152102,-2450.250342,1244.267752,-9590.432981
3834.154668,1722.832272,-631.705166,-10030.712339
3834.157234,3081.955509,957.129040,-10375.278794
3834.159800,210.568389,4211.367776,-9303.294269
3834.162366,1186.840010,650.847747,-9820.143950
3834.164933,114.855485,-708.275490,-9494.720077
3834.167499,1416.550979,1263.410333,-9475.577496
3834.170065,1646.261949,248.853550,-11140.982026
3834.172631,1531.406464,1473.978722,-10241.280728
3834.175197,1607.976787,3694.518094,-8461.020714
3834.177764,1320.838075,689.132909,-10126.425243
3834.180330,-1761.117434,1186.840010,-10432.706536
3834.182896,2526.820666,2584.248408,-9207.581365
3834.185462,2392.822600,-1684.547110,-10930.413637
3834.188029,1339.980656,3426.521963,-10049.854920
3834.190595,-689.132909,-2450.250342,-9513.862658
3834.193161,-3981.656806,1933.400661,-9724.431046
3834.195727,899.701298,2086.541307,-9973.284597
3834.198293,3043.670347,-1799.402595,-10068.997501
3834.200860,-2297.109696,-1703.689691,-10451.849117
3834.203426,363.709035,2373.680019,-8805.587168
3834.205992,2699.103893,497.707101,-10336.993632
3834.208559,-2105.683888,-899.701298,-10758.130410
3834.211125,995.414202,2833.101958,-8805.587168
3834.213692,2105.683888,-899.701298,-10145.567824
3834.216258,-3081.955509,-401.994197,-10413.563955
3834.218825,1225.125171,2124.826469,-9169.296203
3834.221392,2967.100024,727.418070,-10030.712339
3834.223958,-2411.965181,-2488.535504,-10528.419440
3834.226525,-2450.250342,1684.547110,-9054.440718
3834.229091,382.851616,-2565.105827,-9973.284597
3834.231658,497.707101,-2029.113565,-10815.558152
3834.234225,593.420005,4881.358104,-9399.007173
3834.236791,153.140646,-497.707101,-10107.282662
3834.239358,-1856.830338,229.710970,-9724.431046
3834.241924,4747.360038,6757.331022,-8575.876198
3834.244491,4460.221326,-191.425808,-10336.993632
3834.247058,-2029.113565,-440.279358,-10298.708470
3834.249624,-1665.404530,2354.537438,-9035.298138
3834.252191,2373.680019,-3005.385186,-10643.274925
3834.254757,1454.836141,3177.668413,-9801.001370
3834.257324,2450.250342,2871.387120,-9628.718142
3834.259891,593.420005,-478.564520,-10356.136213
3834.262457,-2067.398726,746.560651,-9360.722011
3834.265024,2105.683888,1952.543242,-9111.868461
3834.267590,1875.972918,937.986459,-10949.556218
3834.270157,440.279358,1914.258080,-10183.852986
3834.272724,1550.549045,3560.520029,-8614.161360
3834.275290,1627.119368,957.129040,-9571.290400
3834.277857,-1799.402595,1550.549045,-10202.995566
3834.280423,1741.974853,1014.556782,-9590.432981
3834.282990,2756.531635,-631.705166,-10547.562021
3834.285557,2545.963246,3675.375514,-9954.142016
3834.288123,-995.414202,-3445.664544,-9781.858789
3834.290690,-3349.951640,-1416.550979,-10566.704602
3834.293256,-248.853550,3617.947771,-9647.860723
3834.295823,2603.390989,-2565.105827,-10662.417506
3834.298389,-2660.818731,210.568389,-10107.282662
3834.300956,842.273555,1167.697429,-8920.442653
3834.303523,1818.545176,459.421939,-10375.278794
3834.306089,-2909.672282,38.285162,-10662.417506
3834.308656,2641.676150,2392.822600,-8958.727814
3834.311223,1148.554848,-976.271621,-10394.421374
3834.313790,-2220.539373,133.998066,-10088.140082
3834.316357,-363.709035,2373.680019,-9150.153622
3834.318924,3120.240670,19.142581,-10145.567824
3834.321491,-3215.953574,-1895.115499,-10432.706536
3834.324058,-1952.543242,727.418070,-9226.723946
3834.326624,440.279358,-2182.254211,-10107.282662
3834.329191,880.558717,-1129.412267,-10547.562021
3834.331758,133.998066,3349.951640,-9743.573627
3834.334325,497.707101,1339.980656,-9705.288466
3834.336892,2794.816797,382.851616,-9590.432981
3834.339459,1684.547110,3656.232933,-10049.854920
3834.342026,3981.656806,1454.836141,-9877.571693
3834.344593,-823.130974,-1263.410333,-10241.280728
3834.347160,-2239.681954,2048.256146,-9322.436850
3834.349727,2565.105827,-2239.681954,-10432.706536
3834.352294,1684.547110,2545.963246,-9992.427178
3834.354861,1990.828403,3024.527766,-9628.718142
3834.357428,306.281293,248.853550,-10356.136213
3834.359995,-1531.406464,0.000000,-9284.151688
3834.362562,1741.974853,2029.113565,-9131.011042
3834.365129,1416.550979,0.000000,-11428.120738
3834.367696,1167.697429,2699.103893,-9915.856854
3834.370263,1454.836141,3081.955509,-8729.016845
3834.372829,823.130974,535.992262,-10107.282662
3834.375396,-1339.980656,-1454.836141,-10375.278794
3834.377963,2603.390989,4957.928427,-9188.438784
3834.380530,5302.494882,19.142581,-10432.706536
3834.383097,-3005.385186,-2009.970984,-10872.985894
3834.385664,-593.420005,4287.938099,-7925.028451
3834.388231,-995.414202,-3943.371645,-10719.845248
3834.390798,-1914.258080,1875.972918,-10566.704602
3834.393365,3177.668413,2354.537438,-9035.298138
3834.395932,1071.984525,-4211.367776,-10470.991698
3834.398499,-2775.674216,2297.109696,-9513.862658
3834.401066,1684.547110,1378.265818,-9877.571693
3834.403633,1607.976787,-1148.554848,-10509.276859
3834.406200,-2105.683888,3215.953574,-8939.585234
3834.408767,1780.260014,-459.421939,-10470.991698
3834.411334,267.996131,-574.277424,-10413.563955
3834.413898,-765.703232,2679.961312,-9379.864592
3834.416465,1110.269686,-1052.841944,-10317.851051
3834.419032,153.140646,-210.568389,-10011.569758
3834.421599,-2086.541307,-1263.410333,-9667.003304
3834.424166,-114.855485,-1875.972918,-10432.706536
3834.426732,3311.666478,3809.373579,-9724.431046
3834.429299,-1684.547110,-2182.254211,-10509.276859
3834.431866,-3081.955509,1761.117434,-9667.003304
3834.434433,6795.616184,5953.342629,-8633.303941
3834.437000,2565.105827,-2201.396792,-11236.694930
3834.439566,-1703.689691,4345.365842,-9399.007173
3834.442133,-191.425808,2067.398726,-8480.163294
3834.444700,1416.550979,-2565.105827,-10834.700733
3834.447267,191.425808,2813.959378,-9877.571693
3834.449834,3579.662610,1493.121302,-9801.001370
3834.452400,708.275490,2297.109696,-9934.999435
3834.454967,-1665.404530,-133.998066,-9762.716208
3834.457534,1971.685822,76.570323,-9360.722011
3834.460101,1914.258080,2335.394858,-9839.286531
3834.462668,1244.267752,746.560651,-11255.837510
3834.465234,1531.406464,2699.103893,-8939.585234
3834.467801,976.271621,2871.387120,-8977.870395
3834.470368,-2067.398726,-172.283227,-10298.708470
3834.472935,2775.674216,2009.970984,-9609.575562
3834.475502,2967.100024,-38.285162,-10643.274925
3834.478068,1244.267752,1971.685822,-10413.563955
3834.480635,-1493.121302,-1914.258080,-9379.864592
3834.483202,-3541.377448,1722.832272,-9399.007173
3834.485769,803.988394,1761.117434,-9896.714274
3834.488336,2871.387120,-918.843878,-10126.425243
3834.490903,-1761.117434,-1512.263883,-10298.708470
3834.493469,-574.277424,1301.695494,-9054.440718
3834.496036,1550.549045,976.271621,-10030.712339
3834.498603,-1282.552914,-229.710970,-10662.417506
3834.501170,1761.117434,1282.552914,-9341.579430
3834.503737,880.558717,133.998066,-10145.567824
3834.506303,-3158.525832,172.283227,-10260.423309
3834.508870,2603.390989,2277.967115,-9169.296203
3834.511437,1397.408398,-1014.556782,-10241.280728
3834.514004,-2488.535504,-593.420005,-10145.567824
3834.516571,-2029.113565,-1205.982590,-9801.001370
3834.519137,669.990328,-1473.978722,-10088.140082
3834.521704,2986.242605,1933.400661,-9992.427178
3834.524271,-1971.685822,-3024.527766,-11064.411702
3834.526838,-1914.258080,4804.787781,-8824.729749
3834.529405,5493.920690,3598.805190,-8709.874264
3834.531972,1933.400661,-114.855485,-11198.409768
3834.534539,1244.267752,4785.645200,-9054.440718
3834.537105,995.414202,-153.140646,-9245.866526
3834.539672,-478.564520,-1397.408398,-10719.845248
3834.542239,612.562586,2565.105827,-9360.722011
3834.544806,4192.225195,937.986459,-10222.138147
3834.547373,267.996131,2507.678085,-9934.999435
3834.549940,-1129.412267,1033.699363,-9475.577496
3834.552507,1186.840010,-287.138712,-9590.432981
3834.555073,1512.263883,2450.250342,-9552.147819
3834.557640,1607.976787,1454.836141,-10796.415571
3834.560207,2009.970984,2756.531635,-9399.007173
3834.562774,708.275490,3254.238736,-8729.016845
3834.565341,-2182.254211,-210.568389,-10241.280728
3834.567908,2833.101958,1665.404530,-9552.147819
3834.570475,3081.955509,-76.570323,-10604.989763
3834.573041,1282.552914,2584.248408,-10241.280728
3834.575608,-1091.127106,-2584.248408,-9743.573627
3834.578175,-3809.373579,2316.252277,-9016.155557
3834.580742,-1225.125171,2526.820666,-10260.423309
3834.583309,3101.098090,-1282.552914,-10317.851051
3834.585876,-1741.974853,-574.277424,-10107.282662
3834.588442,-669.990328,784.845813,-9322.436850
3834.591009,1493.121302,765.703232,-10011.569758
3834.593576,-363.709035,287.138712,-10317.851051
3834.596143,746.560651,612.562586,-9896.714274
3834.598710,937.986459,382.851616,-9934.999435
3834.601277,-1129.412267,-19.142581,-10049.854920
3834.603844,1167.697429,1761.117434,-9533.005238
3834.606410,-650.847747,-1014.556782,-10183.852986
3834.608977,-1320.838075,421.136778,-9839.286531
3834.611544,-1780.260014,-2354.537438,-10145.567824
3834.614111,-133.998066,-976.271621,-10107.282662
3834.616678,2584.248408,3790.230998,-9571.290400
3834.619244,-1225.125171,-3656.232933,-11121.839445
3834.621811,-2488.535504,3369.094221,-9456.434915
3834.624378,6049.055533,5340.780043,-8365.307810
3834.626944,1895.115499,-2852.244539,-11294.122672
3834.629511,-2737.389054,4153.940034,-9303.294269
3834.632077,306.281293,1129.412267,-8748.159426
3834.634644,708.275490,-2354.537438,-10892.128475
3834.637210,-95.712904,3196.810994,-9437.292334
3834.639777,4268.795518,1416.550979,-9992.427178
3834.642344,229.710970,689.132909,-10490.134278
3834.644910,-2182.254211,2105.683888,-9207.581365
3834.647477,2622.533570,-172.283227,-9494.720077
3834.650043,995.414202,1225.125171,-9973.284597
3834.652610,803.988394,2469.392923,-10260.423309
3834.655176,1684.547110,2756.531635,-9494.720077
3834.657743,1033.699363,2373.680019,-8997.012976
3834.660310,-2411.965181,-899.701298,-9934.999435
3834.662876,3292.523898,3905.086483,-9399.007173
3834.665443,5321.637462,-19.142581,-10681.560086
3834.668009,-2813.959378,-842.273555,-10815.558152
3834.670576,-612.562586,2335.394858,-8346.165229
3834.673143,-2258.824534,-2967.100024,-10356.136213
3834.675709,-1627.119368,363.709035,-10911.271056
3834.678276,2431.107762,1512.263883,-9456.434915
3834.680842,401.994197,-3522.234867,-10662.417506
3834.683409,-2947.957443,2277.967115,-9131.011042
3834.685975,1397.408398,957.129040,-9705.288466
3834.688542,2105.683888,-421.136778,-10336.993632
3834.691109,-1588.834206,1703.689691,-9647.860723
3834.693675,784.845813,-287.138712,-10528.419440
3834.696242,191.425808,669.990328,-9820.143950
3834.698808,-248.853550,1167.697429,-9743.573627
3834.701375,-823.130974,-1148.554848,-10241.280728
3834.703941,-1416.550979,-1454.836141,-10068.997501
3834.706508,-1378.265818,-957.129040,-9934.999435
3834.709075,2565.105827,-1473.978722,-10145.567824
3834.711641,-957.129040,976.271621,-10490.134278
3834.714208,267.996131,3426.521963,-9016.155557
3834.716774,976.271621,-535.992262,-9915.856854
3834.719341,2871.387120,6202.196179,-9552.147819
3834.721908,3081.955509,3541.377448,-9092.725880
3834.724474,-153.140646,-2029.113565,-10298.708470
3834.727041,-2201.396792,1493.121302,-9820.143950
3834.729608,2392.822600,-1110.269686,-10126.425243
3834.732174,2335.394858,1493.121302,-10202.995566
3834.734741,401.994197,4077.369710,-9437.292334
3834.737308,2488.535504,38.285162,-10049.854920
3834.739874,-1761.117434,-19.142581,-9533.005238
3834.742441,1531.406464,2392.822600,-9418.149754
3834.745008,3522.234867,363.709035,-11026.126541
3834.747574,1531.406464,1875.972918,-10336.993632
3834.750141,0.000000,4096.512291,-8518.448456
3834.752708,-440.279358,-516.849682,-9877.571693
3834.755275,1703.689691,746.560651,-9915.856854
3834.757841,2258.824534,555.134843,-10202.995566
3834.760408,3292.523898,3311.666478,-10202.995566
3834.762975,-1703.689691,-3254.238736,-10068.997501
3834.765541,-4307.080680,2794.816797,-8671.589102
3834.768108,-459.421939,2335.394858,-10145.567824
3834.770675,2947.957443,-2335.394858,-10528.419440
3834.773241,-1837.687757,823.130974,-10068.997501
3834.775808,-57.427742,-38.285162,-9494.720077
3834.778375,1282.552914,1014.556782,-9877.571693
3834.780941,-1588.834206,133.998066,-10356.136213
3834.783508,1397.408398,1301.695494,-9609.575562
3834.786075,2086.541307,918.843878,-9858.429112
3834.788641,-765.703232,-957.129040,-10413.563955
3834.791208,-478.564520,2431.107762,-9418.149754
3834.793775,2029.113565,-957.129040,-9896.714274
3834.796342,-2737.389054,-1818.545176,-10719.845248
3834.798908,-2182.254211,57.427742,-9686.145885
3834.801475,2009.970984,-1646.261949,-9973.284597
3834.804042,-976.271621,-765.703232,-10872.985894
3834.806608,-918.843878,4096.512291,-9035.298138
3834.809175,2277.967115,-248.853550,-9628.718142
3834.811742,2699.103893,5493.920690,-9724.431046
3834.814308,3905.086483,440.279358,-10202.995566
3834.816875,-2105.683888,306.281293,-9915.856854
3834.819442,-1454.836141,2335.394858,-8977.870395
3834.822008,2105.683888,-3273.381317,-11006.983960
3834.824575,861.416136,2890.529701,-9360.722011
3834.827142,1205.982590,4364.508422,-9284.151688
3834.829708,1014.556782,-229.710970,-10241.280728
3834.832275,-1454.836141,631.705166,-9188.438784
3834.834842,1263.410333,2775.674216,-9341.579430
3834.837408,2928.814862,-612.562586,-11236.694930
3834.839975,631.705166,4096.512291,-9781.858789
3834.842542,1550.549045,2718.246474,-9016.155557
3834.845109,-899.701298,746.560651,-9743.573627
3834.847675,669.990328,1282.552914,-9169.296203
3834.850242,4000.799387,-899.701298,-10892.128475
3834.852809,344.566454,1378.265818,-10681.560086
3834.855375,-1550.549045,-325.423874,-9073.583299
3834.857942,-3426.521963,-1378.265818,-9915.856854
3834.860509,-57.427742,2737.389054,-9475.577496
3834.863075,2565.105827,-2163.111630,-10738.987829
3834.865642,-1722.832272,918.843878,-10183.852986
3834.868209,344.566454,-325.423874,-9399.007173
3834.870775,631.705166,1244.267752,-9896.714274
3834.873342,-574.277424,-1550.549045,-10509.276859
3834.875909,38.285162,2756.531635,-9303.294269
3834.878475,2105.683888,401.994197,-10260.423309
3834.881042,-1531.406464,-1454.836141,-10451.849117
3834.883609,-765.703232,2909.672282,-9188.438784
3834.886176,2163.111630,-689.132909,-9896.714274
3834.888742,-3101.098090,-2392.822600,-10700.702667
3834.891309,-1895.115499,459.421939,-9590.432981
3834.893876,3215.953574,-1914.258080,-10126.425243
3834.896442,-2373.680019,-2316.252277,-11294.122672
3834.899009,-1397.408398,5474.778109,-8556.733618
3834.901576,4268.795518,267.996131,-9265.009107
3834.904142,1722.832272,4058.227130,-10413.563955
3834.906709,3177.668413,2048.256146,-9628.718142
3834.909276,-612.562586,-1167.697429,-10088.140082
3834.911842,-2086.541307,1990.828403,-9533.005238
3834.914409,2029.113565,-2545.963246,-10681.560086
3834.916976,1990.828403,2316.252277,-9647.860723
3834.919542,899.701298,4058.227130,-9360.722011
3834.922109,382.851616,-76.570323,-10088.140082
3834.924676,-497.707101,114.855485,-9571.290400
3834.927242,1971.685822,2890.529701,-9111.868461
3834.929808,2794.816797,172.283227,-10949.556218
3834.932375,1263.410333,3254.238736,-10088.140082
3834.934941,1052.841944,3005.385186,-8997.012976
3834.937507,-1856.830338,-861.416136,-9781.858789
3834.940073,2239.681954,3828.516160,-9054.440718
3834.942640,5781.059402,1416.550979,-10011.569758
3834.945206,-2450.250342,-1990.828403,-11236.694930
3834.947772,-1531.406464,3790.230998,-8384.450390
3834.950338,-1225.125171,-4077.369710,-10279.565890
3834.952905,-1588.834206,1856.830338,-10279.565890
3834.955471,2928.814862,248.853550,-9781.858789
3834.958037,-344.566454,-1741.974853,-10509.276859
3834.960603,-2124.826469,1473.978722,-9456.434915
3834.963170,1454.836141,631.705166,-9820.143950
3834.965736,76.570323,-650.847747,-10336.993632
3834.968302,-995.414202,2565.105827,-9341.579430
3834.970868,459.421939,-114.855485,-10394.421374
3834.973435,1569.691626,880.558717,-9954.142016
3834.976001,-2297.109696,478.564520,-9992.427178
3834.978567,555.134843,-267.996131,-9877.571693
3834.981133,-784.845813,-2450.250342,-10241.280728
3834.983700,-2105.683888,-708.275490,-10202.995566
3834.986266,3617.947771,1646.261949,-9513.862658
3834.988832,-516.849682,-3330.809059,-10872.985894
3834.991398,-2545.963246,2316.252277,-9475.577496
3834.993965,6259.623922,6068.198114,-8346.165229
3834.996531,2756.531635,-1722.832272,-11504.691061
3834.999097,-1761.117434,4900.500685,-8977.870395
3835.001663,918.843878,-880.558717,-9494.720077
3835.004230,-421.136778,-401.994197,-10451.849117
3835.006796,1014.556782,1339.980656,-9667.003304
3835.009362,3311.666478,746.560651,-10413.563955
3835.011928,325.423874,3158.525832,-9628.718142
3835.014495,-612.562586,440.279358,-9686.145885
3835.017061,1473.978722,95.712904,-9418.149754
3835.019627,1665.404530,2182.254211,-9571.290400
3835.022193,1761.117434,1148.554848,-11064.411702
3835.024760,1627.119368,3349.951640,-9494.720077
3835.027326,-421.136778,3043.670347,-8729.016845
3835.029892,-19.142581,-2641.676150,-10202.995566
3835.032458,2584.248408,1837.687757,-9839.286531
3835.035024,2163.111630,3809.373579,-10202.995566
3835.037590,-1627.119368,-3349.951640,-10145.567824
3835.040156,-4173.082614,2335.394858,-8863.014910
3835.042721,650.847747,1071.984525,-9437.292334
3835.045287,1148.554848,-3407.379382,-11274.980091
3835.047853,-784.845813,2718.246474,-9590.432981
3835.050419,287.138712,-1703.689691,-10183.852986
3835.052985,-1033.699363,1378.265818,-9743.573627
3835.055551,172.283227,1091.127106,-9724.431046
3835.058117,2124.826469,746.560651,-9820.143950
3835.060683,478.564520,421.136778,-10164.710405
3835.063249,-1225.125171,631.705166,-9992.427178
3835.065815,459.421939,1263.410333,-9628.718142
3835.068381,-76.570323,-344.566454,-9934.999435
3835.070947,-1397.408398,-1818.545176,-10279.565890
3835.073513,-957.129040,-1646.261949,-10049.854920
3835.076079,1990.828403,-344.566454,-10068.997501
3835.078645,-1722.832272,76.570323,-10700.702667
3835.081210,306.281293,3369.094221,-8958.727814
3835.083776,5379.065205,2622.533570,-8958.727814
3835.086342,2048.256146,2182.254211,-10662.417506
3835.088908,1971.685822,3541.377448,-9379.864592
3835.091474,-363.709035,-1646.261949,-9896.714274
3835.094040,-1895.115499,1722.832272,-9647.860723
3835.096606,2316.252277,-1378.265818,-10260.423309
3835.099172,2699.103893,861.416136,-10356.136213
3835.101738,153.140646,2545.963246,-9513.862658
3835.104304,421.136778,2143.969050,-9686.145885
3835.106870,1186.840010,38.285162,-9437.292334
3835.109436,1799.402595,2124.826469,-9265.009107
3835.112002,1990.828403,1952.543242,-10738.987829
3835.114568,2086.541307,2354.537438,-10049.854920
3835.117133,-382.851616,2488.535504,-9169.296203
