#time,accel_x,accel_y,accel_z
3699.638008,478.564520,842.273555,-9762.716208
3699.640563,459.421939,153.140646,-10049.854920
3699.643118,574.277424,1244.267752,-9896.714274
3699.645673,631.705166,899.701298,-9801.001370
3699.648228,325.423874,76.570323,-10145.567824
3699.650783,593.420005,1186.840010,-9743.573627
3699.653338,650.847747,937.986459,-9762.716208
3699.655893,459.421939,363.709035,-10164.710405
3699.658448,459.421939,1378.265818,-9533.005238
3699.661003,1091.127106,-555.134843,-10126.425243
3699.663558,689.132909,842.273555,-10088.140082
3699.666113,516.849682,765.703232,-9552.147819
3699.668668,1531.406464,-267.996131,-9839.286531
3699.671223,1282.552914,650.847747,-9973.284597
3699.673778,957.129040,-421.136778,-10049.854920
3699.676333,440.279358,1473.978722,-9705.288466
3699.678888,-1741.974853,3828.516160,-9456.434915
3699.681443,2067.398726,-2143.969050,-10528.419440
3699.683998,3215.953574,1014.556782,-9360.722011
3699.686554,1722.832272,-765.703232,-9973.284597
3699.689110,-1952.543242,-1339.980656,-10298.708470
3699.691667,-2182.254211,5876.772306,-9265.009107
3699.694223,-38.285162,1071.984525,-10183.852986
3699.696780,3388.236802,-1225.125171,-10068.997501
3699.699336,2335.394858,2756.531635,-9360.722011
3699.701893,-746.560651,-1205.982590,-10432.706536
3699.704449,-4077.369710,1263.410333,-9934.999435
3699.707005,1339.980656,4307.080680,-9475.577496
3699.709562,1531.406464,-401.994197,-10317.851051
3699.712118,1014.556782,287.138712,-9667.003304
3699.714675,401.994197,1531.406464,-9513.862658
3699.717231,-976.271621,-823.130974,-10413.563955
3699.719788,172.283227,1799.402595,-9954.142016
3699.722344,918.843878,1952.543242,-9667.003304
3699.724900,363.709035,-248.853550,-10279.565890
3699.727457,76.570323,1263.410333,-9245.866526
3699.730013,803.988394,325.423874,-9915.856854
3699.732570,899.701298,957.129040,-10107.282662
3699.735126,229.710970,1435.693560,-10011.569758
3699.737683,248.853550,344.566454,-10107.282662
3699.740239,669.990328,1339.980656,-9571.290400
3699.742795,-133.998066,440.279358,-9590.432981
3699.745352,-861.416136,1110.269686,-10394.421374
3699.747908,-287.138712,3790.230998,-9552.147819
3699.750465,153.140646,2029.113565,-9801.001370
3699.753021,1110.269686,708.275490,-9724.431046
3699.755578,3885.943902,-957.129040,-9590.432981
3699.758134,-1914.258080,1435.693560,-9494.720077
3699.760690,-2526.820666,-1856.830338,-11083.554283
3699.763247,-1359.123237,3349.951640,-9858.429112
3699.765803,4555.934230,1473.978722,-9705.288466
3699.768360,229.710970,4517.649069,-8652.446522
3699.770916,-593.420005,1684.547110,-10164.710405
3699.773473,2488.535504,-2603.390989,-10317.851051
3699.776029,-1627.119368,3388.236802,-8958.727814
3699.778585,803.988394,-3847.658741,-11332.407834
3699.781142,4058.227130,2239.681954,-9437.292334
3699.783698,-478.564520,5283.352301,-8786.444587
3699.786255,-1761.117434,-3311.666478,-10930.413637
3699.788813,-421.136778,4843.072942,-9073.583299
3699.791371,2986.242605,38.285162,-10183.852986
3699.793929,2756.531635,-5034.498750,-10719.845248
3699.796488,918.843878,1914.258080,-9207.581365
3699.799046,-1971.685822,153.140646,-10394.421374
3699.801604,-1014.556782,1512.263883,-9781.858789
3699.804162,1856.830338,3522.234867,-9456.434915
3699.806720,3139.383251,-382.851616,-10202.995566
3699.809279,1225.125171,-899.701298,-9801.001370
3699.811837,-229.710970,-746.560651,-9954.142016
3699.814395,-95.712904,-421.136778,-10241.280728
3699.816953,1263.410333,2029.113565,-10030.712339
3699.819511,478.564520,555.134843,-10470.991698
3699.822070,823.130974,-306.281293,-9399.007173
3699.824628,708.275490,1186.840010,-9150.153622
3699.827186,669.990328,727.418070,-10585.847182
3699.829744,478.564520,1301.695494,-9973.284597
3699.832302,133.998066,1110.269686,-9341.579430
3699.834861,842.273555,-325.423874,-9896.714274
3699.837419,995.414202,306.281293,-9896.714274
3699.839977,1512.263883,459.421939,-10107.282662
3699.842535,1512.263883,-325.423874,-10279.565890
3699.845094,1033.699363,-574.277424,-9954.142016
3699.847652,727.418070,382.851616,-9456.434915
3699.850210,-937.986459,497.707101,-9954.142016
3699.852768,1473.978722,1282.552914,-10317.851051
3699.855326,2431.107762,3579.662610,-9265.009107
3699.857885,3024.527766,-2622.533570,-9934.999435
3699.860443,-172.283227,-880.558717,-9762.716208
3699.863001,-2469.392923,1971.685822,-9954.142016
3699.865559,669.990328,-976.271621,-10451.849117
3699.868117,3675.375514,593.420005,-9801.001370
3699.870676,-765.703232,5015.356170,-9418.149754
3699.873234,1205.982590,-3943.371645,-10777.272990
3699.875792,612.562586,-689.132909,-9820.143950
3699.878350,-3349.951640,5053.641331,-9418.149754
3699.880908,1512.263883,-5245.067139,-11562.118803
3699.883467,2833.101958,4785.645200,-8575.876198
3699.886025,880.558717,-306.281293,-10049.854920
3699.888583,-4287.938099,382.851616,-10164.710405
3699.891141,708.275490,3617.947771,-9686.145885
3699.893698,1052.841944,1301.695494,-9724.431046
3699.896256,2143.969050,-421.136778,-10145.567824
3699.898814,650.847747,459.421939,-9513.862658
3699.901371,-1454.836141,267.996131,-9934.999435
3699.903929,-3177.668413,1473.978722,-10356.136213
3699.906486,1550.549045,3598.805190,-9705.288466
3699.909044,1895.115499,535.992262,-9934.999435
3699.911602,325.423874,-76.570323,-9743.573627
3699.914159,-382.851616,1722.832272,-9418.149754
3699.916717,440.279358,-746.560651,-10700.702667
3699.919275,95.712904,1741.974853,-10126.425243
3699.921832,1148.554848,1301.695494,-9284.151688
3699.924390,-248.853550,-19.142581,-9992.427178
3699.926948,-114.855485,1052.841944,-9762.716208
3699.929505,957.129040,1167.697429,-9877.571693
3699.932063,516.849682,1320.838075,-10126.425243
3699.934620,344.566454,-76.570323,-9896.714274
3699.937178,-861.416136,2545.963246,-9092.725880
3699.939736,-1033.699363,1225.125171,-10030.712339
3699.942293,-459.421939,1971.685822,-10049.854920
3699.944851,765.703232,2297.109696,-9839.286531
3699.947409,1205.982590,76.570323,-9781.858789
3699.949966,2890.529701,-2718.246474,-9992.427178
3699.952524,-1684.547110,3388.236802,-9054.440718
3699.955081,-2488.535504,-153.140646,-10796.415571
3699.957639,-76.570323,2603.390989,-10088.140082
3699.960197,4268.795518,803.988394,-9801.001370
3699.962754,-459.421939,3426.521963,-8824.729749
3699.965312,-1282.552914,535.992262,-10183.852986
3699.967870,2277.967115,-1148.554848,-10241.280728
3699.970427,-306.281293,3426.521963,-9341.579430
3699.972985,650.847747,-1952.543242,-10949.556218
3699.975543,4402.793584,95.712904,-9820.143950
3699.978100,-95.712904,3292.523898,-9073.583299
3699.980658,-1627.119368,-2565.105827,-10738.987829
3699.983215,-861.416136,5570.491013,-9150.153622
3699.985773,2297.109696,-1071.984525,-10509.276859
3699.988331,4134.797453,-4345.365842,-10413.563955
3699.990888,478.564520,3292.523898,-8805.587168
3699.993447,-2163.111630,1493.121302,-10164.710405
3699.996006,-803.988394,1186.840010,-9896.714274
3699.998565,2105.683888,3943.371645,-9379.864592
3700.001123,3196.810994,-1014.556782,-10432.706536
3700.003682,880.558717,210.568389,-9513.862658
3700.006241,-325.423874,133.998066,-9667.003304
3700.008800,363.709035,-1531.406464,-10662.417506
3700.011358,1244.267752,2469.392923,-9647.860723
3700.013917,689.132909,344.566454,-10451.849117
3700.016476,-344.566454,497.707101,-9360.722011
3700.019035,229.710970,1148.554848,-9073.583299
3700.021593,1186.840010,516.849682,-10470.991698
3700.024152,803.988394,1282.552914,-10432.706536
3700.026711,401.994197,918.843878,-9437.292334
3700.029270,459.421939,-612.562586,-9667.003304
3700.031828,1301.695494,-76.570323,-9705.288466
3700.034387,1569.691626,-57.427742,-10011.569758
3700.036946,1416.550979,-363.709035,-10451.849117
3700.039505,210.568389,803.988394,-9801.001370
3700.042063,-2411.965181,3522.234867,-9245.866526
3700.044622,1933.400661,-2086.541307,-10451.849117
3700.047181,3732.803256,1110.269686,-9494.720077
3700.049740,2316.252277,-401.994197,-10049.854920
3700.052298,-3177.668413,-937.986459,-10164.710405
3700.054857,669.990328,191.425808,-10011.569758
3700.057416,1167.697429,2431.107762,-9360.722011
3700.059975,1895.115499,-1225.125171,-10222.138147
3700.062533,2852.244539,535.992262,-10413.563955
3700.065092,19.142581,4498.506488,-8767.302006
3700.067651,-1799.402595,-3924.229064,-10566.704602
3700.070210,-1129.412267,4728.217458,-9437.292334
3700.072768,1569.691626,-459.421939,-10356.136213
3700.075327,2660.818731,-1473.978722,-10317.851051
3700.077886,287.138712,4383.651003,-9092.725880
3700.080445,-3828.516160,1397.408398,-9896.714274
3700.083003,57.427742,401.994197,-10356.136213
3700.085562,2986.242605,1665.404530,-9437.292334
3700.088121,2220.539373,-1282.552914,-10317.851051
3700.090680,-1014.556782,133.998066,-9934.999435
3700.093238,-1627.119368,2411.965181,-9360.722011
3700.095720,-1473.978722,1071.984525,-10049.854920
3700.098201,516.849682,3081.955509,-9954.142016
3700.100682,2048.256146,421.136778,-9839.286531
3700.103163,440.279358,172.283227,-9552.147819
3700.105645,-306.281293,1052.841944,-9858.429112
3700.108126,57.427742,401.994197,-10585.847182
3700.110607,1282.552914,1148.554848,-9628.718142
3700.113088,555.134843,803.988394,-9418.149754
3700.115570,-1454.836141,555.134843,-9801.001370
3700.118051,1244.267752,478.564520,-10260.423309
3700.120532,574.277424,1627.119368,-9877.571693
3700.123014,-899.701298,1397.408398,-9724.431046
3700.125495,-689.132909,1359.123237,-9877.571693
3700.127976,-287.138712,2469.392923,-9475.577496
3700.130457,-650.847747,1684.547110,-9839.286531
3700.132939,746.560651,957.129040,-10107.282662
3700.135420,3483.949706,-478.564520,-9858.429112
3700.137901,-1875.972918,2163.111630,-8977.870395
3700.140382,-1780.260014,-2201.396792,-10719.845248
3700.142864,-1282.552914,3751.945837,-9839.286531
3700.145345,3771.088418,1665.404530,-9954.142016
3700.147826,669.990328,2297.109696,-9265.009107
3700.150308,-459.421939,-248.853550,-10049.854920
3700.152789,-669.990328,1225.125171,-9934.999435
3700.155270,-1569.691626,1780.260014,-9418.149754
3700.157751,1761.117434,-3560.520029,-11083.554283
3700.160233,2335.394858,3101.098090,-9609.575562
3700.162714,1646.261949,-1990.828403,-10145.567824
3700.165195,-669.990328,2316.252277,-9341.579430
3700.167676,-1722.832272,3062.812928,-9801.001370
3700.170158,1148.554848,-1914.258080,-10681.560086
3700.172639,4785.645200,1607.976787,-9494.720077
3700.175120,248.853550,2967.100024,-8939.585234
3700.177602,-2277.967115,-2699.103893,-10662.417506
3700.180083,-708.275490,3139.383251,-9494.720077
3700.182564,1378.265818,746.560651,-10490.134278
3700.185045,2124.826469,-650.847747,-10394.421374
3700.187527,2392.822600,2335.394858,-9131.011042
3700.190008,248.853550,-1167.697429,-9896.714274
3700.192489,-880.558717,-421.136778,-10145.567824
3700.194992,823.130974,765.703232,-9877.571693
3700.197494,1320.838075,708.275490,-10317.851051
3700.199997,229.710970,574.277424,-9571.290400
3700.202499,-95.712904,995.414202,-9284.151688
3700.205002,1454.836141,363.709035,-10088.140082
3700.207505,267.996131,1033.699363,-10394.421374
3700.210007,1225.125171,-535.992262,-10241.280728
3700.212510,1301.695494,267.996131,-9609.575562
3700.215012,995.414202,-421.136778,-9437.292334
3700.217515,995.414202,-1091.127106,-10145.567824
3700.220017,823.130974,1359.123237,-10202.995566
3700.222520,-1569.691626,3732.803256,-9934.999435
3700.225022,1780.260014,-1531.406464,-10107.282662
3700.227525,3062.812928,76.570323,-9265.009107
3700.230028,1684.547110,-306.281293,-9915.856854
3700.232530,-2947.957443,-248.853550,-10107.282662
3700.235033,1569.691626,-1722.832272,-10872.985894
3700.237535,2565.105827,3503.092286,-8843.872330
3700.240038,-880.558717,-191.425808,-9915.856854
3700.242540,2584.248408,-114.855485,-10490.134278
3700.245043,76.570323,5225.924558,-8709.874264
3700.247546,-1339.980656,-3809.373579,-10758.130410
3700.250048,-899.701298,4460.221326,-9590.432981
3700.252551,1225.125171,0.000000,-9992.427178
3700.255053,1971.685822,-4115.654872,-10796.415571
3700.257556,-363.709035,3790.230998,-9418.149754
3700.260058,-3024.527766,4651.647134,-9379.864592
3700.262561,-306.281293,-1856.830338,-10796.415571
3700.265063,3349.951640,2048.256146,-9360.722011
3700.267566,1722.832272,-153.140646,-9552.147819
3700.270069,-440.279358,-593.420005,-10164.710405
3700.272571,-1225.125171,2335.394858,-9915.856854
3700.275074,-1071.984525,1052.841944,-9743.573627
3700.277576,650.847747,1110.269686,-10241.280728
3700.280079,765.703232,1646.261949,-9552.147819
3700.282581,229.710970,325.423874,-9494.720077
3700.285084,248.853550,267.996131,-9934.999435
3700.287587,114.855485,1895.115499,-10088.140082
3700.290089,1091.127106,918.843878,-10011.569758
3700.292592,267.996131,-95.712904,-9571.290400
3700.295098,19.142581,1397.408398,-9188.438784
3700.297617,19.142581,1033.699363,-10222.138147
3700.300136,287.138712,918.843878,-10107.282662
3700.302655,-593.420005,2009.970984,-9360.722011
3700.305174,-650.847747,1435.693560,-9743.573627
3700.307693,-76.570323,1378.265818,-9781.858789
3700.310212,1091.127106,1359.123237,-9667.003304
3700.312731,2833.101958,-2239.681954,-10509.276859
3700.315249,-976.271621,2890.529701,-9418.149754
3700.317768,-2488.535504,1320.838075,-9934.999435
3700.320287,-823.130974,1646.261949,-9839.286531
3700.322806,4230.510357,669.990328,-9954.142016
3700.325325,478.564520,3215.953574,-9571.290400
3700.327844,-2431.107762,382.851616,-10279.565890
3700.330363,2794.816797,-2143.969050,-9858.429112
3700.332882,-1339.980656,4153.940034,-8843.872330
3700.335400,535.992262,-3349.951640,-11389.835576
3700.337919,4039.084549,1914.258080,-9762.716208
3700.340438,784.845813,1263.410333,-9399.007173
3700.342957,-1454.836141,-1741.974853,-10470.991698
3700.345476,-976.271621,5015.356170,-9169.296203
3700.347995,2718.246474,344.566454,-10030.712339
3700.350514,4230.510357,-5168.496816,-10949.556218
3700.353033,555.134843,3809.373579,-8843.872330
3700.355551,-2316.252277,-1837.687757,-10432.706536
3700.358070,-784.845813,1225.125171,-10164.710405
3700.360589,1531.406464,2909.672282,-9839.286531
3700.363108,2392.822600,-650.847747,-10126.425243
3700.365627,1435.693560,1244.267752,-9762.716208
3700.368146,344.566454,-19.142581,-9839.286531
3700.370665,-306.281293,-708.275490,-10068.997501
3700.373183,976.271621,1493.121302,-10241.280728
3700.375702,1244.267752,1110.269686,-10145.567824
3700.378221,440.279358,344.566454,-9494.720077
3700.380740,191.425808,-344.566454,-9781.858789
3700.383259,727.418070,1493.121302,-9724.431046
3700.385778,1282.552914,38.285162,-10317.851051
3700.388297,842.273555,631.705166,-10088.140082
3700.390816,1320.838075,172.283227,-9379.864592
3700.393334,937.986459,-1110.269686,-9934.999435
3700.395806,-1378.265818,1052.841944,-10222.138147
3700.398278,1741.974853,1359.123237,-10126.425243
3700.400750,1875.972918,2450.250342,-9494.720077
3700.403222,2756.531635,-1952.543242,-9934.999435
3700.405694,842.273555,-440.279358,-9513.862658
3700.408165,-3560.520029,2813.959378,-9915.856854
3700.410637,1167.697429,-2909.672282,-11083.554283
3700.413109,3617.947771,2928.814862,-8977.870395
3700.415581,-1282.552914,5111.069074,-9207.581365
3700.418053,1244.267752,-4192.225195,-10968.698798
3700.420524,765.703232,4096.512291,-8671.589102
3700.422996,-3369.094221,1033.699363,-10164.710405
3700.425468,1359.123237,-3043.670347,-11236.694930
3700.427940,1971.685822,6872.186507,-8288.737486
3700.430412,1741.974853,-3369.094221,-10624.132344
3700.432884,-1071.984525,1875.972918,-9762.716208
3700.435355,-2718.246474,5953.342629,-9150.153622
3700.437827,19.142581,38.285162,-10356.136213
3700.440299,2679.961312,-1033.699363,-10011.569758
3700.442771,1588.834206,1167.697429,-9571.290400
3700.445243,-1033.699363,-1971.685822,-10604.989763
3700.447714,-2086.541307,2469.392923,-9839.286531
3700.450186,57.427742,2507.678085,-9571.290400
3700.452658,995.414202,535.992262,-10298.708470
3700.455130,1512.263883,1454.836141,-9647.860723
3700.457602,-344.566454,976.271621,-9226.723946
3700.460074,-689.132909,459.421939,-10241.280728
3700.462545,861.416136,1454.836141,-10183.852986
3700.465017,957.129040,880.558717,-9820.143950
3700.467489,172.283227,-267.996131,-9858.429112
3700.469961,-325.423874,1780.260014,-9303.294269
3700.472433,38.285162,803.988394,-10260.423309
3700.474905,-306.281293,2277.967115,-10336.993632
3700.477376,-784.845813,2603.390989,-9743.573627
3700.479848,497.707101,1167.697429,-9494.720077
3700.482320,1531.406464,689.132909,-9705.288466
3700.484792,-976.271621,1646.261949,-9418.149754
3700.487264,-1416.550979,-2029.113565,-11102.696864
3700.489735,-1646.261949,3790.230998,-9915.856854
3700.492207,1301.695494,2373.680019,-9322.436850
3700.494702,2718.246474,-593.420005,-9705.288466
3700.497197,-19.142581,1780.260014,-9724.431046
3700.499692,-2201.396792,1952.543242,-9915.856854
3700.502187,1569.691626,-3809.373579,-10566.704602
3700.504682,1071.984525,3177.668413,-9188.438784
3700.507177,918.843878,3694.518094,-9303.294269
3700.509672,2871.387120,-3139.383251,-10490.134278
3700.512167,-593.420005,5627.918755,-8556.733618
3700.514662,-1282.552914,-1952.543242,-10796.415571
3700.517157,-535.992262,880.558717,-10126.425243
3700.519652,3139.383251,2182.254211,-9494.720077
3700.522147,3158.525832,-5359.922624,-10585.847182
3700.524642,57.427742,2124.826469,-9169.296203
3700.527137,-1416.550979,325.423874,-10260.423309
3700.529632,-497.707101,363.709035,-9858.429112
3700.532127,1895.115499,2986.242605,-9322.436850
3700.534622,2928.814862,440.279358,-9973.284597
3700.537117,669.990328,-1110.269686,-9934.999435
3700.539612,-114.855485,325.423874,-9839.286531
3700.542107,363.709035,-248.853550,-10394.421374
3700.544602,1110.269686,2469.392923,-9801.001370
3700.547097,899.701298,-287.138712,-10279.565890
3700.549592,306.281293,325.423874,-9494.720077
3700.552087,363.709035,708.275490,-9781.858789
3700.554582,727.418070,-267.996131,-10987.841379
3700.557077,1493.121302,1301.695494,-9686.145885
3700.559572,1607.976787,-957.129040,-9571.290400
3700.562067,708.275490,-497.707101,-10049.854920
3700.564562,-1569.691626,3426.521963,-9437.292334
3700.567057,1741.974853,-1971.685822,-10758.130410
3700.569552,2909.672282,650.847747,-10030.712339
3700.572047,1856.830338,516.849682,-9418.149754
3700.574560,-3101.098090,-937.986459,-10011.569758
3700.577074,1416.550979,287.138712,-10317.851051
3700.579587,1703.689691,4326.223261,-9092.725880
3700.582101,1588.834206,-2507.678085,-10566.704602
3700.584614,765.703232,4555.934230,-9245.866526
3700.587128,-497.707101,133.998066,-9647.860723
3700.589641,574.277424,-2545.963246,-10413.563955
3700.592155,-2584.248408,6125.625856,-9379.864592
3700.594668,1263.410333,-4536.791650,-11294.122672
3700.597182,1914.258080,-1129.412267,-10088.140082
3700.599695,401.994197,3637.090352,-9188.438784
3700.602209,-4039.084549,-114.855485,-10164.710405
3700.604722,669.990328,1129.412267,-10413.563955
3700.607236,3445.664544,4019.941968,-9188.438784
3700.609749,1588.834206,-918.843878,-9896.714274
3700.612263,-478.564520,19.142581,-9839.286531
3700.614776,-1110.269686,2813.959378,-9533.005238
3700.617290,-1167.697429,38.285162,-10164.710405
3700.619803,669.990328,2124.826469,-10049.854920
3700.622317,1435.693560,1933.400661,-9839.286531
3700.624830,803.988394,478.564520,-9475.577496
3700.627344,-535.992262,-325.423874,-10088.140082
3700.629857,-344.566454,1512.263883,-9839.286531
3700.632371,1129.412267,1052.841944,-10202.995566
3700.634884,344.566454,38.285162,-10126.425243
3700.637398,-440.279358,1435.693560,-9111.868461
3700.639911,95.712904,1205.982590,-9686.145885
3700.642425,-440.279358,1780.260014,-10566.704602
3700.644938,248.853550,2431.107762,-9915.856854
3700.647452,842.273555,1588.834206,-9437.292334
3700.649965,2182.254211,-2775.674216,-10317.851051
3700.652479,-1378.265818,3215.953574,-9016.155557
3700.654993,-2373.680019,3369.094221,-10107.282662
3700.657506,401.994197,1282.552914,-10451.849117
3700.660020,4555.934230,172.283227,-9552.147819
3700.662533,-631.705166,3541.377448,-8843.872330
3700.665047,-1875.972918,-1167.697429,-10758.130410
3700.667560,2335.394858,153.140646,-9858.429112
3700.670074,-1435.693560,3407.379382,-9111.868461
3700.672587,1703.689691,-4326.223261,-11351.550414
3700.675114,3675.375514,535.992262,-9628.718142
3700.677642,-95.712904,2258.824534,-9226.723946
3700.680169,-976.271621,-3369.094221,-10853.843314
3700.682696,-1110.269686,6144.768437,-9073.583299
3700.685224,2201.396792,-803.988394,-10413.563955
3700.687751,4364.508422,-2277.967115,-10145.567824
3700.690279,440.279358,1856.830338,-8997.012976
3700.692806,-1225.125171,-2354.537438,-10719.845248
3700.695333,-976.271621,2335.394858,-9992.427178
3700.697861,574.277424,3081.955509,-9743.573627
3700.700388,1895.115499,-1378.265818,-10126.425243
3700.702915,1722.832272,1052.841944,-9456.434915
3700.705443,38.285162,1167.697429,-9705.288466
3700.707970,-210.568389,-1205.982590,-10356.136213
3700.710497,1071.984525,1837.687757,-9877.571693
3700.713025,937.986459,1473.978722,-10068.997501
3700.715552,957.129040,-574.277424,-9954.142016
3700.718079,-267.996131,1186.840010,-9207.581365
3700.720607,1493.121302,-612.562586,-10260.423309
3700.723134,1799.402595,248.853550,-10375.278794
3700.725661,727.418070,1435.693560,-9437.292334
3700.728189,-1244.267752,-306.281293,-9590.432981
3700.730716,2105.683888,-1091.127106,-10279.565890
3700.733244,1837.687757,3196.810994,-9245.866526
3700.735771,2756.531635,-1665.404530,-10298.708470
3700.738298,1110.269686,-172.283227,-10241.280728
3700.740826,-3751.945837,3196.810994,-9399.007173
3700.743353,1052.841944,-3905.086483,-10815.558152
3700.745880,3349.951640,-555.134843,-10030.712339
3700.748408,-1052.841944,4996.213589,-9379.864592
3700.750935,1741.974853,-4421.936165,-11102.696864
3700.753462,306.281293,5359.922624,-8327.022648
3700.755990,-2297.109696,-631.705166,-10011.569758
3700.758517,-38.285162,-1186.840010,-10777.272990
3700.761044,1646.261949,6202.196179,-8805.587168
3700.763572,2220.539373,-3483.949706,-10528.419440
3700.766099,-765.703232,3196.810994,-9379.864592
3700.768626,-2067.398726,6948.756830,-8863.014910
3700.771154,325.423874,-2143.969050,-10758.130410
3700.773681,2679.961312,842.273555,-9762.716208
3700.776220,1952.543242,842.273555,-9590.432981
3700.778759,-899.701298,-1818.545176,-10413.563955
3700.781298,-1761.117434,3426.521963,-9418.149754
3700.783836,-210.568389,861.416136,-9934.999435
3700.786375,880.558717,995.414202,-10126.425243
3700.788914,1282.552914,1914.258080,-9781.858789
3700.791453,-631.705166,344.566454,-9686.145885
3700.793992,172.283227,880.558717,-9686.145885
3700.796530,899.701298,1646.261949,-10088.140082
3700.799069,344.566454,995.414202,-10164.710405
3700.801608,229.710970,899.701298,-9628.718142
3700.804147,-401.994197,1741.974853,-9533.005238
3700.806686,-823.130974,593.420005,-10241.280728
3700.809225,57.427742,2718.246474,-9762.716208
3700.811763,1895.115499,1359.123237,-10030.712339
3700.814302,593.420005,-1588.834206,-9341.579430
3700.816841,-1167.697429,-1512.263883,-10145.567824
3700.819380,-2048.256146,3273.381317,-9858.429112
3700.821919,401.994197,1971.685822,-9973.284597
3700.824457,4402.793584,-631.705166,-9839.286531
3700.826996,-19.142581,2756.531635,-9418.149754
3700.829535,-3215.953574,880.558717,-9915.856854
3700.832074,2737.389054,-3369.094221,-10241.280728
3700.834613,95.712904,5149.354235,-9150.153622
3700.837151,287.138712,2201.396792,-9686.145885
3700.839690,3637.090352,-1971.685822,-10164.710405
3700.842229,-516.849682,5091.926493,-8633.303941
3700.844768,-1473.978722,-4307.080680,-10930.413637
3700.847307,-497.707101,3081.955509,-9743.573627
3700.849846,2718.246474,1761.117434,-9801.001370
3700.852384,4613.361973,-4039.084549,-10451.849117
3700.854923,-229.710970,2641.676150,-8901.300072
3700.857462,-1799.402595,-1837.687757,-10451.849117
3700.860001,-497.707101,976.271621,-10279.565890
3700.862540,1588.834206,3579.662610,-9360.722011
3700.865078,2067.398726,-727.418070,-9992.427178
3700.867617,535.992262,-229.710970,-9781.858789
3700.870156,401.994197,823.130974,-9877.571693
3700.872695,516.849682,-325.423874,-10088.140082
3700.875234,1033.699363,1799.402595,-10049.854920
3700.877738,1071.984525,918.843878,-10164.710405
3700.880242,421.136778,-421.136778,-9475.577496
3700.882746,459.421939,-76.570323,-9705.288466
3700.885250,1148.554848,574.277424,-10298.708470
3700.887754,1454.836141,-38.285162,-10279.565890
3700.890258,-1033.699363,2009.970984,-9571.290400
3700.892762,1569.691626,-2029.113565,-10317.851051
3700.895267,2105.683888,650.847747,-9399.007173
3700.897771,1799.402595,363.709035,-9781.858789
3700.900275,803.988394,-976.271621,-10566.704602
3700.902779,-2124.826469,4441.078746,-9724.431046
3700.905283,1320.838075,-2469.392923,-10375.278794
3700.907787,2545.963246,-2967.100024,-10279.565890
3700.910291,-1205.982590,5340.780043,-9437.292334
3700.912795,861.416136,-3847.658741,-11255.837510
3700.915300,784.845813,2660.818731,-9092.725880
3700.917804,-2756.531635,2737.389054,-9552.147819
3700.920308,1684.547110,-3656.232933,-11064.411702
3700.922812,1148.554848,6431.907149,-8556.733618
3700.925316,1339.980656,-2813.959378,-10681.560086
3700.927820,-440.279358,2124.826469,-9686.145885
3700.930324,-937.986459,6814.758765,-8920.442653
3700.932828,-440.279358,-1033.699363,-10413.563955
3700.935332,3062.812928,-478.564520,-9801.001370
3700.937837,1703.689691,1339.980656,-9820.143950
3700.940341,-1320.838075,-1952.543242,-10585.847182
3700.942845,-1454.836141,3426.521963,-9265.009107
3700.945349,765.703232,1186.840010,-9877.571693
3700.947853,153.140646,1282.552914,-10126.425243
3700.950357,803.988394,1550.549045,-9820.143950
3700.952861,612.562586,-459.421939,-9858.429112
3700.955365,114.855485,1895.115499,-9571.290400
3700.957870,-440.279358,631.705166,-10432.706536
3700.960374,1837.687757,325.423874,-10222.138147
3700.962878,-918.843878,2947.957443,-8863.014910
3700.965382,-1167.697429,172.283227,-10068.997501
3700.967886,363.709035,2009.970984,-10068.997501
3700.970390,1971.685822,2565.105827,-9686.145885
3700.972894,-229.710970,-976.271621,-10030.712339
3700.975398,-1263.410333,-1473.978722,-10509.276859
3700.977878,-1607.976787,3215.953574,-9494.720077
3700.980357,114.855485,1397.408398,-10011.569758
3700.982837,3751.945837,-1531.406464,-10413.563955
3700.985316,267.996131,3541.377448,-9169.296203
3700.987796,-2622.533570,880.558717,-10068.997501
3700.990275,2029.113565,-3483.949706,-10394.421374
3700.992755,842.273555,5168.496816,-8805.587168
3700.995234,248.853550,-1818.545176,-10930.413637
3701.017550,-363.709035,1052.841944,-10241.280728
3701.020029,1244.267752,3177.668413,-9379.864592
3701.022509,2258.824534,-38.285162,-9839.286531
3701.024989,344.566454,133.998066,-9705.288466
3701.027468,440.279358,-210.568389,-9973.284597
3701.029948,248.853550,516.849682,-9054.440718
3701.032427,976.271621,1416.550979,-10049.854920
3701.034907,535.992262,19.142581,-10145.567824
3701.037386,803.988394,842.273555,-9399.007173
3701.039866,478.564520,133.998066,-9667.003304
3701.042345,1110.269686,-478.564520,-10279.565890
3701.044825,-535.992262,2488.535504,-9954.142016
3701.047304,2526.820666,-2220.539373,-10547.562021
3701.049784,1971.685822,784.845813,-9265.009107
3701.052263,1378.265818,-497.707101,-9820.143950
3701.054743,76.570323,-937.986459,-10451.849117
3701.057222,-574.277424,4957.928427,-9628.718142
3701.059702,1607.976787,-746.560651,-10317.851051
3701.062181,2909.672282,-1588.834206,-9801.001370
3701.064661,-2258.824534,4192.225195,-9131.011042
3701.067140,1071.984525,-4613.361973,-11408.978157
3701.069620,708.275490,5398.207786,-8709.874264
3701.072099,-1225.125171,229.710970,-10030.712339
3701.074579,267.996131,-803.988394,-10470.991698
3701.077080,995.414202,6412.764568,-8307.880067
3701.079581,1129.412267,-1799.402595,-10356.136213
3701.082082,-937.986459,650.847747,-10011.569758
3701.084583,-2545.963246,6604.190376,-9188.438784
3701.087085,555.134843,-2967.100024,-10930.413637
3701.089586,2794.816797,2373.680019,-9073.583299
3701.092087,1473.978722,765.703232,-9590.432981
3701.094588,-1091.127106,-1282.552914,-10470.991698
3701.097089,-689.132909,2507.678085,-9647.860723
3701.099590,727.418070,842.273555,-10030.712339
3701.102092,823.130974,2048.256146,-9590.432981
3701.104593,325.423874,650.847747,-9762.716208
3701.107094,267.996131,-76.570323,-9877.571693
3701.109595,325.423874,1646.261949,-9801.001370
3701.112096,-229.710970,995.414202,-10356.136213
3701.114598,823.130974,306.281293,-9877.571693
3701.117099,76.570323,2105.683888,-9360.722011
3701.119600,-1148.554848,842.273555,-10145.567824
3701.122101,937.986459,1167.697429,-10088.140082
3701.124602,976.271621,497.707101,-9877.571693
3701.127103,57.427742,38.285162,-10164.710405
3701.129605,-2603.390989,3790.230998,-9379.864592
3701.132106,-689.132909,1761.117434,-9762.716208
3701.134607,4632.504554,-1014.556782,-10145.567824
3701.137108,-555.134843,3751.945837,-9207.581365
3701.139609,-1741.974853,-1971.685822,-10892.128475
3701.142110,2947.957443,1052.841944,-9552.147819
3701.144612,-57.427742,5570.491013,-8595.018779
3701.147113,-76.570323,-3349.951640,-11332.407834
3701.149614,2622.533570,1799.402595,-9743.573627
3701.152115,1646.261949,114.855485,-9628.718142
3701.154616,-1129.412267,-1971.685822,-10375.278794
3701.157117,-918.843878,5340.780043,-9207.581365
3701.159619,2124.826469,-1225.125171,-10260.423309
3701.162120,2622.533570,880.558717,-9877.571693
3701.164621,2258.824534,-2316.252277,-10260.423309
3701.167122,-612.562586,-459.421939,-9877.571693
3701.169623,-650.847747,1627.119368,-10068.997501
3701.172125,19.142581,1091.127106,-10183.852986
3701.174626,2392.822600,1473.978722,-9494.720077
3701.177107,1454.836141,172.283227,-9801.001370
3701.179588,153.140646,-612.562586,-10068.997501
3701.182069,76.570323,1110.269686,-9590.432981
3701.184550,918.843878,191.425808,-10279.565890
3701.187032,937.986459,574.277424,-10107.282662
3701.189513,1244.267752,1052.841944,-9494.720077
3701.191994,459.421939,-57.427742,-9552.147819
3701.194475,-248.853550,0.000000,-9934.999435
3701.196956,2124.826469,1148.554848,-10222.138147
3701.199438,1550.549045,784.845813,-9724.431046
3701.201919,2105.683888,-2239.681954,-9915.856854
3701.204400,880.558717,-133.998066,-9781.858789
3701.206881,-1588.834206,-440.279358,-9973.284597
3701.209362,382.851616,3139.383251,-9820.143950
3701.211843,2335.394858,4823.930362,-8997.012976
3701.214325,2143.969050,-1569.691626,-9877.571693
3701.216806,-1416.550979,3369.094221,-9513.862658
3701.219287,-899.701298,-880.558717,-10413.563955
3701.221768,2029.113565,-2316.252277,-10451.849117
3701.224249,-2182.254211,5704.489078,-9418.149754
3701.226731,1512.263883,-3522.234867,-10968.698798
3701.229212,1244.267752,5111.069074,-8307.880067
3701.231693,325.423874,-593.420005,-10241.280728
3701.234174,-1990.828403,-612.562586,-10547.562021
3701.236655,612.562586,4785.645200,-9628.718142
3701.239136,172.283227,1263.410333,-9820.143950
3701.241618,1186.840010,-1588.834206,-9724.431046
3701.244099,1454.836141,2067.398726,-9801.001370
3701.246580,-727.418070,-1186.840010,-10604.989763
3701.249061,-1875.972918,2679.961312,-9609.575562
3701.251542,555.134843,1110.269686,-10336.993632
3701.254023,2029.113565,459.421939,-10030.712339
3701.256505,0.000000,1646.261949,-9341.579430
3701.258986,-363.709035,746.560651,-9973.284597
3701.261467,478.564520,1244.267752,-10049.854920
3701.263948,957.129040,1282.552914,-10088.140082
3701.266429,-133.998066,1397.408398,-9513.862658
3701.268911,95.712904,1091.127106,-9609.575562
3701.271392,784.845813,1416.550979,-10183.852986
3701.273873,-382.851616,440.279358,-9915.856854
3701.276367,210.568389,650.847747,-10049.854920
3701.278870,-1167.697429,2660.818731,-9686.145885
3701.281373,-306.281293,2029.113565,-9513.862658
3701.283875,3675.375514,-2201.396792,-10317.851051
3701.286378,-669.990328,4230.510357,-9150.153622
3701.288881,-2239.681954,-229.710970,-10738.987829
3701.291384,3273.381317,-1493.121302,-10202.995566
3701.293886,-650.847747,4957.928427,-8480.163294
3701.296389,478.564520,-4153.940034,-11121.839445
3701.298892,1359.123237,2928.814862,-9762.716208
3701.301394,1952.543242,2392.822600,-9322.436850
3701.303897,-478.564520,-3675.375514,-10872.985894
3701.306400,-803.988394,4670.789715,-9188.438784
3701.308903,2737.389054,-497.707101,-9973.284597
3701.311405,2258.824534,-497.707101,-10068.997501
3701.313908,1741.974853,-861.416136,-9915.856854
3701.316411,210.568389,-133.998066,-9667.003304
3701.318914,-669.990328,1550.549045,-10222.138147
3701.321416,-421.136778,382.851616,-10126.425243
3701.323919,2277.967115,1052.841944,-9628.718142
3701.326422,1684.547110,1378.265818,-9590.432981
3701.328925,-555.134843,-382.851616,-10164.710405
3701.331427,746.560651,918.843878,-9801.001370
3701.333930,2258.824534,1033.699363,-9877.571693
3701.336433,-95.712904,612.562586,-9705.288466
3701.338936,1301.695494,248.853550,-9915.856854
3701.341438,880.558717,631.705166,-9705.288466
3701.343941,-153.140646,1416.550979,-9667.003304
3701.346444,2163.111630,-1818.545176,-10681.560086
3701.348947,2794.816797,-1837.687757,-10126.425243
3701.351449,899.701298,-287.138712,-9801.001370
3701.353952,-1033.699363,-421.136778,-9934.999435
3701.356455,-287.138712,4383.651003,-9437.292334
3701.358958,2316.252277,861.416136,-10011.569758
3701.361460,2775.674216,-1646.261949,-10145.567824
3701.363963,-2354.537438,3503.092286,-9341.579430
3701.366466,669.990328,-4747.360038,-11140.982026
3701.368969,-114.855485,4881.358104,-8633.303941
3701.371471,-1990.828403,4575.076811,-9513.862658
3701.373974,2220.539373,-3043.670347,-10872.985894
3701.376495,842.273555,6527.620053,-8307.880067
3701.379016,363.709035,-1895.115499,-10356.136213
3701.381537,-1110.269686,478.564520,-10049.854920
3701.384057,-2852.244539,6087.340694,-9226.723946
3701.386578,382.851616,-3101.098090,-11102.696864
3701.389099,2813.959378,2890.529701,-9111.868461
3701.391620,1091.127106,1320.838075,-9284.151688
3701.394141,-1454.836141,-2067.398726,-10815.558152
3701.396662,-555.134843,2182.254211,-9820.143950
3701.399183,-133.998066,2775.674216,-9609.575562
3701.401704,1225.125171,-363.709035,-10241.280728
3701.404224,899.701298,1282.552914,-9533.005238
3701.406745,-133.998066,1148.554848,-9609.575562
3701.409266,-746.560651,497.707101,-10279.565890
3701.411787,1531.406464,1129.412267,-10260.423309
3701.414308,57.427742,2048.256146,-9456.434915
3701.416829,-555.134843,899.701298,-10088.140082
3701.419350,1301.695494,-937.986459,-10164.710405
3701.421870,-937.986459,4421.936165,-9016.155557
3701.424391,-1473.978722,1014.556782,-10394.421374
3701.426912,-440.279358,1263.410333,-10336.993632
3701.429433,3809.373579,1914.258080,-9265.009107
3701.431954,-995.414202,363.709035,-9667.003304
3701.434475,-1167.697429,-2220.539373,-10853.843314
3701.436996,325.423874,4096.512291,-9647.860723
3701.439517,861.416136,-2258.824534,-10222.138147
3701.442037,2182.254211,153.140646,-9839.286531
3701.444558,57.427742,4096.512291,-9207.581365
3701.447079,2297.109696,-3254.238736,-10432.706536
3701.449600,-497.707101,4938.785846,-8958.727814
3701.452121,-38.285162,612.562586,-10222.138147
3701.454642,1320.838075,-1263.410333,-10222.138147
3701.457163,1646.261949,2775.674216,-9322.436850
3701.459683,2737.389054,-2526.820666,-10336.993632
3701.462204,689.132909,-880.558717,-9705.288466
3701.464725,-363.709035,1454.836141,-9934.999435
3701.467246,-401.994197,1129.412267,-10336.993632
3701.469767,1052.841944,880.558717,-9609.575562
3701.472288,1033.699363,2450.250342,-8977.870395
3701.474809,210.568389,-248.853550,-10107.282662
3701.477345,114.855485,344.566454,-10049.854920
3701.479880,1263.410333,1110.269686,-10068.997501
3701.482416,287.138712,708.275490,-9896.714274
3701.484952,765.703232,-363.709035,-10011.569758
3701.487488,267.996131,1550.549045,-9475.577496
3701.490024,1033.699363,-440.279358,-10241.280728
3701.492560,2009.970984,-76.570323,-9820.143950
3701.495096,2431.107762,-1569.691626,-9992.427178
3701.497632,823.130974,-995.414202,-10049.854920
3701.500168,-2450.250342,842.273555,-9915.856854
3701.502704,1627.119368,1263.410333,-10126.425243
3701.505240,2201.396792,3598.805190,-9226.723946
3701.507776,2718.246474,-1952.543242,-10317.851051
3701.510311,-2373.680019,3847.658741,-9418.149754
3701.512847,-669.990328,-3369.094221,-10853.843314
3701.515383,1416.550979,861.416136,-9686.145885
3701.517919,-1665.404530,3905.086483,-9533.005238
3701.520455,1684.547110,-3062.812928,-10892.128475
3701.522991,995.414202,4460.221326,-8709.874264
3701.525527,95.712904,1110.269686,-9667.003304
3701.528063,-1359.123237,-1761.117434,-10585.847182
3701.530599,-1531.406464,6431.907149,-9226.723946
3701.533135,708.275490,-1473.978722,-10547.562021
3701.535671,2182.254211,593.420005,-9475.577496
3701.538207,1397.408398,2411.965181,-9207.581365
3701.540742,-689.132909,-1933.400661,-10604.989763
3701.543278,-1703.689691,1301.695494,-9992.427178
3701.545814,1665.404530,1359.123237,-10030.712339
3701.548350,459.421939,976.271621,-9705.288466
3701.550886,38.285162,746.560651,-9552.147819
3701.553422,172.283227,957.129040,-9801.001370
3701.555958,-95.712904,1818.545176,-9877.571693
3701.558494,-133.998066,823.130974,-10183.852986
3701.561030,478.564520,1607.976787,-9801.001370
3701.563566,1837.687757,880.558717,-9820.143950
3701.566102,-1665.404530,3713.660675,-9399.007173
3701.568637,-1550.549045,1397.408398,-10394.421374
3701.571173,-306.281293,2124.826469,-9820.143950
3701.573709,880.558717,1627.119368,-9896.714274
3701.576245,2277.967115,-3139.383251,-10183.852986
3701.578793,-918.843878,2986.242605,-9131.011042
3701.581340,-2143.969050,1914.258080,-10107.282662
3701.583888,3254.238736,-3330.809059,-10528.419440
3701.586435,1148.554848,6125.625856,-8652.446522
3701.588983,-191.425808,1588.834206,-9934.999435
3701.591530,2392.822600,-1856.830338,-9934.999435
3701.594078,-574.277424,3254.238736,-9360.722011
3701.596625,76.570323,-4153.940034,-11351.550414
3701.599173,-95.712904,3962.514226,-9360.722011
3701.601721,2086.541307,555.134843,-9858.429112
3701.604268,2565.105827,-1933.400661,-10202.995566
3701.606816,2354.537438,593.420005,-9399.007173
3701.609363,-1378.265818,38.285162,-9934.999435
3701.611911,76.570323,727.418070,-10547.562021
3701.614458,1263.410333,1129.412267,-9743.573627
3701.617006,1799.402595,650.847747,-9418.149754
3701.619553,497.707101,-287.138712,-9858.429112
3701.622101,-38.285162,1091.127106,-9973.284597
3701.624648,421.136778,593.420005,-10279.565890
3701.627196,1167.697429,306.281293,-9992.427178
3701.629743,976.271621,1301.695494,-9494.720077
3701.632291,-267.996131,765.703232,-9743.573627
3701.634838,1569.691626,-1263.410333,-9915.856854
3701.637386,2450.250342,-1205.982590,-10126.425243
3701.639933,1684.547110,-153.140646,-10011.569758
3701.642481,440.279358,-1091.127106,-9858.429112
3701.645029,-2565.105827,2431.107762,-9437.292334
3701.647576,2545.963246,-1875.972918,-10968.698798
3701.650124,2603.390989,3905.086483,-9073.583299
3701.652671,1627.119368,287.138712,-9609.575562
3701.655219,-1416.550979,2201.396792,-9934.999435
3701.657766,-957.129040,287.138712,-9839.286531
3701.660314,631.705166,-3273.381317,-10604.989763
3701.662861,-287.138712,4134.797453,-10030.712339
3701.665409,727.418070,229.710970,-10107.282662
3701.667956,1167.697429,421.136778,-9418.149754
3701.670504,-363.709035,2833.101958,-9475.577496
3701.673051,-1780.260014,-1071.984525,-10317.851051
3701.675599,-746.560651,4919.643266,-9513.862658
3701.678146,1110.269686,363.709035,-10432.706536
3701.680704,1359.123237,-746.560651,-9437.292334
3701.683261,689.132909,1071.984525,-9647.860723
3701.685818,-1225.125171,746.560651,-10279.565890
3701.688375,-287.138712,535.992262,-10011.569758
3701.690932,689.132909,2603.390989,-9705.288466
3701.693489,880.558717,-325.423874,-10164.710405
3701.696046,-19.142581,1607.976787,-9188.438784
3701.698604,76.570323,574.277424,-9915.856854
3701.701161,267.996131,593.420005,-10279.565890
3701.703718,363.709035,2105.683888,-9647.860723
3701.706275,1990.828403,-401.994197,-10375.278794
3701.708832,-1780.260014,4153.940034,-8958.727814
3701.711389,-1339.980656,497.707101,-10011.569758
3701.713946,-918.843878,1627.119368,-10279.565890
3701.716504,669.990328,2335.394858,-9781.858789
3701.719061,3675.375514,-3101.098090,-10260.423309
3701.721618,-1416.550979,4019.941968,-8920.442653
3701.724175,-2794.816797,229.710970,-10413.563955
3701.726732,3426.521963,-1627.119368,-10643.274925
3701.729289,1799.402595,5187.639397,-8997.012976
3701.731847,287.138712,-976.271621,-10432.706536
3701.734404,1646.261949,-210.568389,-9839.286531
3701.736961,803.988394,1378.265818,-9379.864592
3701.739518,-650.847747,-2967.100024,-10815.558152
3701.742075,191.425808,4766.502619,-9322.436850
3701.744632,2526.820666,-689.132909,-10222.138147
3701.747189,1741.974853,133.998066,-9724.431046
3701.749747,2143.969050,421.136778,-9437.292334
3701.752304,-631.705166,-172.283227,-10011.569758
3701.754861,-153.140646,1397.408398,-10241.280728
3701.757418,727.418070,1225.125171,-10164.710405
3701.759975,1550.549045,-650.847747,-9781.858789
3701.762541,1205.982590,210.568389,-9494.720077
3701.765106,325.423874,784.845813,-10241.280728
3701.767672,-153.140646,976.271621,-10241.280728
3701.770237,1818.545176,287.138712,-9820.143950
3701.772803,267.996131,1550.549045,-9647.860723
3701.775368,2507.678085,-535.992262,-10183.852986
3701.777934,937.986459,650.847747,-9533.005238
3701.780499,2182.254211,-1550.549045,-10317.851051
3701.783065,1493.121302,-880.558717,-10317.851051
3701.785630,-95.712904,-210.568389,-9762.716208
3701.788196,-1225.125171,3560.520029,-9609.575562
3701.790762,2297.109696,-918.843878,-10394.421374
3701.793327,3637.090352,114.855485,-9647.860723
3701.795893,-2660.818731,2545.963246,-9667.003304
3701.798458,-57.427742,-3426.521963,-11140.982026
3701.801024,1339.980656,2699.103893,-8805.587168
3701.803589,-1722.832272,2297.109696,-9781.858789
3701.806155,1110.269686,-1205.982590,-10815.558152
3701.808720,1071.984525,5857.629725,-8537.591037
3701.811286,727.418070,-2967.100024,-10490.134278
3701.813851,-1091.127106,1875.972918,-9743.573627
3701.816417,-1780.260014,2947.957443,-9590.432981
3701.818982,-76.570323,95.712904,-10604.989763
3701.821548,2105.683888,2469.392923,-9207.581365
3701.824113,1301.695494,612.562586,-9513.862658
3701.826679,-344.566454,-1359.123237,-10451.849117
3701.829245,-497.707101,2124.826469,-9781.858789
3701.831810,-191.425808,2239.681954,-9609.575562
3701.834376,1148.554848,153.140646,-10202.995566
3701.836941,440.279358,1435.693560,-9379.864592
3701.839507,-267.996131,1186.840010,-9571.290400
3701.842072,-248.853550,-267.996131,-10279.565890
3701.844638,133.998066,1971.685822,-9858.429112
3701.847203,2086.541307,363.709035,-10145.567824
3701.849769,-1531.406464,2852.244539,-9628.718142
3701.852334,-1914.258080,1952.543242,-9781.858789
3701.854900,-421.136778,1263.410333,-10030.712339
3701.857465,1914.258080,1933.400661,-10107.282662
3701.860031,1607.976787,-2220.539373,-10202.995566
3701.862596,-1148.554848,421.136778,-9801.001370
3701.865168,-2526.820666,3139.383251,-9762.716208
3701.867739,2737.389054,-3177.668413,-10183.852986
3701.870311,1933.400661,5168.496816,-8901.300072
3701.872882,363.709035,-1052.841944,-10911.271056
3701.875453,1588.834206,-306.281293,-9743.573627
3701.878025,593.420005,1148.554848,-9226.723946
3701.880596,-95.712904,-3483.949706,-11026.126541
3701.883167,478.564520,2565.105827,-9647.860723
3701.885739,1971.685822,1378.265818,-9896.714274
3701.888310,2105.683888,-1569.691626,-10107.282662
3701.890882,1550.549045,1167.697429,-9169.296203
3701.893453,-746.560651,-823.130974,-10164.710405
3701.896024,401.994197,1071.984525,-10375.278794
3701.898596,1378.265818,1052.841944,-10049.854920
3701.901167,-191.425808,497.707101,-9571.290400
3701.903739,803.988394,-306.281293,-9724.431046
3701.906310,593.420005,1301.695494,-9915.856854
3701.908881,172.283227,823.130974,-10375.278794
3701.911453,-38.285162,918.843878,-9781.858789
3701.914024,2048.256146,823.130974,-9552.147819
3701.916596,1071.984525,19.142581,-9705.288466
3701.919167,1359.123237,-1875.972918,-10222.138147
3701.921738,1569.691626,287.138712,-9781.858789
3701.924310,1225.125171,-937.986459,-10260.423309
3701.926881,-1837.687757,3101.098090,-9609.575562
3701.929452,2105.683888,-1818.545176,-10356.136213
3701.932024,3311.666478,1282.552914,-9322.436850
3701.934595,-1110.269686,1186.840010,-9896.714274
3701.937167,57.427742,478.564520,-10279.565890
3701.939738,-76.570323,3541.377448,-9131.011042
3701.942309,880.558717,-3292.523898,-10451.849117
3701.944881,-1454.836141,4843.072942,-9571.290400
3701.947452,1205.982590,2890.529701,-9628.718142
3701.950024,1378.265818,-1818.545176,-10183.852986
3701.952595,-899.701298,2928.814862,-9552.147819
3701.955166,-1454.836141,-421.136778,-10260.423309
3701.957738,-593.420005,3713.660675,-9494.720077
3701.960309,708.275490,937.986459,-10164.710405
3701.962880,1435.693560,-267.996131,-9781.858789
3701.965452,1320.838075,1588.834206,-9494.720077
3701.968028,-689.132909,-1167.697429,-10585.847182
3701.970605,-708.275490,1856.830338,-10088.140082
3701.973182,1550.549045,2009.970984,-9609.575562
3701.975758,497.707101,-325.423874,-10183.852986
3701.978335,-708.275490,1531.406464,-9571.290400
3701.980911,784.845813,1110.269686,-9877.571693
3701.983488,95.712904,1148.554848,-10107.282662
3701.986064,287.138712,363.709035,-10068.997501
3701.988641,-669.990328,2641.676150,-9475.577496
3701.991218,-1512.263883,3005.385186,-9781.858789
3701.993794,-746.560651,1665.404530,-10011.569758
3701.996371,2603.390989,1454.836141,-9781.858789
3701.998947,1071.984525,-1167.697429,-10336.993632
3702.001524,-1607.976787,-1014.556782,-10202.995566
3702.004101,-2201.396792,3713.660675,-9494.720077
3702.006677,3024.527766,-3579.662610,-10566.704602
3702.009254,2029.113565,4364.508422,-9035.298138
3702.011830,114.855485,803.988394,-10222.138147
3702.014407,1818.545176,-1837.687757,-10222.138147
3702.016983,555.134843,2335.394858,-9169.296203
3702.019560,-114.855485,-3101.098090,-11140.982026
3702.022137,823.130974,1148.554848,-10126.425243
3702.024713,1875.972918,2182.254211,-9494.720077
3702.027290,1856.830338,-1971.685822,-10241.280728
3702.029866,1722.832272,784.845813,-9533.005238
3702.032443,-325.423874,-38.285162,-9820.143950
3702.035020,306.281293,1263.410333,-10088.140082
3702.037596,516.849682,555.134843,-10394.421374
3702.040173,631.705166,535.992262,-9418.149754
3702.042749,306.281293,-248.853550,-9762.716208
3702.045326,957.129040,957.129040,-10241.280728
3702.047902,-478.564520,2067.398726,-9858.429112
3702.050479,593.420005,-210.568389,-10222.138147
3702.053056,1531.406464,497.707101,-9590.432981
3702.055632,1531.406464,38.285162,-9552.147819
3702.058209,1454.836141,-1646.261949,-10470.991698
3702.060785,1416.550979,-248.853550,-10030.712339
3702.063362,-440.279358,57.427742,-9839.286531
3702.065939,2086.541307,-861.416136,-10413.563955
3702.068515,1952.543242,4039.084549,-8882.157491
3702.071096,2794.816797,-1665.404530,-9820.143950
3702.073676,-2239.681954,3713.660675,-9934.999435
3702.076257,-497.707101,-1933.400661,-10719.845248
3702.078838,1607.976787,401.994197,-9475.577496
3702.081418,-2163.111630,3503.092286,-9667.003304
3702.083999,1397.408398,-2182.254211,-10700.702667
3702.086580,880.558717,6163.911018,-8422.735552
3702.089160,555.134843,-2297.109696,-9973.284597
3702.091741,-1014.556782,-689.132909,-10068.997501
3702.094322,-1512.263883,4632.504554,-9360.722011
3702.096902,440.279358,133.998066,-10470.991698
3702.099483,1225.125171,1588.834206,-9456.434915
3702.102064,1263.410333,555.134843,-9724.431046
3702.104644,-19.142581,-631.705166,-10202.995566
3702.107225,76.570323,727.418070,-10202.995566
3702.109806,-229.710970,2258.824534,-9724.431046
3702.112386,1397.408398,440.279358,-10068.997501
3702.114967,382.851616,1129.412267,-9513.862658
3702.117548,-172.283227,1148.554848,-9686.145885
3702.120128,937.986459,306.281293,-10298.708470
3702.122709,-516.849682,1091.127106,-9858.429112
3702.125290,-382.851616,2048.256146,-9915.856854
3702.127870,-1761.117434,3254.238736,-9762.716208
3702.130451,-191.425808,1588.834206,-9686.145885
3702.133032,1454.836141,2392.822600,-9533.005238
3702.135612,-172.283227,574.277424,-9973.284597
3702.138193,-1741.974853,-2201.396792,-10528.419440
3702.140774,-1799.402595,3637.090352,-9513.862658
3702.143354,2488.535504,-3081.955509,-10490.134278
3702.145935,2392.822600,2641.676150,-9054.440718
3702.148516,-133.998066,2756.531635,-9762.716208
3702.151096,2220.539373,-2411.965181,-10547.562021
3702.153677,-19.142581,2928.814862,-8939.585234
3702.156258,-363.709035,-3751.945837,-11006.983960
3702.158838,995.414202,229.710970,-10336.993632
3702.161419,1875.972918,2679.961312,-9245.866526
3702.164000,1607.976787,-2086.541307,-10298.708470
3702.166580,1397.408398,1301.695494,-9379.864592
3702.169161,497.707101,-114.855485,-9973.284597
3702.171742,-535.992262,1091.127106,-10241.280728
3702.174325,1397.408398,497.707101,-10145.567824
3702.176909,1052.841944,497.707101,-9533.005238
3702.179492,0.000000,248.853550,-9686.145885
3702.182075,229.710970,650.847747,-9896.714274
3702.184659,842.273555,1033.699363,-10317.851051
3702.187242,1493.121302,-401.994197,-10030.712339
3702.189825,1378.265818,765.703232,-9399.007173
3702.192409,1607.976787,-555.134843,-10049.854920
3702.194992,1856.830338,-1646.261949,-10164.710405
3702.197575,478.564520,535.992262,-9647.860723
3702.200159,-1837.687757,2565.105827,-9992.427178
3702.202742,2622.533570,-2890.529701,-10892.128475
3702.205326,2967.100024,2718.246474,-8518.448456
3702.207909,-2201.396792,1933.400661,-9858.429112
3702.210492,1301.695494,-2890.529701,-11045.269122
3702.213076,95.712904,6278.766502,-8537.591037
3702.215659,-114.855485,-1473.978722,-10279.565890
3702.218242,-574.277424,2316.252277,-9954.142016
3702.220826,689.132909,2488.535504,-9399.007173
3702.223409,1512.263883,-2239.681954,-10375.278794
3702.225993,-57.427742,3139.383251,-9686.145885
3702.228576,-1091.127106,-248.853550,-10107.282662
3702.231159,-1627.119368,1301.695494,-10202.995566
3702.233743,1761.117434,1359.123237,-10145.567824
3702.236326,1339.980656,765.703232,-9207.581365
3702.238909,497.707101,421.136778,-9801.001370
3702.241493,-248.853550,210.568389,-10490.134278
3702.244076,-401.994197,1359.123237,-9858.429112
3702.246659,363.709035,1282.552914,-9820.143950
3702.249243,-38.285162,0.000000,-10107.282662
3702.251826,861.416136,957.129040,-9609.575562
3702.254410,1320.838075,689.132909,-10030.712339
3702.256993,-1339.980656,2105.683888,-9896.714274
3702.259576,-459.421939,478.564520,-10222.138147
3702.262160,-631.705166,3694.518094,-9533.005238
3702.264743,-401.994197,2373.680019,-9456.434915
3702.267326,2679.961312,-382.851616,-10049.854920
3702.269910,-976.271621,2163.111630,-9360.722011
3702.272493,-1225.125171,-2431.107762,-10777.272990
3702.275076,-1282.552914,2813.959378,-9820.143950
3702.277655,2239.681954,-1722.832272,-10030.712339
3702.280241,2947.957443,823.130974,-9513.862658
3702.282827,-478.564520,4134.797453,-9437.292334
3702.285412,2392.822600,-2507.678085,-10432.706536
3702.287998,-382.851616,2660.818731,-8997.012976
3702.290584,210.568389,-1397.408398,-10758.130410
3702.293169,765.703232,-210.568389,-10394.421374
3702.295755,1684.547110,2354.537438,-9207.581365
3702.298341,1703.689691,-1493.121302,-10241.280728
3702.300926,1129.412267,727.418070,-9628.718142
3702.303512,650.847747,-57.427742,-9992.427178
3702.306098,114.855485,823.130974,-10202.995566
3702.308683,976.271621,937.986459,-10202.995566
3702.311269,574.277424,325.423874,-9590.432981
3702.313855,114.855485,38.285162,-9781.858789
3702.316440,363.709035,995.414202,-10164.710405
3702.319026,1378.265818,593.420005,-10298.708470
3702.321612,842.273555,593.420005,-9820.143950
3702.324197,1799.402595,-823.130974,-9992.427178
3702.326783,1875.972918,-650.847747,-9686.145885
3702.329369,1225.125171,-937.986459,-10088.140082
3702.331955,-1741.974853,306.281293,-10336.993632
3702.334540,1627.119368,1014.556782,-10183.852986
3702.337126,2450.250342,3503.092286,-8824.729749
3702.339712,1301.695494,-784.845813,-9705.288466
3702.342297,-880.558717,3254.238736,-9475.577496
3702.344883,-823.130974,153.140646,-10298.708470
3702.347469,1301.695494,-1971.685822,-10375.278794
3702.350054,-2565.105827,5053.641331,-9303.294269
3702.352640,1091.127106,-2756.531635,-10834.700733
3702.355226,1378.265818,5340.780043,-8441.878133
3702.357811,593.420005,-267.996131,-10183.852986
3702.360397,-669.990328,-1914.258080,-10585.847182
3702.362983,-1550.549045,4345.365842,-9207.581365
3702.365568,459.421939,1971.685822,-10068.997501
3702.368154,612.562586,-344.566454,-9877.571693
3702.370740,1952.543242,957.129040,-9571.290400
3702.373325,-325.423874,421.136778,-10394.421374
3702.375911,-823.130974,95.712904,-10356.136213
3702.378497,746.560651,1799.402595,-9647.860723
3702.381084,1435.693560,172.283227,-9896.714274
3702.383671,-401.994197,1473.978722,-9533.005238
3702.386257,401.994197,650.847747,-10030.712339
3702.388844,-803.988394,1320.838075,-10068.997501
3702.391431,-497.707101,1244.267752,-9973.284597
3702.394018,-1186.840010,3081.955509,-9571.290400
3702.396605,248.853550,2105.683888,-9992.427178
3702.399192,1837.687757,1627.119368,-9781.858789
3702.401778,363.709035,-612.562586,-9858.429112
3702.404365,-1167.697429,-440.279358,-10375.278794
3702.406952,-842.273555,3024.527766,-9801.001370
3702.409539,2431.107762,-1780.260014,-10107.282662
3702.412126,2660.818731,153.140646,-9896.714274
3702.414713,-153.140646,3885.943902,-9360.722011
3702.417300,2239.681954,-2124.826469,-10164.710405
3702.419886,-478.564520,2143.969050,-9513.862658
3702.422473,210.568389,-2660.818731,-10853.843314
3702.425060,516.849682,2105.683888,-9705.288466
3702.427647,1990.828403,1416.550979,-9743.573627
3702.430234,1761.117434,-1225.125171,-9915.856854
3702.432821,1148.554848,1110.269686,-9360.722011
3702.435407,555.134843,-306.281293,-10317.851051
3702.437994,-38.285162,1339.980656,-9820.143950
3702.440581,995.414202,861.416136,-10088.140082
3702.443168,497.707101,-593.420005,-10030.712339
3702.445755,210.568389,1454.836141,-9265.009107
3702.448342,727.418070,440.279358,-10183.852986
3702.450929,995.414202,-191.425808,-10432.706536
3702.453515,1646.261949,803.988394,-9437.292334
3702.456102,1205.982590,-957.129040,-10107.282662
3702.458689,2297.109696,-1416.550979,-9992.427178
3702.461276,593.420005,363.709035,-9571.290400
3702.463863,-2105.683888,2794.816797,-10088.140082
3702.466450,2679.961312,-2737.389054,-11006.983960
3702.469037,3177.668413,2239.681954,-8863.014910
3702.471623,-516.849682,382.851616,-9762.716208
3702.474210,401.994197,535.992262,-10107.282662
3702.476797,-133.998066,4249.652938,-9207.581365
3702.479384,-306.281293,-1091.127106,-10317.851051
3702.481971,-899.701298,2641.676150,-9820.143950
3702.484558,784.845813,1818.545176,-9533.005238
3702.487146,1454.836141,-1799.402595,-10202.995566
3702.489734,57.427742,3101.098090,-9628.718142
3702.492322,-689.132909,-574.277424,-10336.993632
3702.494909,-1856.830338,2469.392923,-9705.288466
3702.497497,1320.838075,2928.814862,-9820.143950
3702.500085,612.562586,267.996131,-9705.288466
3702.502672,593.420005,-57.427742,-9762.716208
3702.505260,210.568389,1378.265818,-10222.138147
3702.507848,-421.136778,535.992262,-10164.710405
3702.510436,172.283227,1186.840010,-9667.003304
3702.513023,1148.554848,1091.127106,-9667.003304
3702.515611,593.420005,535.992262,-9781.858789
3702.518199,-1014.556782,574.277424,-10202.995566
3702.520787,-344.566454,1703.689691,-10088.140082
3702.523374,-1129.412267,3273.381317,-9475.577496
3702.525962,-267.996131,1282.552914,-10088.140082
3702.528550,1052.841944,2163.111630,-9456.434915
3702.531137,1627.119368,-1569.691626,-9992.427178
3702.533725,-1646.261949,746.560651,-10164.710405
3702.536313,-2833.101958,3158.525832,-9820.143950
3702.538901,4096.512291,-2909.672282,-10164.710405
3702.541488,995.414202,5283.352301,-8671.589102
3702.544076,842.273555,-2526.820666,-10911.271056
3702.546664,1071.984525,-1971.685822,-10375.278794
3702.549251,593.420005,1607.976787,-9552.147819
3702.551839,-133.998066,-2488.535504,-10604.989763
3702.554427,363.709035,3158.525832,-9647.860723
3702.557015,2526.820666,861.416136,-9877.571693
3702.559602,1780.260014,-363.709035,-9705.288466
3702.562190,421.136778,708.275490,-9743.573627
3702.564778,784.845813,-1761.117434,-10126.425243
3702.567365,937.986459,1014.556782,-9762.716208
3702.569953,421.136778,976.271621,-10241.280728
3702.572541,478.564520,708.275490,-9705.288466
3702.575129,401.994197,937.986459,-9571.290400
3702.577716,784.845813,-191.425808,-10298.708470
3702.580304,842.273555,1071.984525,-9934.999435
3702.582892,1148.554848,0.000000,-10088.140082
3702.585480,2143.969050,-957.129040,-10126.425243
3702.588068,1914.258080,-267.996131,-9437.292334
3702.590656,382.851616,-1167.697429,-10088.140082
3702.593245,-1799.402595,3426.521963,-9820.143950
3702.595833,2584.248408,880.558717,-9934.999435
3702.598421,3254.238736,-1933.400661,-10030.712339
3702.601010,-2220.539373,2373.680019,-9475.577496
3702.603598,1205.982590,-2756.531635,-10872.985894
3702.606186,-19.142581,5532.205851,-8767.302006
3702.608775,-210.568389,-287.138712,-10298.708470
3702.611363,-899.701298,2239.681954,-10011.569758
3702.613952,344.566454,2450.250342,-9341.579430
3702.616540,1627.119368,-2603.390989,-10336.993632
3702.619128,-631.705166,1722.832272,-9743.573627
3702.621717,-861.416136,2450.250342,-9686.145885
3702.624305,-1550.549045,535.992262,-10298.708470
3702.626893,1684.547110,3062.812928,-9609.575562
3702.629482,880.558717,401.994197,-9494.720077
3702.632070,-497.707101,344.566454,-9762.716208
3702.634658,593.420005,918.843878,-10336.993632
3702.637247,459.421939,1110.269686,-10241.280728
3702.639835,-133.998066,172.283227,-9781.858789
3702.642424,937.986459,784.845813,-9494.720077
3702.645012,-267.996131,650.847747,-10088.140082
3702.647600,-421.136778,1129.412267,-10260.423309
3702.650189,-1263.410333,3158.525832,-9494.720077
3702.652777,-114.855485,2124.826469,-9820.143950
3702.655365,114.855485,1761.117434,-9896.714274
3702.657954,3120.240670,842.273555,-9475.577496
3702.660542,-1722.832272,2679.961312,-9341.579430
3702.663130,-1607.976787,-2182.254211,-10968.698798
3702.665719,-229.710970,784.845813,-9915.856854
3702.668307,38.285162,2852.244539,-8958.727814
3702.670896,2373.680019,-4479.363907,-11026.126541
3702.673484,918.843878,4383.651003,-9245.866526
3702.676072,2143.969050,-1933.400661,-10317.851051
3702.678661,-861.416136,38.285162,-10011.569758
3702.681249,229.710970,3158.525832,-9609.575562
3702.683837,1627.119368,-765.703232,-10068.997501
3702.686426,1244.267752,1110.269686,-9858.429112
3702.689014,1263.410333,-421.136778,-9934.999435
3702.691603,1014.556782,-440.279358,-9801.001370
3702.694192,38.285162,727.418070,-10107.282662
3702.696781,363.709035,899.701298,-10068.997501
3702.699370,1014.556782,287.138712,-9973.284597
3702.701958,1052.841944,765.703232,-9571.290400
3702.704547,650.847747,421.136778,-9877.571693
3702.707136,784.845813,153.140646,-10356.136213
3702.709725,1110.269686,1225.125171,-9647.860723
3702.712314,2545.963246,-1263.410333,-9915.856854
3702.714903,1665.404530,-784.845813,-10202.995566
3702.717492,-76.570323,-459.421939,-9934.999435
3702.720081,-1014.556782,3120.240670,-9494.720077
3702.722670,1799.402595,-1205.982590,-10681.560086
3702.725259,3464.807125,-2009.970984,-10011.569758
3702.727847,-2067.398726,2890.529701,-9724.431046
3702.730436,306.281293,-3273.381317,-11026.126541
3702.733025,-114.855485,4287.938099,-8767.302006
3702.735614,-1033.699363,1493.121302,-9992.427178
3702.738203,-401.994197,784.845813,-10279.565890
3702.740792,650.847747,3924.229064,-8901.300072
3702.743381,1703.689691,-3177.668413,-10528.419440
3702.745970,-344.566454,2526.820666,-9609.575562
3702.748559,-1167.697429,3388.236802,-9494.720077
3702.751147,-1607.976787,57.427742,-10451.849117
3702.753736,1971.685822,2507.678085,-9686.145885
3702.756325,612.562586,861.416136,-9513.862658
3702.758914,229.710970,-535.992262,-9839.286531
3702.761503,746.560651,1665.404530,-9896.714274
3702.764092,-574.277424,1454.836141,-10317.851051
3702.766681,-133.998066,803.988394,-9915.856854
3702.769270,2316.252277,-114.855485,-9552.147819
3702.771859,-287.138712,2335.394858,-9571.290400
3702.774447,-1473.978722,248.853550,-10662.417506
3702.777036,-1225.125171,2852.244539,-9781.858789
3702.779625,497.707101,3809.373579,-9322.436850
3702.782214,861.416136,153.140646,-10107.282662
3702.784803,1837.687757,-1646.261949,-9992.427178
3702.787392,-1282.552914,2411.965181,-9475.577496
3702.789981,-3503.092286,1703.689691,-10375.278794
3702.792570,3464.807125,-1933.400661,-10298.708470
3702.795158,3215.953574,3617.947771,-8709.874264
3702.797747,267.996131,574.277424,-10049.854920
3702.800336,1359.123237,-1435.693560,-10222.138147
3702.802924,976.271621,880.558717,-9628.718142
3702.805513,-153.140646,-2335.394858,-10624.132344
3702.808101,-287.138712,4115.654872,-9226.723946
3702.810690,2565.105827,287.138712,-9858.429112
3702.813279,1263.410333,19.142581,-9954.142016
3702.815867,516.849682,114.855485,-9686.145885
3702.818456,-401.994197,-957.129040,-10279.565890
3702.821045,689.132909,516.849682,-10011.569758
3702.823633,1091.127106,1818.545176,-9839.286531
3702.826222,210.568389,535.992262,-9896.714274
3702.828811,880.558717,-344.566454,-9705.288466
3702.831399,1071.984525,1607.976787,-9724.431046
3702.833988,325.423874,-38.285162,-10317.851051
3702.836577,2201.396792,-382.851616,-10011.569758
3702.839165,1722.832272,57.427742,-9437.292334
3702.841754,861.416136,-1339.980656,-10145.567824
3702.844342,-2067.398726,3081.955509,-9801.001370
3702.846931,1952.543242,-1780.260014,-10624.132344
3702.849520,3732.803256,153.140646,-9628.718142
3702.852108,-191.425808,1397.408398,-9801.001370
3702.854697,95.712904,287.138712,-9915.856854
3702.857286,-440.279358,4383.651003,-9035.298138
3702.859874,382.851616,-3330.809059,-10968.698798
3702.862463,-2833.101958,4364.508422,-9609.575562
3702.865052,574.277424,2048.256146,-9667.003304
3702.867640,2048.256146,-2335.394858,-10241.280728
3702.870229,-114.855485,3292.523898,-9360.722011
3702.872818,-1167.697429,-516.849682,-10375.278794
3702.875406,-478.564520,2048.256146,-9877.571693
3702.877995,-114.855485,3675.375514,-9494.720077
3702.880583,535.992262,-267.996131,-9973.284597
3702.883172,842.273555,823.130974,-9513.862658
3702.885761,574.277424,842.273555,-9915.856854
3702.888349,57.427742,497.707101,-10490.134278
3702.890938,267.996131,746.560651,-9801.001370
3702.893527,1473.978722,287.138712,-9552.147819
3702.896115,-593.420005,1875.972918,-9628.718142
3702.898679,-1359.123237,1167.697429,-10260.423309
3702.901242,-478.564520,2603.390989,-9896.714274
3702.903805,-612.562586,3464.807125,-9647.860723
3702.906368,899.701298,382.851616,-10088.140082
3702.908932,2258.824534,-1186.840010,-9877.571693
3702.911495,-1780.260014,-593.420005,-10202.995566
3702.914058,-2335.394858,2947.957443,-10145.567824
3702.916621,2565.105827,-2450.250342,-10241.280728
3702.919185,3139.383251,2909.672282,-8824.729749
3702.921748,248.853550,765.703232,-9934.999435
3702.924311,1569.691626,-1454.836141,-10202.995566
3702.926874,1167.697429,957.129040,-9724.431046
3702.929438,-516.849682,-1684.547110,-10585.847182
3702.932001,-459.421939,3215.953574,-9552.147819
3702.934564,2335.394858,689.132909,-9705.288466
3702.937127,2277.967115,-708.275490,-10011.569758
3702.939691,210.568389,593.420005,-9743.573627
3702.942254,-57.427742,-1071.984525,-10241.280728
3702.944817,1186.840010,727.418070,-10011.569758
3702.947380,784.845813,1569.691626,-9858.429112
3702.949943,478.564520,248.853550,-9743.573627
3702.952507,1473.978722,535.992262,-9533.005238
3702.955070,210.568389,1493.121302,-9839.286531
3702.957633,593.420005,-1129.412267,-10738.987829
3702.960196,2603.390989,-842.273555,-9743.573627
3702.962760,1990.828403,76.570323,-9724.431046
3702.965323,-1761.117434,-1301.695494,-10317.851051
3702.967886,823.130974,1244.267752,-10049.854920
3702.970449,2067.398726,2679.961312,-9494.720077
3702.973013,3101.098090,-2699.103893,-10375.278794
3702.975576,-1531.406464,3637.090352,-9265.009107
3702.978139,478.564520,-3349.951640,-11026.126541
3702.980702,689.132909,-995.414202,-10011.569758
3702.983266,-2756.531635,4287.938099,-9552.147819
3702.985829,1071.984525,-1263.410333,-10604.989763
3702.988392,995.414202,5436.492947,-8556.733618
3702.990955,1263.410333,-1646.261949,-10164.710405
3702.993519,-267.996131,95.712904,-10107.282662
3702.996082,-1799.402595,2833.101958,-9705.288466
3702.998645,-1263.410333,-19.142581,-10317.851051
3703.001212,1110.269686,2986.242605,-9475.577496
3703.003779,2105.683888,459.421939,-9552.147819
3703.006345,-880.558717,1320.838075,-9552.147819
3703.008912,-191.425808,803.988394,-10260.423309
3703.011479,1014.556782,1550.549045,-10011.569758
3703.014046,823.130974,1052.841944,-9533.005238
3703.016612,-727.418070,1129.412267,-9513.862658
3703.019179,-440.279358,1167.697429,-9858.429112
3703.021746,-669.990328,2699.103893,-9973.284597
3703.024313,-1531.406464,2794.816797,-10011.569758
3703.026879,861.416136,1569.691626,-9839.286531
3703.029446,2297.109696,-1741.974853,-9877.571693
3703.032013,-1339.980656,1684.547110,-9667.003304
3703.034579,-3292.523898,2507.678085,-9934.999435
3703.037146,3062.812928,-1895.115499,-10413.563955
3703.039713,1799.402595,4747.360038,-8920.442653
3703.042280,1301.695494,-3139.383251,-10681.560086
3703.044846,1014.556782,727.418070,-9667.003304
3703.047413,2239.681954,-574.277424,-9877.571693
3703.049980,-1225.125171,516.849682,-10030.712339
3703.052547,-689.132909,3292.523898,-9437.292334
3703.055113,2756.531635,325.423874,-9973.284597
3703.057680,2029.113565,153.140646,-9686.145885
3703.060247,363.709035,-248.853550,-9877.571693
3703.062814,1014.556782,-478.564520,-10164.710405
3703.065380,229.710970,1091.127106,-9992.427178
3703.067947,114.855485,631.705166,-10049.854920
3703.070514,1167.697429,363.709035,-9781.858789
3703.073081,1225.125171,727.418070,-9590.432981
3703.075647,-114.855485,478.564520,-10011.569758
3703.078214,1052.841944,-363.709035,-10298.708470
3703.080781,2354.537438,38.285162,-9858.429112
3703.083351,1512.263883,-784.845813,-9724.431046
3703.085921,-1684.547110,-574.277424,-9915.856854
3703.088491,1875.972918,95.712904,-10298.708470
3703.091061,1607.976787,3062.812928,-9303.294269
3703.093632,2545.963246,-2143.969050,-10183.852986
3703.096202,-803.988394,3617.947771,-9571.290400
3703.098772,-478.564520,172.283227,-9858.429112
3703.101342,325.423874,-2201.396792,-10317.851051
3703.103912,-3177.668413,4575.076811,-9686.145885
3703.106482,1512.263883,-1397.408398,-10681.560086
3703.109052,2163.111630,2239.681954,-9245.866526
3703.111622,267.996131,2201.396792,-9437.292334
3703.114193,-95.712904,-1780.260014,-10394.421374
3703.116763,-957.129040,3503.092286,-9667.003304
3703.119333,-1378.265818,1033.699363,-10164.710405
3703.121903,1033.699363,765.703232,-9896.714274
3703.124473,1780.260014,650.847747,-9724.431046
3703.127043,-555.134843,1110.269686,-9552.147819
3703.129613,-306.281293,1167.697429,-10088.140082
3703.132184,1071.984525,803.988394,-10183.852986
3703.134754,631.705166,1339.980656,-9437.292334
3703.137324,-459.421939,459.421939,-9934.999435
3703.139894,-1167.697429,2067.398726,-9781.858789
3703.142464,-1148.554848,2622.533570,-10030.712339
3703.145034,-535.992262,2411.965181,-10183.852986
3703.147604,3962.514226,267.996131,-9724.431046
3703.150175,-1569.691626,2316.252277,-8939.585234
3703.152745,-2086.541307,-2450.250342,-10911.271056
3703.155315,-1225.125171,3005.385186,-9762.716208
3703.157885,535.992262,2335.394858,-9552.147819
3703.160455,3043.670347,-3675.375514,-10834.700733
3703.163025,1186.840010,4460.221326,-8901.300072
3703.165595,2641.676150,-1856.830338,-10049.854920
3703.168166,-1416.550979,1512.263883,-9437.292334
3703.170736,114.855485,-1033.699363,-10624.132344
3703.173306,612.562586,516.849682,-10145.567824
3703.175876,2086.541307,1665.404530,-9456.434915
3703.178446,2182.254211,-497.707101,-9801.001370
3703.181016,1071.984525,133.998066,-9705.288466
3703.183586,478.564520,842.273555,-10049.854920
3703.186159,38.285162,669.990328,-10164.710405
3703.188731,1148.554848,535.992262,-9877.571693
3703.191303,1780.260014,0.000000,-9820.143950
3703.193876,-727.418070,976.271621,-9571.290400
3703.196448,1837.687757,-803.988394,-10202.995566
3703.199020,1818.545176,382.851616,-10126.425243
3703.201593,1818.545176,-669.990328,-9915.856854
3703.204165,-1378.265818,-784.845813,-10088.140082
3703.206738,2048.256146,-133.998066,-10566.704602
3703.209310,1722.832272,2986.242605,-9111.868461
3703.211882,2507.678085,-1856.830338,-10202.995566
3703.214455,-1167.697429,3751.945837,-9877.571693
3703.217027,459.421939,-2794.816797,-10777.272990
3703.219599,516.849682,1761.117434,-9379.864592
3703.222172,-2297.109696,3273.381317,-9628.718142
3703.224744,-325.423874,210.568389,-10336.993632
3703.227316,1550.549045,4977.071008,-8863.014910
3703.229889,1225.125171,-497.707101,-9858.429112
3703.232461,-440.279358,-842.273555,-10202.995566
3703.235033,-1895.115499,3273.381317,-9667.003304
3703.237606,-803.988394,19.142581,-10317.851051
3703.240178,727.418070,2584.248408,-9667.003304
3703.242750,1435.693560,574.277424,-9954.142016
3703.245323,-344.566454,133.998066,-9552.147819
3703.247895,440.279358,842.273555,-9954.142016
3703.250467,937.986459,1225.125171,-10183.852986
3703.253040,172.283227,1416.550979,-9724.431046
3703.255612,-267.996131,593.420005,-9667.003304
3703.258184,-746.560651,1990.828403,-9705.288466
3703.260757,-918.843878,2335.394858,-10126.425243
3703.263329,-727.418070,2507.678085,-10030.712339
3703.265901,4192.225195,172.283227,-9667.003304
3703.268474,-1473.978722,3196.810994,-8882.157491
3703.271046,-2545.963246,-2182.254211,-10815.558152
3703.273618,1837.687757,-229.710970,-10049.854920
3703.276191,478.564520,3560.520029,-9265.009107
3703.278763,2660.818731,-4575.076811,-11198.409768
3703.281335,1397.408398,3541.377448,-9131.011042
3703.283908,2507.678085,-937.986459,-9801.001370
3703.286480,-1531.406464,918.843878,-9533.005238
3703.289049,133.998066,76.570323,-10681.560086
3703.291624,1167.697429,114.855485,-10298.708470
3703.294198,1741.974853,1301.695494,-9533.005238
3703.296773,957.129040,-497.707101,-9820.143950
3703.299347,957.129040,229.710970,-9590.432981
3703.301921,-229.710970,1416.550979,-10049.854920
3703.304496,363.709035,-19.142581,-10470.991698
3703.307070,1320.838075,803.988394,-9590.432981
3703.309645,1397.408398,459.421939,-9839.286531
3703.312219,306.281293,-516.849682,-10126.425243
3703.314794,1205.982590,842.273555,-9667.003304
3703.317368,2335.394858,-1225.125171,-10547.562021
3703.319943,1397.408398,-669.990328,-9686.145885
3703.322517,-1684.547110,3024.527766,-9322.436850
3703.325092,2067.398726,-3043.670347,-11064.411702
3703.327666,3043.670347,1091.127106,-9379.864592
3703.330241,172.283227,957.129040,-9705.288466
3703.332815,210.568389,1071.984525,-10394.421374
3703.335389,363.709035,3847.658741,-9131.011042
3703.337964,-114.855485,-2967.100024,-10547.562021
3703.340538,-3617.947771,3924.229064,-9839.286531
3703.343113,1110.269686,650.847747,-10107.282662
3703.345687,2258.824534,-631.705166,-9915.856854
3703.348262,497.707101,2603.390989,-9284.151688
3703.350836,-401.994197,-727.418070,-10126.425243
3703.353411,-1033.699363,2775.674216,-9609.575562
3703.355985,-669.990328,2105.683888,-9896.714274
3703.358560,344.566454,535.992262,-9896.714274
3703.361134,1627.119368,899.701298,-9762.716208
3703.363709,76.570323,957.129040,-9647.860723
3703.366283,-574.277424,1588.834206,-9820.143950
3703.368857,229.710970,689.132909,-10279.565890
3703.371432,440.279358,995.414202,-9609.575562
3703.374006,-287.138712,1741.974853,-9647.860723
3703.376581,-1435.693560,1914.258080,-10049.854920
3703.379155,-842.273555,2488.535504,-9820.143950
3703.381730,3254.238736,1646.261949,-9647.860723
3703.384304,-287.138712,631.705166,-9743.573627
3703.386879,-1588.834206,-1397.408398,-10317.851051
3703.389453,-2392.822600,3503.092286,-9571.290400
3703.392029,1244.267752,-631.705166,-10068.997501
3703.394604,2833.101958,-1416.550979,-10356.136213
3703.397180,1225.125171,4498.506488,-9245.866526
3703.399755,2526.820666,-2258.824534,-10279.565890
3703.402331,-823.130974,976.271621,-9437.292334
3703.404907,-440.279358,-1799.402595,-10604.989763
3703.407482,363.709035,1416.550979,-10088.140082
3703.410058,2565.105827,1914.258080,-9762.716208
3703.412633,1818.545176,-478.564520,-9858.429112
3703.415209,229.710970,784.845813,-9571.290400
3703.417785,325.423874,-842.273555,-10164.710405
3703.420360,267.996131,1263.410333,-9973.284597
3703.422936,976.271621,1473.978722,-10145.567824
3703.425511,1531.406464,248.853550,-9724.431046
3703.428087,-153.140646,325.423874,-9322.436850
3703.430663,1225.125171,-440.279358,-10202.995566
3703.433238,1971.685822,-631.705166,-10432.706536
3703.435814,1684.547110,401.994197,-9686.145885
3703.438389,-1282.552914,2699.103893,-9609.575562
3703.440965,1933.400661,-2775.674216,-10528.419440
3703.443541,2909.672282,287.138712,-9418.149754
3703.446116,95.712904,1282.552914,-9858.429112
3703.448692,650.847747,1052.841944,-10164.710405
3703.451267,172.283227,4173.082614,-9016.155557
3703.453843,19.142581,-2699.103893,-10413.563955
3703.456418,-3503.092286,4134.797453,-9475.577496
3703.458994,1014.556782,-1320.838075,-10758.130410
3703.461570,2239.681954,-861.416136,-9973.284597
3703.464145,669.990328,2679.961312,-9456.434915
3703.466721,-535.992262,-631.705166,-10126.425243
3703.469296,-1282.552914,2411.965181,-9513.862658
3703.471872,-516.849682,1990.828403,-10088.140082
3703.474448,937.986459,-248.853550,-10241.280728
3703.477023,1225.125171,1531.406464,-9418.149754
3703.479599,-153.140646,746.560651,-9781.858789
3703.482174,-497.707101,1052.841944,-9781.858789
3703.484750,1244.267752,1110.269686,-10107.282662
3703.487326,-95.712904,1512.263883,-9992.427178
3703.489901,-937.986459,1186.840010,-9647.860723
3703.492477,-1205.982590,2392.822600,-9724.431046
3703.495053,-325.423874,2526.820666,-10068.997501
3703.497630,3924.229064,-1550.549045,-10183.852986
3703.500206,-1607.976787,4632.504554,-8843.872330
3703.502783,-2220.539373,-1473.978722,-10911.271056
3703.505359,535.992262,1052.841944,-9877.571693
3703.507936,344.566454,4632.504554,-8786.444587
3703.510512,2488.535504,-4575.076811,-11351.550414
3703.513089,1799.402595,2297.109696,-9686.145885
3703.515665,2565.105827,-267.996131,-9475.577496
3703.518242,-1875.972918,478.564520,-9418.149754
3703.520818,-727.418070,2086.541307,-10030.712339
3703.523395,2450.250342,631.705166,-9915.856854
3703.525971,1856.830338,784.845813,-9820.143950
3703.528548,746.560651,-267.996131,-9877.571693
3703.531124,344.566454,306.281293,-9379.864592
3703.533701,823.130974,-76.570323,-10202.995566
3703.536277,191.425808,1531.406464,-10145.567824
3703.538854,1110.269686,1225.125171,-9781.858789
3703.541430,1244.267752,-382.851616,-9858.429112
3703.544007,861.416136,363.709035,-9571.290400
3703.546583,1512.263883,-803.988394,-10260.423309
3703.549160,1875.972918,-612.562586,-10375.278794
3703.551737,-1378.265818,1435.693560,-9647.860723
3703.554313,2201.396792,-2220.539373,-10585.847182
3703.556890,2277.967115,2239.681954,-9188.438784
3703.559466,1933.400661,-440.279358,-9647.860723
3703.562043,-937.986459,3885.943902,-9781.858789
3703.564619,689.132909,-1856.830338,-10949.556218
3703.567196,727.418070,-2220.539373,-10202.995566
3703.569772,-4460.221326,3560.520029,-9667.003304
3703.572349,995.414202,-1761.117434,-10853.843314
3703.574925,2067.398726,4747.360038,-8863.014910
3703.577502,746.560651,344.566454,-9954.142016
3703.580078,0.000000,-1703.689691,-10356.136213
3703.582655,-899.701298,3713.660675,-9226.723946
3703.585231,-1416.550979,-363.709035,-10509.276859
3703.587808,1052.841944,2297.109696,-9667.003304
3703.590384,1473.978722,1435.693560,-9590.432981
3703.592961,-363.709035,-516.849682,-10126.425243
3703.595537,-976.271621,1071.984525,-9954.142016
3703.598115,1320.838075,1875.972918,-9820.143950
3703.600692,-267.996131,478.564520,-10164.710405
3703.603269,-593.420005,2297.109696,-9552.147819
3703.605847,-1148.554848,2775.674216,-9571.290400
3703.608424,-440.279358,1416.550979,-10088.140082
3703.611002,3235.096155,-267.996131,-10145.567824
3703.613579,-976.271621,3924.229064,-9111.868461
3703.616156,-2699.103893,765.703232,-10490.134278
3703.618734,1741.974853,-133.998066,-9877.571693
3703.621311,114.855485,3656.232933,-8786.444587
3703.623889,3043.670347,-4996.213589,-11351.550414
3703.626466,1569.691626,3196.810994,-9609.575562
3703.629043,3081.955509,-344.566454,-9552.147819
3703.631621,-1665.404530,421.136778,-9494.720077
3703.634198,19.142581,-440.279358,-10413.563955
3703.636776,784.845813,1186.840010,-10049.854920
3703.639353,1646.261949,803.988394,-9896.714274
3703.641930,1359.123237,-823.130974,-9954.142016
3703.644508,1033.699363,19.142581,-9475.577496
3703.647085,-153.140646,1359.123237,-9801.001370
3703.649662,363.709035,248.853550,-10317.851051
3703.652240,1148.554848,1588.834206,-9820.143950
3703.654817,1052.841944,-861.416136,-9858.429112
3703.657395,842.273555,153.140646,-9437.292334
3703.659972,1378.265818,191.425808,-9973.284597
3703.662549,1665.404530,-669.990328,-10528.419440
3703.665127,-1186.840010,2545.963246,-9475.577496
3703.667704,2009.970984,-2718.246474,-10509.276859
3703.670282,3311.666478,440.279358,-9533.005238
3703.672859,995.414202,1607.976787,-9360.722011
3703.675436,-899.701298,2411.965181,-9954.142016
3703.678014,516.849682,1454.836141,-10222.138147
3703.680591,918.843878,-1875.972918,-10279.565890
3703.683169,-3751.945837,2909.672282,-9705.288466
3703.685746,229.710970,-689.132909,-10719.845248
3703.688323,2450.250342,2143.969050,-9092.725880
3703.690901,631.705166,1914.258080,-9762.716208
3703.693478,-765.703232,-1244.267752,-10432.706536
3703.696056,-995.414202,3215.953574,-9092.725880
3703.698633,-1110.269686,765.703232,-10260.423309
3703.701188,535.992262,1071.984525,-10183.852986
3703.703744,1722.832272,1263.410333,-9590.432981
3703.706299,-133.998066,-229.710970,-10030.712339
3703.708855,-1263.410333,1359.123237,-9705.288466
3703.711410,1435.693560,727.418070,-10279.565890
3703.713966,-133.998066,1684.547110,-9801.001370
3703.716521,-708.275490,2258.824534,-9418.149754
3703.719077,-1148.554848,2431.107762,-9877.571693
3703.721632,918.843878,1607.976787,-9934.999435
3703.724188,1225.125171,-1014.556782,-9992.427178
3703.726743,-765.703232,1493.121302,-9801.001370
3703.729299,-2239.681954,2699.103893,-10088.140082
3703.731854,1818.545176,-2392.822600,-10068.997501
3703.734410,2143.969050,2163.111630,-9360.722011
3703.736965,1512.263883,1588.834206,-9934.999435
3703.739521,1952.543242,-1895.115499,-10298.708470
3703.742076,1167.697429,-153.140646,-9781.858789
3703.744632,-593.420005,-957.129040,-10222.138147
3703.747187,-306.281293,2813.959378,-9590.432981
3703.749742,2009.970984,1186.840010,-9877.571693
3703.752298,1895.115499,-363.709035,-10164.710405
3703.754853,421.136778,401.994197,-9494.720077
3703.757409,19.142581,-1741.974853,-10394.421374
3703.759964,631.705166,1167.697429,-10068.997501
3703.762520,861.416136,2220.539373,-9877.571693
3703.765075,823.130974,-1186.840010,-10298.708470
3703.767631,1416.550979,1320.838075,-9245.866526
3703.770186,1110.269686,-593.420005,-9820.143950
3703.772742,1454.836141,-1071.984525,-10279.565890
3703.775297,-248.853550,842.273555,-10126.425243
3703.777853,3024.527766,-2220.539373,-10528.419440
3703.780408,1971.685822,1952.543242,-9245.866526
3703.782964,1627.119368,-631.705166,-9820.143950
3703.785519,-995.414202,3522.234867,-9456.434915
3703.788075,497.707101,-1263.410333,-10834.700733
3703.790630,842.273555,593.420005,-9934.999435
3703.793186,-3024.527766,3809.373579,-9035.298138
3703.795741,-382.851616,38.285162,-10260.423309
3703.798296,746.560651,4307.080680,-9245.866526
3703.800852,1550.549045,612.562586,-9877.571693
3703.803411,325.423874,-1148.554848,-10394.421374
3703.805970,-1473.978722,2718.246474,-9475.577496
3703.808530,-1282.552914,-95.712904,-10107.282662
3703.811089,1282.552914,1301.695494,-9973.284597
3703.813648,1359.123237,2029.113565,-9552.147819
3703.816207,-325.423874,363.709035,-9801.001370
3703.818767,-191.425808,-459.421939,-10145.567824
3703.821326,555.134843,2201.396792,-9360.722011
3703.823885,-459.421939,2163.111630,-9934.999435
3703.826444,-535.992262,1320.838075,-10068.997501
3703.829004,-765.703232,3292.523898,-9552.147819
3703.831563,899.701298,1627.119368,-9801.001370
3703.834122,535.992262,-1531.406464,-10164.710405
3703.836681,-631.705166,1454.836141,-9915.856854
3703.839241,-2335.394858,2909.672282,-9934.999435
3703.841800,2143.969050,-2737.389054,-10260.423309
3703.844359,1799.402595,5091.926493,-8441.878133
3703.846918,1110.269686,2469.392923,-9571.290400
3703.849478,1914.258080,-2411.965181,-10738.987829
3703.852037,1225.125171,382.851616,-9647.860723
3703.854596,-593.420005,-937.986459,-10164.710405
3703.857155,-803.988394,2009.970984,-9934.999435
3703.859714,2737.389054,1493.121302,-9667.003304
3703.862274,1722.832272,421.136778,-10030.712339
3703.864833,918.843878,-1359.123237,-10183.852986
3703.867392,516.849682,1493.121302,-9379.864592
3703.869951,172.283227,478.564520,-10049.854920
3703.872511,976.271621,1282.552914,-10183.852986
3703.875070,1129.412267,784.845813,-9915.856854
3703.877629,1167.697429,-746.560651,-9781.858789
3703.880188,1512.263883,-382.851616,-9705.288466
3703.882748,1339.980656,-363.709035,-10030.712339
3703.885307,-1244.267752,689.132909,-10241.280728
3703.887866,2545.963246,-2316.252277,-10853.843314
3703.890425,2392.822600,2699.103893,-8824.729749
3703.892985,114.855485,631.705166,-9724.431046
3703.895544,-153.140646,2182.254211,-9667.003304
3703.898103,440.279358,3541.377448,-9533.005238
3703.900662,612.562586,-2833.101958,-10872.985894
3703.903222,-4345.365842,3924.229064,-9533.005238
3703.905784,708.275490,-1148.554848,-10394.421374
3703.908347,1895.115499,3598.805190,-9131.011042
3703.910910,1014.556782,1205.982590,-9839.286531
3703.913472,38.285162,-842.273555,-10298.708470
3703.916035,-1416.550979,2565.105827,-9513.862658
3703.918598,-995.414202,937.986459,-10088.140082
3703.921160,1435.693560,38.285162,-10164.710405
3703.923723,1378.265818,1588.834206,-9552.147819
3703.926286,-593.420005,784.845813,-9954.142016
3703.928848,-459.421939,937.986459,-9934.999435
3703.931411,1014.556782,1990.828403,-9647.860723
3703.933974,-803.988394,1550.549045,-9781.858789
3703.936536,-727.418070,1531.406464,-9915.856854
3703.939099,-421.136778,2699.103893,-10011.569758
3703.941662,2718.246474,-1282.552914,-9801.001370
3703.944224,-1818.545176,3847.658741,-8882.157491
3703.946787,-1722.832272,-363.709035,-10892.128475
3703.949350,1339.980656,861.416136,-9992.427178
3703.951912,191.425808,4479.363907,-8652.446522
3703.954475,1914.258080,-4287.938099,-11217.552349
3703.957038,2335.394858,1435.693560,-9513.862658
3703.959600,2565.105827,19.142581,-9705.288466
3703.962163,-1780.260014,535.992262,-9647.860723
3703.964726,287.138712,535.992262,-10088.140082
3703.967288,1033.699363,57.427742,-10490.134278
3703.969851,1339.980656,1071.984525,-9839.286531
3703.972414,1569.691626,287.138712,-9724.431046
3703.974977,459.421939,-899.701298,-9954.142016
3703.977539,1129.412267,516.849682,-9915.856854
3703.980102,191.425808,2067.398726,-10011.569758
3703.982665,1665.404530,-669.990328,-10279.565890
3703.985227,1033.699363,1033.699363,-9284.151688
3703.987790,1263.410333,-746.560651,-9858.429112
3703.990353,1550.549045,-1493.121302,-10260.423309
3703.992915,-1205.982590,1818.545176,-9801.001370
3703.995478,2699.103893,-1856.830338,-10662.417506
3703.998041,2909.672282,1033.699363,-9437.292334
3704.000603,1435.693560,631.705166,-9456.434915
3704.003166,-1378.265818,2756.531635,-9743.573627
3704.005729,535.992262,593.420005,-10222.138147
3704.008294,1110.269686,-1091.127106,-10336.993632
3704.010859,-4019.941968,3541.377448,-9552.147819
3704.013424,631.705166,-382.851616,-10279.565890
3704.015989,1339.980656,4670.789715,-8824.729749
3704.018554,1244.267752,-995.414202,-10317.851051
3704.021119,-19.142581,-957.129040,-10451.849117
3704.023684,-918.843878,3062.812928,-9284.151688
3704.026249,-746.560651,-133.998066,-10183.852986
3704.028814,823.130974,2335.394858,-9839.286531
3704.031379,1225.125171,765.703232,-9839.286531
3704.033944,-76.570323,-574.277424,-9839.286531
3704.036509,-1071.984525,1397.408398,-9839.286531
3704.039074,344.566454,1512.263883,-10049.854920
3704.041639,-382.851616,1933.400661,-9820.143950
3704.044204,-1110.269686,3158.525832,-9494.720077
3704.046769,-133.998066,1454.836141,-9801.001370
3704.049334,2354.537438,-1856.830338,-10222.138147
3704.051899,-1818.545176,4326.223261,-9111.868461
3704.054464,-2335.394858,918.843878,-10241.280728
3704.057029,2124.826469,-38.285162,-10164.710405
3704.059594,-95.712904,2737.389054,-8977.870395
3704.062159,2373.680019,-4479.363907,-10738.987829
3704.064724,1780.260014,3311.666478,-9609.575562
3704.067289,2833.101958,-555.134843,-9571.290400
3704.069854,-1301.695494,669.990328,-9533.005238
3704.072419,-153.140646,803.988394,-10260.423309
3704.074984,1607.976787,516.849682,-9915.856854
3704.077549,1110.269686,1167.697429,-9724.431046
3704.080114,1588.834206,-842.273555,-10126.425243
3704.082679,1359.123237,669.990328,-9399.007173
3704.085244,-133.998066,344.566454,-9934.999435
3704.087809,306.281293,516.849682,-10413.563955
3704.090374,1531.406464,76.570323,-9896.714274
3704.092939,1014.556782,1359.123237,-9513.862658
3704.095505,1397.408398,-1607.976787,-10126.425243
3704.098070,1186.840010,95.712904,-9705.288466
3704.100635,-803.988394,2641.676150,-9973.284597
3704.103200,2163.111630,-3637.090352,-11160.124606
3704.105765,2967.100024,1320.838075,-9169.296203
3704.108330,1071.984525,153.140646,-9839.286531
3704.110897,-823.130974,2565.105827,-9705.288466
3704.113464,344.566454,6029.912952,-8939.585234
3704.116030,287.138712,-1761.117434,-10509.276859
3704.118597,-3617.947771,3215.953574,-9781.858789
3704.121164,-38.285162,-650.847747,-10336.993632
3704.123731,2201.396792,1741.974853,-9379.864592
3704.126298,1186.840010,2105.683888,-9705.288466
3704.128865,95.712904,-784.845813,-10260.423309
3704.131432,-1397.408398,2813.959378,-9552.147819
3704.133999,-631.705166,555.134843,-10126.425243
3704.136566,478.564520,1167.697429,-9839.286531
3704.139133,880.558717,593.420005,-9801.001370
3704.141700,0.000000,803.988394,-9820.143950
3704.144267,-210.568389,1588.834206,-9781.858789
3704.146834,-535.992262,1186.840010,-10183.852986
3704.149401,-401.994197,1684.547110,-9801.001370
3704.151967,-229.710970,3005.385186,-9360.722011
3704.154534,727.418070,1473.978722,-10107.282662
3704.157101,267.996131,-459.421939,-9992.427178
3704.159668,-1205.982590,957.129040,-9762.716208
3704.162235,-1684.547110,2756.531635,-10107.282662
3704.164802,2143.969050,-2316.252277,-9992.427178
3704.167369,2909.672282,2009.970984,-9284.151688
3704.169936,995.414202,1856.830338,-9896.714274
3704.172503,1627.119368,-2105.683888,-10298.708470
3704.175070,1569.691626,-363.709035,-9896.714274
3704.177637,-459.421939,-133.998066,-10068.997501
3704.180204,-555.134843,2029.113565,-9571.290400
3704.182771,2163.111630,1588.834206,-9877.571693
3704.185338,2335.394858,1052.841944,-9724.431046
3704.187904,19.142581,-401.994197,-9590.432981
3704.190471,153.140646,-1493.121302,-10451.849117
3704.193038,1225.125171,1186.840010,-9839.286531
3704.195605,631.705166,1167.697429,-10011.569758
3704.198172,803.988394,133.998066,-10088.140082
3704.200739,2048.256146,57.427742,-9552.147819
3704.203306,1416.550979,-1167.697429,-9858.429112
3704.205873,-1148.554848,191.425808,-10030.712339
3704.208440,2813.959378,-1952.543242,-10796.415571
3704.211007,2354.537438,2220.539373,-8997.012976
3704.213576,1493.121302,-957.129040,-9915.856854
3704.216144,-1129.412267,3254.238736,-9781.858789
3704.218713,689.132909,-689.132909,-10298.708470
3704.221282,957.129040,133.998066,-9973.284597
3704.223850,-3081.955509,3675.375514,-9743.573627
3704.226419,-669.990328,957.129040,-9781.858789
3704.228988,593.420005,3522.234867,-9111.868461
3704.231556,1473.978722,306.281293,-9877.571693
3704.234125,-535.992262,-650.847747,-10164.710405
3704.236694,-1148.554848,2258.824534,-9896.714274
3704.239262,-1454.836141,459.421939,-10068.997501
3704.241831,1646.261949,1531.406464,-9513.862658
3704.244400,1148.554848,1320.838075,-9743.573627
3704.246968,-401.994197,631.705166,-9877.571693
3704.249537,-497.707101,516.849682,-10011.569758
3704.252106,0.000000,1588.834206,-9896.714274
3704.254674,-382.851616,1952.543242,-9705.288466
3704.257243,-918.843878,2718.246474,-9820.143950
3704.259812,1933.400661,2105.683888,-9762.716208
3704.262380,-172.283227,-421.136778,-9801.001370
3704.264949,-1741.974853,306.281293,-10183.852986
3704.267518,-2105.683888,3503.092286,-9743.573627
3704.270086,2871.387120,-2833.101958,-10202.995566
3704.272655,1856.830338,4460.221326,-8614.161360
3704.275224,1320.838075,-1799.402595,-10509.276859
3704.277792,1990.828403,-2201.396792,-10260.423309
3704.280361,1110.269686,-497.707101,-9954.142016
3704.282930,-248.853550,133.998066,-9973.284597
3704.285498,-401.994197,2182.254211,-9628.718142
3704.288067,1856.830338,1167.697429,-9915.856854
3704.290636,1684.547110,38.285162,-9934.999435
3704.293204,880.558717,-689.132909,-9858.429112
3704.295773,114.855485,1205.982590,-9590.432981
3704.298342,899.701298,-574.277424,-10336.993632
3704.300910,1665.404530,1665.404530,-9781.858789
3704.303479,382.851616,-401.994197,-10222.138147
3704.306048,1607.976787,-497.707101,-9609.575562
3704.308616,1665.404530,229.710970,-9628.718142
3704.311185,-1512.263883,708.275490,-10279.565890
3704.313754,2699.103893,-2947.957443,-10949.556218
3704.316293,2431.107762,2641.676150,-8786.444587
3704.318842,1110.269686,-1741.974853,-10298.708470
3704.321391,-842.273555,4115.654872,-9322.436850
3704.323940,823.130974,3713.660675,-9475.577496
3704.326489,669.990328,-2622.533570,-10853.843314
3704.329038,-4785.645200,4058.227130,-9456.434915
3704.331587,497.707101,-746.560651,-10413.563955
3704.334136,1856.830338,2986.242605,-9284.151688
3704.336685,1263.410333,1167.697429,-9609.575562
3704.339234,172.283227,-1014.556782,-10394.421374
3704.341783,-1416.550979,2048.256146,-9877.571693
3704.344332,-1397.408398,382.851616,-10011.569758
3704.346881,1225.125171,2737.389054,-9992.427178
3704.349431,1933.400661,535.992262,-9877.571693
3704.351980,-784.845813,1512.263883,-9475.577496
3704.354529,-1435.693560,1378.265818,-10145.567824
3704.357078,95.712904,2565.105827,-9686.145885
3704.359627,-401.994197,1895.115499,-9801.001370
3704.362176,19.142581,2220.539373,-9801.001370
3704.364725,2163.111630,-746.560651,-10241.280728
3704.367274,-1952.543242,4441.078746,-8786.444587
3704.369823,-2239.681954,-382.851616,-10738.987829
3704.372372,1320.838075,421.136778,-10451.849117
3704.374921,1167.697429,1186.840010,-9360.722011
3704.377470,2679.961312,-3541.377448,-10643.274925
3704.380019,1646.261949,4153.940034,-9781.858789
3704.382568,2967.100024,459.421939,-9533.005238
3704.385118,-1875.972918,-267.996131,-9973.284597
3704.387667,325.423874,153.140646,-10336.993632
3704.390216,1071.984525,803.988394,-9877.571693
3704.392765,1359.123237,593.420005,-10126.425243
3704.395314,1225.125171,765.703232,-9801.001370
3704.397863,1301.695494,-535.992262,-9667.003304
3704.400412,-133.998066,-57.427742,-10107.282662
3704.402961,344.566454,1703.689691,-10088.140082
3704.405510,1665.404530,-114.855485,-10068.997501
3704.408059,1722.832272,172.283227,-9686.145885
3704.410608,1320.838075,-114.855485,-9494.720077
3704.413157,-765.703232,-631.705166,-10126.425243
3704.415706,2794.816797,-937.986459,-10662.417506
3704.418260,1531.406464,2909.672282,-9073.583299
3704.420813,2507.678085,-2660.818731,-10222.138147
3704.423367,-1837.687757,2488.535504,-9552.147819
3704.425920,1339.980656,-2029.113565,-10758.130410
3704.428474,803.988394,0.000000,-10011.569758
3704.431027,-2852.244539,3637.090352,-9686.145885
3704.433581,-918.843878,1301.695494,-9896.714274
3704.436134,191.425808,3464.807125,-9035.298138
3704.438688,2507.678085,-2143.969050,-10432.706536
3704.441241,344.566454,631.705166,-9973.284597
3704.443795,-1014.556782,1416.550979,-9934.999435
3704.446348,-1493.121302,1703.689691,-9839.286531
3704.448902,114.855485,2890.529701,-9456.434915
3704.451455,861.416136,-287.138712,-10336.993632
3704.454009,535.992262,95.712904,-9954.142016
3704.456562,-650.847747,2526.820666,-9533.005238
3704.459116,-937.986459,-210.568389,-10624.132344
3704.461669,-267.996131,2239.681954,-9839.286531
3704.464223,191.425808,2928.814862,-9475.577496
3704.466776,2277.967115,0.000000,-10260.423309
3704.469330,-1684.547110,2986.242605,-9322.436850
3704.471883,-1473.978722,-1493.121302,-10470.991698
3704.474437,-57.427742,669.990328,-10317.851051
3704.476990,1454.836141,880.558717,-9475.577496
3704.479544,3445.664544,-2622.533570,-10317.851051
3704.482097,1129.412267,3790.230998,-9341.579430
3704.484651,1761.117434,-1531.406464,-10241.280728
3704.487204,497.707101,-1071.984525,-9934.999435
3704.489758,-267.996131,-363.709035,-10298.708470
3704.492311,76.570323,1914.258080,-9686.145885
3704.494865,2182.254211,1339.980656,-9762.716208
3704.497418,2029.113565,114.855485,-9877.571693
3704.499975,861.416136,1205.982590,-9379.864592
3704.502533,-229.710970,-229.710970,-10126.425243
3704.505090,478.564520,516.849682,-10202.995566
3704.507647,1875.972918,1129.412267,-9858.429112
3704.510205,1148.554848,-363.709035,-9973.284597
3704.512762,1493.121302,-765.703232,-9743.573627
3704.515320,-478.564520,-133.998066,-9609.575562
3704.517877,2163.111630,-593.420005,-10432.706536
3704.520434,1818.545176,2507.678085,-9245.866526
3704.522992,1761.117434,-727.418070,-9724.431046
3704.525549,-1110.269686,3235.096155,-9609.575562
3704.528106,1205.982590,-1569.691626,-10815.558152
3704.530664,650.847747,1952.543242,-9245.866526
3704.533221,-2124.826469,3254.238736,-9858.429112
3704.535779,-1627.119368,1875.972918,-10145.567824
3704.538336,19.142581,2947.957443,-9016.155557
3704.540893,2431.107762,-2584.248408,-10470.991698
3704.543451,382.851616,-76.570323,-10222.138147
3704.546008,-1359.123237,2431.107762,-9552.147819
3704.548565,-1454.836141,976.271621,-10202.995566
3704.551123,784.845813,1761.117434,-9762.716208
3704.553680,1454.836141,976.271621,-9686.145885
3704.556238,-421.136778,-210.568389,-10126.425243
3704.558795,114.855485,1339.980656,-9743.573627
3704.561352,-1186.840010,1971.685822,-9934.999435
3704.563910,-765.703232,1665.404530,-10222.138147
3704.566467,267.996131,2622.533570,-9628.718142
3704.569024,2526.820666,-1263.410333,-9820.143950
3704.571582,-1875.972918,3694.518094,-9418.149754
3704.574139,-2909.672282,957.129040,-10566.704602
3704.576696,1512.263883,478.564520,-9896.714274
3704.579254,746.560651,1148.554848,-9628.718142
3704.581811,2890.529701,-3713.660675,-10604.989763
3704.584369,1646.261949,3981.656806,-8863.014910
3704.586926,1722.832272,-1244.267752,-10317.851051
3704.589483,-516.849682,631.705166,-9609.575562
3704.592041,382.851616,133.998066,-10241.280728
3704.594598,1225.125171,555.134843,-10260.423309
3704.597155,1148.554848,918.843878,-9571.290400
3704.599713,1722.832272,114.855485,-9781.858789
3704.602274,401.994197,1761.117434,-9552.147819
3704.604834,19.142581,-823.130974,-10202.995566
3704.607395,957.129040,1301.695494,-9781.858789
3704.609956,1320.838075,267.996131,-10145.567824
3704.612517,1110.269686,-535.992262,-9801.001370
3704.615077,899.701298,-612.562586,-9743.573627
3704.617638,-38.285162,2565.105827,-9705.288466
3704.620199,2124.826469,-2947.957443,-10777.272990
3704.622760,2545.963246,-421.136778,-9877.571693
3704.625320,995.414202,382.851616,-9820.143950
3704.627881,-363.709035,2488.535504,-9418.149754
3704.630442,880.558717,2871.387120,-9533.005238
3704.633003,842.273555,-1454.836141,-10470.991698
3704.635563,-4441.078746,3407.379382,-9667.003304
3704.638124,-440.279358,-880.558717,-10643.274925
3704.640685,2565.105827,1339.980656,-9245.866526
3704.643246,1493.121302,1856.830338,-9399.007173
3704.645806,-593.420005,-631.705166,-10490.134278
3704.648367,-1110.269686,2699.103893,-9437.292334
3704.650928,-516.849682,1914.258080,-9820.143950
3704.653489,516.849682,-363.709035,-10432.706536
3704.656049,1569.691626,1703.689691,-9494.720077
3704.658610,-267.996131,689.132909,-9877.571693
3704.661171,-593.420005,-95.712904,-10470.991698
3704.663732,-1091.127106,3560.520029,-9437.292334
3704.666292,287.138712,2163.111630,-9781.858789
3704.668853,2411.965181,1225.125171,-9954.142016
3704.671414,-1493.121302,2431.107762,-9303.294269
3704.673975,-1359.123237,-1320.838075,-10490.134278
3704.676535,-2526.820666,3713.660675,-9762.716208
3704.679096,1856.830338,-3081.955509,-10509.276859
3704.681657,3541.377448,3158.525832,-8786.444587
3704.684218,1339.980656,3828.516160,-9188.438784
3704.686778,957.129040,-2354.537438,-10222.138147
3704.689339,1225.125171,-899.701298,-9801.001370
3704.691900,-325.423874,421.136778,-10145.567824
3704.694461,-516.849682,1378.265818,-9762.716208
3704.697021,2411.965181,2277.967115,-9513.862658
3704.699582,1856.830338,459.421939,-9992.427178
3704.702143,133.998066,-1378.265818,-9762.716208
3704.704686,440.279358,669.990328,-9743.573627
3704.707229,1091.127106,937.986459,-10222.138147
3704.709772,1895.115499,229.710970,-9839.286531
3704.712315,612.562586,842.273555,-9743.573627
3704.714858,1684.547110,-861.416136,-9667.003304
3704.717401,-1186.840010,1091.127106,-9533.005238
3704.719945,2335.394858,-2947.957443,-11160.124606
3704.722488,2354.537438,1205.982590,-9513.862658
3704.725031,1550.549045,-248.853550,-9647.860723
3704.727574,-1416.550979,3598.805190,-9571.290400
3704.730117,669.990328,2737.389054,-9590.432981
3704.732660,823.130974,-1225.125171,-10432.706536
3704.735203,-4421.936165,3349.951640,-9820.143950
3704.737746,287.138712,-401.994197,-10490.134278
3704.740289,1550.549045,4058.227130,-8843.872330
3704.742832,1818.545176,-325.423874,-10107.282662
3704.745375,267.996131,-803.988394,-10298.708470
3704.747918,-1129.412267,2718.246474,-9686.145885
3704.750461,-1588.834206,-153.140646,-10317.851051
3704.753005,1244.267752,1263.410333,-9954.142016
3704.755548,1454.836141,1397.408398,-9533.005238
3704.758091,-1837.687757,19.142581,-10011.569758
3704.760634,363.709035,1110.269686,-10202.995566
3704.763177,-1282.552914,3866.801322,-9322.436850
3704.765720,-478.564520,1014.556782,-9896.714274
3704.768263,2526.820666,2833.101958,-9609.575562
3704.770806,-1990.828403,4804.787781,-8652.446522
3704.773349,-1990.828403,-2450.250342,-11083.554283
3704.775892,-1493.121302,2986.242605,-9839.286531
3704.778435,1914.258080,-1550.549045,-9992.427178
3704.780978,3464.807125,-1129.412267,-10030.712339
3704.783521,1263.410333,3847.658741,-9265.009107
3704.786064,1473.978722,-2411.965181,-10222.138147
3704.788608,-133.998066,-1531.406464,-10049.854920
3704.791151,229.710970,784.845813,-9954.142016
3704.793694,95.712904,1397.408398,-9954.142016
3704.796237,2335.394858,1071.984525,-9762.716208
3704.798780,1416.550979,1359.123237,-9628.718142
3704.801323,306.281293,-1703.689691,-10107.282662
3704.803866,459.421939,248.853550,-9915.856854
3704.806414,669.990328,1244.267752,-10068.997501
3704.808962,842.273555,153.140646,-10279.565890
3704.811511,1933.400661,-267.996131,-9915.856854
3704.814059,842.273555,-287.138712,-9552.147819
3704.816607,612.562586,976.271621,-9762.716208
3704.819155,1799.402595,-1301.695494,-10738.987829
3704.821704,2871.387120,-1741.974853,-10164.710405
3704.824252,-535.992262,1052.841944,-9724.431046
3704.826800,1014.556782,880.558717,-9915.856854
3704.829348,861.416136,4555.934230,-9150.153622
3704.831896,76.570323,-1320.838075,-10451.849117
3704.834445,-3675.375514,3369.094221,-10145.567824
3704.836993,133.998066,153.140646,-10068.997501
3704.839541,2009.970984,363.709035,-9456.434915
3704.842089,1244.267752,1512.263883,-9705.288466
3704.844638,191.425808,-153.140646,-10241.280728
3704.847186,-1990.828403,2909.672282,-9437.292334
3704.849734,-631.705166,669.990328,-10049.854920
3704.852282,1933.400661,880.558717,-10030.712339
3704.854830,708.275490,1148.554848,-9762.716208
3704.857379,-1454.836141,1665.404530,-9839.286531
3704.859927,-1301.695494,650.847747,-10279.565890
3704.862475,-1014.556782,3158.525832,-9686.145885
3704.865023,306.281293,2124.826469,-9839.286531
3704.867572,2431.107762,-1627.119368,-10049.854920
3704.870120,-1512.263883,4173.082614,-9150.153622
3704.872668,-3177.668413,1512.263883,-10126.425243
3704.875216,1914.258080,-19.142581,-10241.280728
3704.877765,612.562586,2833.101958,-9341.579430
3704.880313,3024.527766,-5091.926493,-10777.272990
3704.882861,1512.263883,-440.279358,-10011.569758
3704.885409,2431.107762,669.990328,-9590.432981
3704.887957,-1741.974853,133.998066,-9839.286531
3704.890506,-76.570323,593.420005,-10375.278794
3704.893054,2048.256146,918.843878,-9877.571693
3704.895602,1454.836141,727.418070,-9686.145885
3704.898150,344.566454,1167.697429,-9743.573627
3704.900699,1339.980656,-1205.982590,-9954.142016
3704.903247,382.851616,631.705166,-9896.714274
3704.905795,689.132909,899.701298,-10298.708470
3704.908348,1282.552914,-267.996131,-9992.427178
3704.910900,2239.681954,287.138712,-9418.149754
3704.913453,-1627.119368,918.843878,-9762.716208
3704.916006,2871.387120,-3713.660675,-11006.983960
3704.918559,2182.254211,2488.535504,-9399.007173
3704.921111,1378.265818,-1607.976787,-10183.852986
3704.923664,-1205.982590,3120.240670,-9475.577496
3704.926217,1818.545176,-1052.841944,-10528.419440
3704.928769,976.271621,-1225.125171,-10336.993632
3704.931322,-4613.361973,3637.090352,-9820.143950
3704.933875,-76.570323,650.847747,-10202.995566
3704.936428,1014.556782,3158.525832,-9092.725880
3704.938980,1684.547110,-612.562586,-10088.140082
3704.941533,727.418070,-382.851616,-10241.280728
3704.944086,-1225.125171,1454.836141,-9781.858789
3704.946639,-976.271621,1378.265818,-9973.284597
3704.949191,631.705166,2909.672282,-9360.722011
3704.951744,593.420005,287.138712,-10011.569758
3704.954297,-440.279358,631.705166,-9820.143950
3704.956849,-306.281293,2124.826469,-9781.858789
3704.959402,-995.414202,1014.556782,-10451.849117
3704.961955,-440.279358,2775.674216,-9628.718142
3704.964508,3656.232933,421.136778,-9762.716208
3704.967060,-1684.547110,3732.803256,-9073.583299
3704.969613,-2545.963246,-593.420005,-10547.562021
3704.972166,-1186.840010,1856.830338,-10107.282662
3704.974719,880.558717,2124.826469,-9399.007173
3704.977271,3081.955509,-4536.791650,-10738.987829
3704.979824,1895.115499,2833.101958,-9399.007173
3704.982377,2143.969050,-478.564520,-9858.429112
3704.984929,-937.986459,-1301.695494,-10145.567824
3704.987482,76.570323,497.707101,-10241.280728
3704.990035,535.992262,1225.125171,-9915.856854
3704.992588,1339.980656,1148.554848,-9781.858789
3704.995140,1531.406464,19.142581,-9820.143950
3704.997693,1837.687757,248.853550,-9858.429112
3705.000246,-325.423874,325.423874,-9992.427178
3705.002798,842.273555,555.134843,-10107.282662
3705.005351,1665.404530,497.707101,-10088.140082
3705.007904,1378.265818,-976.271621,-9877.571693
3705.010461,-1186.840010,133.998066,-9513.862658
3705.013017,3330.809059,-2354.537438,-10758.130410
3705.015574,1799.402595,1263.410333,-9762.716208
3705.018131,1263.410333,-497.707101,-9820.143950
3705.020687,-976.271621,3541.377448,-9667.003304
3705.023244,1493.121302,-114.855485,-10049.854920
3705.025801,784.845813,133.998066,-9896.714274
3705.028357,-3771.088418,3062.812928,-10049.854920
3705.030914,-823.130974,1875.972918,-9992.427178
3705.033471,382.851616,3483.949706,-8997.012976
3705.036027,2009.970984,-1971.685822,-10356.136213
3705.038584,1205.982590,172.283227,-10107.282662
3705.041141,-1282.552914,1186.840010,-9954.142016
3705.043697,-937.986459,1263.410333,-10183.852986
3705.046254,459.421939,1588.834206,-9628.718142
3705.048811,2124.826469,267.996131,-9743.573627
3705.051367,-1282.552914,1014.556782,-9743.573627
3705.053924,-650.847747,1033.699363,-10222.138147
3705.056481,-1339.980656,2833.101958,-9781.858789
3705.059038,-153.140646,2143.969050,-9743.573627
3705.061594,2852.244539,-746.560651,-10088.140082
3705.064151,-1320.838075,4862.215523,-8690.731683
3705.066708,-2526.820666,2373.680019,-10068.997501
3705.069264,1550.549045,-516.849682,-10145.567824
3705.071821,555.134843,3751.945837,-8958.727814
3705.074378,3426.521963,-5570.491013,-11160.124606
3705.076934,1741.974853,1895.115499,-9590.432981
3705.079491,2277.967115,440.279358,-9647.860723
3705.082048,-1052.841944,-1454.836141,-10164.710405
3705.084604,363.709035,842.273555,-10183.852986
3705.087161,689.132909,727.418070,-10107.282662
3705.089718,1282.552914,899.701298,-9762.716208
3705.092274,918.843878,-516.849682,-9973.284597
3705.094831,1091.127106,669.990328,-9647.860723
3705.097388,210.568389,535.992262,-10183.852986
3705.099944,880.558717,-114.855485,-10356.136213
3705.102501,1473.978722,1531.406464,-9571.290400
3705.105058,1703.689691,-1627.119368,-10107.282662
3705.107614,-612.562586,1569.691626,-9609.575562
3705.110171,2565.105827,-2890.529701,-10681.560086
3705.112731,3024.527766,-2833.101958,-10643.274925
3705.115291,-191.425808,918.843878,-9839.286531
3705.117851,114.855485,2220.539373,-9571.290400
3705.120411,1225.125171,2909.672282,-9322.436850
3705.122971,440.279358,-248.853550,-10241.280728
3705.125531,-4957.928427,3426.521963,-9934.999435
3705.128091,76.570323,-650.847747,-10566.704602
3705.130651,1856.830338,3407.379382,-8939.585234
3705.133210,1875.972918,-574.277424,-10011.569758
3705.135770,-382.851616,-727.418070,-10375.278794
3705.138330,-1110.269686,3081.955509,-9418.149754
3705.140890,-708.275490,1818.545176,-9877.571693
3705.143450,1339.980656,957.129040,-9839.286531
3705.146010,937.986459,612.562586,-9437.292334
3705.148570,-1359.123237,1665.404530,-9762.716208
3705.151130,-823.130974,784.845813,-10375.278794
3705.153690,-746.560651,2545.963246,-9896.714274
3705.156250,1512.263883,2392.822600,-9667.003304
3705.158810,823.130974,-401.994197,-9226.723946
3705.161370,-1320.838075,-957.129040,-10413.563955
3705.163930,-2411.965181,3483.949706,-9915.856854
3705.166490,1512.263883,-3139.383251,-10643.274925
3705.169049,3483.949706,2469.392923,-9016.155557
3705.171609,2105.683888,784.845813,-9877.571693
3705.174169,1378.265818,-2641.676150,-10375.278794
3705.176729,1741.974853,-19.142581,-9590.432981
3705.179289,-1244.267752,803.988394,-10049.854920
3705.181849,-459.421939,612.562586,-10509.276859
3705.184409,1990.828403,1799.402595,-9456.434915
3705.186969,2258.824534,689.132909,-9762.716208
3705.189529,-535.992262,-1033.699363,-10068.997501
3705.192089,803.988394,38.285162,-10126.425243
3705.194649,1607.976787,784.845813,-10126.425243
3705.197209,1186.840010,976.271621,-9705.288466
3705.199769,1588.834206,-1320.838075,-10202.995566
3705.202328,-38.285162,1837.687757,-9245.866526
3705.204888,2718.246474,-3541.377448,-10700.702667
3705.207448,1359.123237,516.849682,-9801.001370
3705.210008,1741.974853,-325.423874,-9973.284597
3705.212568,-976.271621,2986.242605,-9628.718142
3705.215131,1244.267752,-995.414202,-10490.134278
3705.217693,1110.269686,-267.996131,-10145.567824
3705.220256,-4613.361973,3426.521963,-9877.571693
3705.222819,-631.705166,535.992262,-10336.993632
3705.225381,1071.984525,3292.523898,-9111.868461
3705.227944,2220.539373,-1033.699363,-10049.854920
3705.230506,153.140646,-19.142581,-10011.569758
3705.233069,-1301.695494,1665.404530,-9934.999435
3705.235632,-1550.549045,861.416136,-10011.569758
3705.238194,1205.982590,2277.967115,-9552.147819
3705.240757,1014.556782,746.560651,-9705.288466
3705.243320,-727.418070,1320.838075,-9494.720077
3705.245882,-1378.265818,1818.545176,-10049.854920
3705.248445,-1129.412267,2297.109696,-10126.425243
3705.251007,1952.543242,2316.252277,-9590.432981
3705.253570,287.138712,631.705166,-9724.431046
3705.256133,-1091.127106,497.707101,-10088.140082
3705.258695,-2890.529701,4019.941968,-9552.147819
3705.261258,2086.541307,-2813.959378,-10585.847182
3705.263820,3235.096155,1397.408398,-9456.434915
3705.266383,2048.256146,1799.402595,-9628.718142
3705.268946,1703.689691,-2928.814862,-10336.993632
3705.271508,1301.695494,-363.709035,-9705.288466
3705.274071,-784.845813,1148.554848,-10011.569758
3705.276633,-478.564520,229.710970,-10604.989763
3705.279196,2258.824534,2622.533570,-9437.292334
3705.281759,1205.982590,-38.285162,-9934.999435
3705.284321,765.703232,-1244.267752,-9973.284597
3705.286884,516.849682,918.843878,-9954.142016
3705.289447,708.275490,172.283227,-10202.995566
3705.292009,1435.693560,574.277424,-10049.854920
3705.294572,1531.406464,689.132909,-9628.718142
3705.297134,-210.568389,937.986459,-9437.292334
3705.299697,2871.387120,-3675.375514,-10681.560086
3705.302260,1684.547110,1531.406464,-9494.720077
3705.304822,1473.978722,-1071.984525,-10413.563955
3705.307385,-1148.554848,3196.810994,-9628.718142
3705.309947,1665.404530,1435.693560,-9571.290400
3705.312510,1186.840010,-459.421939,-9992.427178
3705.315073,-4383.651003,3330.809059,-9934.999435
3705.317625,-842.273555,995.414202,-10317.851051
3705.320191,918.843878,3196.810994,-9131.011042
3705.322756,1971.685822,-1052.841944,-10068.997501
3705.325321,574.277424,-363.709035,-10088.140082
3705.327886,-765.703232,2009.970984,-9743.573627
3705.330451,-1225.125171,-38.285162,-10375.278794
3705.333016,976.271621,3464.807125,-9265.009107
3705.335581,382.851616,880.558717,-9839.286531
3705.338146,-287.138712,114.855485,-9877.571693
3705.340711,-1071.984525,3158.525832,-9628.718142
3705.343276,-995.414202,2048.256146,-10336.993632
3705.345841,1856.830338,1301.695494,-10068.997501
3705.348406,-363.709035,3081.955509,-9073.583299
3705.350971,-995.414202,-1684.547110,-10624.132344
3705.353536,-2871.387120,4383.651003,-9590.432981
3705.356101,1493.121302,-2967.100024,-10528.419440
3705.358666,3713.660675,-1607.976787,-10356.136213
3705.361231,1550.549045,3407.379382,-9188.438784
3705.363796,1665.404530,-2871.387120,-10298.708470
3705.366361,1244.267752,-1378.265818,-9877.571693
3705.368926,-555.134843,1971.685822,-9858.429112
3705.371491,-153.140646,57.427742,-10585.847182
3705.374056,2124.826469,2756.531635,-9513.862658
3705.376621,1339.980656,-172.283227,-9762.716208
3705.379187,823.130974,-2105.683888,-10490.134278
3705.381752,57.427742,1052.841944,-9820.143950
3705.384317,880.558717,325.423874,-10183.852986
3705.386882,1531.406464,153.140646,-10279.565890
3705.389447,1397.408398,746.560651,-9341.579430
3705.392012,440.279358,803.988394,-9494.720077
3705.394577,2277.967115,-2105.683888,-10298.708470
3705.397142,2220.539373,-1684.547110,-10222.138147
3705.399707,210.568389,555.134843,-9954.142016
3705.402272,-459.421939,2890.529701,-9896.714274
3705.404837,1110.269686,4536.791650,-8939.585234
3705.407402,19.142581,-19.142581,-9896.714274
3705.409967,-4766.502619,3809.373579,-9820.143950
3705.412532,-172.283227,-401.994197,-10758.130410
3705.415097,2316.252277,2431.107762,-9016.155557
3705.417662,1703.689691,631.705166,-9418.149754
3705.420229,248.853550,-363.709035,-10183.852986
3705.422797,-1952.543242,3158.525832,-9590.432981
3705.425364,-133.998066,-689.132909,-10336.993632
3705.427931,1454.836141,2029.113565,-9647.860723
3705.430499,612.562586,344.566454,-9590.432981
3705.433066,-727.418070,937.986459,-9801.001370
3705.435633,-1052.841944,3330.809059,-9820.143950
3705.438200,-516.849682,1493.121302,-10279.565890
3705.440768,2239.681954,-1167.697429,-10183.852986
3705.443335,-689.132909,5398.207786,-8690.731683
3705.445902,-2450.250342,440.279358,-10375.278794
3705.448469,382.851616,1244.267752,-9686.145885
3705.451037,765.703232,4479.363907,-8920.442653
3705.453604,3158.525832,-5072.783912,-11428.120738
3705.456171,2163.111630,-114.855485,-9896.714274
3705.458739,2029.113565,1033.699363,-9303.294269
3705.461306,-1091.127106,-1244.267752,-10088.140082
3705.463873,344.566454,1569.691626,-10164.710405
3705.466440,497.707101,1627.119368,-10183.852986
3705.469008,2220.539373,153.140646,-9781.858789
3705.471575,267.996131,1473.978722,-9437.292334
3705.474142,459.421939,-2009.970984,-10336.993632
3705.476709,612.562586,2029.113565,-9858.429112
3705.479277,899.701298,823.130974,-10241.280728
3705.481844,1607.976787,-1397.408398,-10088.140082
3705.484411,306.281293,2967.100024,-8920.442653
3705.486979,2507.678085,-3885.943902,-10719.845248
3705.489546,1875.972918,229.710970,-9571.290400
3705.492113,1320.838075,-172.283227,-10222.138147
3705.494680,-1339.980656,1875.972918,-10030.712339
3705.497248,1071.984525,976.271621,-9628.718142
3705.499815,1933.400661,38.285162,-9781.858789
3705.502382,-4134.797453,3139.383251,-9781.858789
3705.504949,-1378.265818,2086.541307,-10068.997501
3705.507517,612.562586,2584.248408,-9437.292334
3705.510084,2852.244539,-1225.125171,-9896.714274
3705.512651,-401.994197,-57.427742,-9934.999435
3705.515219,-267.996131,76.570323,-10088.140082
3705.517786,-1205.982590,3369.094221,-9686.145885
3705.520353,306.281293,1129.412267,-9820.143950
3705.522922,861.416136,631.705166,-9724.431046
3705.525491,-957.129040,1741.974853,-9494.720077
3705.528059,-1225.125171,1320.838075,-9973.284597
3705.530628,-1320.838075,2201.396792,-10145.567824
3705.533197,2679.961312,880.558717,-9954.142016
3705.535765,-957.129040,4115.654872,-8977.870395
3705.538334,-1837.687757,363.709035,-10413.563955
3705.540903,-995.414202,2029.113565,-9820.143950
3705.543472,19.142581,1703.689691,-9858.429112
3705.546040,3637.090352,-4881.358104,-10968.698798
3705.548609,2009.970984,2392.822600,-9475.577496
3705.551178,2220.539373,-823.130974,-10030.712339
3705.553747,210.568389,-1359.123237,-9877.571693
3705.556315,-172.283227,1339.980656,-9973.284597
3705.558884,344.566454,995.414202,-10470.991698
3705.561453,1378.265818,1435.693560,-9762.716208
3705.564021,2124.826469,-248.853550,-9762.716208
3705.566590,1148.554848,76.570323,-9877.571693
3705.569159,76.570323,995.414202,-10145.567824
3705.571728,689.132909,-248.853550,-10624.132344
3705.574296,2182.254211,497.707101,-9801.001370
3705.576865,-287.138712,1646.261949,-9303.294269
3705.579434,2526.820666,-4249.652938,-10624.132344
3705.582003,2411.965181,976.271621,-9456.434915
3705.584571,1052.841944,-976.271621,-10202.995566
3705.587140,-1933.400661,2048.256146,-9973.284597
3705.589709,2392.822600,-803.988394,-9686.145885
3705.592277,1914.258080,765.703232,-9705.288466
3705.594846,-3943.371645,2603.390989,-9954.142016
3705.597415,-1914.258080,2641.676150,-9896.714274
3705.599984,765.703232,2469.392923,-9418.149754
3705.602552,2277.967115,-1435.693560,-10145.567824
3705.605121,-459.421939,287.138712,-9858.429112
3705.607690,-708.275490,1952.543242,-9628.718142
3705.610259,-842.273555,1933.400661,-9934.999435
3705.612827,497.707101,1569.691626,-9858.429112
3705.615396,899.701298,382.851616,-9801.001370
3705.617965,593.420005,555.134843,-9877.571693
3705.620533,-1684.547110,2048.256146,-9801.001370
3705.623102,-1186.840010,2143.969050,-10049.854920
3705.625672,2775.674216,-689.132909,-10336.993632
3705.628242,-516.849682,3598.805190,-9111.868461
3705.630812,-2909.672282,2813.959378,-9647.860723
3705.633382,1952.543242,-478.564520,-10126.425243
3705.635952,-19.142581,3713.660675,-8977.870395
3705.638521,2737.389054,-5857.629725,-11351.550414
3705.641091,2297.109696,803.988394,-10049.854920
3705.643661,2239.681954,555.134843,-9418.149754
3705.646231,-918.843878,-1378.265818,-9896.714274
3705.648801,535.992262,1473.978722,-10241.280728
3705.651371,1875.972918,2373.680019,-9781.858789
3705.653941,1110.269686,229.710970,-9858.429112
3705.656511,784.845813,-918.843878,-10011.569758
3705.659080,1129.412267,631.705166,-9418.149754
3705.661650,880.558717,574.277424,-10298.708470
3705.664220,478.564520,478.564520,-10413.563955
3705.666790,2545.963246,-210.568389,-9839.286531
3705.669360,746.560651,1703.689691,-9475.577496
3705.671930,2009.970984,-3369.094221,-10432.706536
3705.674500,2105.683888,-2565.105827,-10202.995566
3705.677070,172.283227,287.138712,-10470.991698
3705.679639,-287.138712,1971.685822,-9896.714274
3705.682209,1320.838075,3407.379382,-9111.868461
3705.684779,1339.980656,-267.996131,-10183.852986
3705.687349,-4843.072942,3024.527766,-9781.858789
3705.689919,-765.703232,478.564520,-10413.563955
3705.692489,2029.113565,2220.539373,-9552.147819
3705.695059,1933.400661,-229.710970,-9781.858789
3705.697629,-401.994197,-727.418070,-10164.710405
3705.700198,-880.558717,2335.394858,-9609.575562
3705.702768,-535.992262,2201.396792,-9820.143950
3705.705338,535.992262,1071.984525,-10107.282662
3705.707908,746.560651,1244.267752,-9705.288466
3705.710478,-401.994197,478.564520,-9820.143950
3705.713048,-1741.974853,2182.254211,-10011.569758
3705.715618,516.849682,2239.681954,-10126.425243
3705.718188,325.423874,957.129040,-9743.573627
3705.720757,-669.990328,-784.845813,-10317.851051
3705.723327,-2029.113565,3196.810994,-9724.431046
3705.725897,1856.830338,-2833.101958,-10279.565890
3705.728468,1818.545176,2354.537438,-9169.296203
3705.731040,1933.400661,421.136778,-10298.708470
3705.733611,2143.969050,-2813.959378,-10356.136213
3705.736182,2009.970984,172.283227,-9533.005238
3705.738753,-1378.265818,842.273555,-9877.571693
3705.741324,248.853550,765.703232,-10451.849117
3705.743896,1895.115499,1837.687757,-9647.860723
3705.746467,1799.402595,1933.400661,-9475.577496
3705.749038,229.710970,-1263.410333,-9839.286531
3705.751609,401.994197,95.712904,-10030.712339
3705.754180,1225.125171,1148.554848,-10088.140082
3705.756751,1569.691626,-95.712904,-10126.425243
3705.759323,19.142581,1014.556782,-9647.860723
3705.761894,3656.232933,-2469.392923,-10088.140082
3705.764465,2086.541307,937.986459,-9379.864592
3705.767036,995.414202,-2201.396792,-10432.706536
3705.769607,-1416.550979,2699.103893,-10011.569758
3705.772179,2431.107762,-957.129040,-10375.278794
3705.774750,1148.554848,2258.824534,-9131.011042
3705.777321,-2067.398726,2852.244539,-9552.147819
3705.779892,-2526.820666,4153.940034,-9762.716208
3705.782463,-421.136778,861.416136,-10030.712339
3705.785035,1933.400661,-650.847747,-9858.429112
3705.787606,1665.404530,574.277424,-9839.286531
3705.790177,-689.132909,593.420005,-9877.571693
3705.792748,-1531.406464,976.271621,-9896.714274
3705.795319,593.420005,2124.826469,-10011.569758
3705.797890,1225.125171,248.853550,-10049.854920
3705.800462,-172.283227,1493.121302,-9456.434915
3705.803033,-1282.552914,2526.820666,-9609.575562
3705.805604,-1167.697429,1914.258080,-10164.710405
3705.808175,1167.697429,-516.849682,-10183.852986
3705.810747,-478.564520,4000.799387,-9341.579430
3705.813319,-2411.965181,3579.662610,-9820.143950
3705.815891,2545.963246,-1301.695494,-10107.282662
3705.818463,382.851616,4402.793584,-8748.159426
3705.821035,2545.963246,-4785.645200,-11313.265253
3705.823607,2220.539373,-765.703232,-10126.425243
3705.826179,2143.969050,880.558717,-9533.005238
3705.828751,-937.986459,-1493.121302,-10068.997501
3705.831323,210.568389,2124.826469,-9877.571693
3705.833895,344.566454,1397.408398,-10279.565890
3705.836467,287.138712,-363.709035,-9954.142016
3705.839039,1607.976787,-516.849682,-9686.145885
3705.841611,976.271621,421.136778,-10011.569758
3705.844183,287.138712,248.853550,-10183.852986
3705.846755,1301.695494,1129.412267,-9915.856854
3705.849327,612.562586,-133.998066,-9992.427178
3705.851899,2833.101958,-2086.541307,-10183.852986
3705.854471,2086.541307,1435.693560,-8997.012976
3705.857043,1914.258080,-3024.527766,-10528.419440
3705.859615,-2182.254211,1741.974853,-9934.999435
3705.862187,2239.681954,-440.279358,-10547.562021
3705.864759,1359.123237,3158.525832,-9092.725880
3705.867331,-1244.267752,2354.537438,-9303.294269
3705.869903,-3426.521963,4689.932296,-9743.573627
3705.872475,-133.998066,-57.427742,-10451.849117
3705.875047,2373.680019,631.705166,-9513.862658
3705.877619,1167.697429,823.130974,-9647.860723
3705.880191,-421.136778,-1416.550979,-10470.991698
3705.882763,-784.845813,1359.123237,-9801.001370
3705.885335,-918.843878,3120.240670,-9667.003304
