#time,accel_x,accel_y,accel_z
243.687824,-57.427742,2105.683888,-9399.007173
243.691069,-803.988394,1435.693560,-9954.142016
243.694314,-1320.838075,1761.117434,-9360.722011
243.697559,-1435.693560,689.132909,-9839.286531
243.700803,401.994197,1186.840010,-9609.575562
243.704048,1856.830338,784.845813,-9207.581365
243.707293,2086.541307,765.703232,-9552.147819
243.710538,1033.699363,-57.427742,-9494.720077
243.713783,-95.712904,363.709035,-9820.143950
243.717028,-593.420005,1607.976787,-9743.573627
243.720273,-535.992262,650.847747,-9686.145885
243.723517,421.136778,1205.982590,-9399.007173
243.726762,727.418070,267.996131,-9820.143950
243.730007,1378.265818,1397.408398,-9341.579430
243.733252,1512.263883,-746.560651,-9590.432981
243.736497,880.558717,1588.834206,-9533.005238
243.739742,-1091.127106,401.994197,-9896.714274
243.742987,-363.709035,1493.121302,-9418.149754
243.746231,-1665.404530,1167.697429,-9877.571693
243.749476,-516.849682,325.423874,-9647.860723
243.752721,861.416136,976.271621,-9054.440718
243.755966,1052.841944,210.568389,-9762.716208
243.759211,899.701298,306.281293,-9513.862658
243.762456,2105.683888,287.138712,-9456.434915
243.765701,-516.849682,3732.803256,-9131.011042
243.768945,-861.416136,1741.974853,-9915.856854
243.772190,57.427742,-995.414202,-9858.429112
243.775435,1397.408398,-363.709035,-9705.288466
243.778693,937.986459,1512.263883,-9552.147819
243.781951,2775.674216,880.558717,-9437.292334
243.785209,957.129040,-612.562586,-9743.573627
243.788467,-440.279358,708.275490,-9628.718142
243.791725,-708.275490,784.845813,-9667.003304
243.794983,-401.994197,153.140646,-9877.571693
243.798241,1148.554848,0.000000,-9475.577496
243.801499,1588.834206,344.566454,-9686.145885
243.804757,1435.693560,803.988394,-9207.581365
243.808015,1454.836141,133.998066,-9590.432981
243.811273,1071.984525,133.998066,-9705.288466
243.814531,440.279358,421.136778,-9513.862658
243.817789,-248.853550,1186.840010,-9705.288466
243.821047,-765.703232,1052.841944,-9667.003304
243.824305,765.703232,612.562586,-9628.718142
243.827563,440.279358,1052.841944,-9571.290400
243.830821,1684.547110,574.277424,-9686.145885
243.834079,1607.976787,-191.425808,-9456.434915
243.837337,669.990328,631.705166,-9590.432981
243.840595,-689.132909,1703.689691,-9724.431046
243.843853,-497.707101,516.849682,-9552.147819
243.847111,-440.279358,1741.974853,-9494.720077
243.850369,995.414202,-210.568389,-10049.854920
243.853627,1320.838075,1741.974853,-8958.727814
243.856884,3005.385186,-1301.695494,-9609.575562
243.860142,3311.666478,-1225.125171,-9762.716208
243.863400,1205.982590,-382.851616,-9628.718142
243.866658,-1320.838075,1301.695494,-9341.579430
243.869916,-2545.963246,421.136778,-9686.145885
243.873174,708.275490,-2277.967115,-10451.849117
243.876432,2507.678085,114.855485,-9590.432981
243.879690,1263.410333,3062.812928,-9131.011042
243.882957,1110.269686,2335.394858,-9379.864592
243.886224,-172.283227,1435.693560,-9513.862658
243.889491,-976.271621,153.140646,-9896.714274
243.892758,-133.998066,669.990328,-9762.716208
243.896025,-803.988394,267.996131,-9781.858789
243.899292,-1052.841944,1512.263883,-9379.864592
243.902559,612.562586,1091.127106,-9781.858789
243.905826,1761.117434,1263.410333,-9456.434915
243.909093,1569.691626,555.134843,-9360.722011
243.912360,1071.984525,497.707101,-9571.290400
243.915627,-76.570323,631.705166,-9762.716208
243.918894,-440.279358,1091.127106,-9590.432981
243.922161,-593.420005,1301.695494,-9628.718142
243.925428,-19.142581,459.421939,-9647.860723
243.928695,325.423874,1186.840010,-9475.577496
243.931962,1550.549045,363.709035,-9647.860723
243.935229,1569.691626,727.418070,-9399.007173
243.938496,555.134843,-191.425808,-9647.860723
243.941762,-1225.125171,1914.258080,-9647.860723
243.945029,-1186.840010,497.707101,-9992.427178
243.948296,-1186.840010,784.845813,-9379.864592
243.951563,-172.283227,1244.267752,-9590.432981
243.954830,976.271621,363.709035,-9992.427178
243.958097,2220.539373,1263.410333,-9303.294269
243.961364,1263.410333,2258.824534,-9111.868461
243.964631,344.566454,2277.967115,-9494.720077
243.967898,-440.279358,631.705166,-9762.716208
243.971165,-612.562586,-765.703232,-10202.995566
243.974432,-823.130974,2469.392923,-9284.151688
243.977699,1129.412267,516.849682,-9820.143950
243.980966,1473.978722,669.990328,-9379.864592
243.984233,1665.404530,-631.705166,-9494.720077
243.987507,899.701298,-363.709035,-9781.858789
243.990782,229.710970,19.142581,-9705.288466
243.994056,1129.412267,516.849682,-9647.860723
243.997331,306.281293,899.701298,-9590.432981
244.000605,-459.421939,1014.556782,-9705.288466
244.003880,574.277424,1225.125171,-9533.005238
244.007154,1856.830338,497.707101,-9437.292334
244.010429,1359.123237,114.855485,-9571.290400
244.013704,1837.687757,57.427742,-9609.575562
244.016978,19.142581,976.271621,-9705.288466
244.020253,-440.279358,516.849682,-9494.720077
244.023527,-669.990328,1588.834206,-9494.720077
244.026802,267.996131,535.992262,-9858.429112
244.030076,248.853550,1378.265818,-9322.436850
244.033351,1531.406464,76.570323,-9609.575562
244.036625,2316.252277,1282.552914,-9341.579430
244.039900,631.705166,287.138712,-9647.860723
244.043174,267.996131,478.564520,-9552.147819
244.046449,-287.138712,1244.267752,-9896.714274
244.049723,344.566454,535.992262,-9571.290400
244.052998,1512.263883,-727.418070,-9686.145885
244.056272,2392.822600,-1110.269686,-9858.429112
244.059547,1148.554848,1512.263883,-8977.870395
244.062821,-535.992262,1971.685822,-9303.294269
244.066096,631.705166,-727.418070,-9762.716208
244.069370,1148.554848,-95.712904,-9781.858789
244.072645,-669.990328,2565.105827,-9552.147819
244.075919,-1167.697429,3120.240670,-9322.436850
244.079194,-823.130974,1607.976787,-9724.431046
244.082468,325.423874,918.843878,-9647.860723
244.085743,1473.978722,76.570323,-9456.434915
244.089017,1052.841944,-191.425808,-9590.432981
244.092297,-38.285162,1301.695494,-9571.290400
244.095577,248.853550,1148.554848,-9705.288466
244.098856,-555.134843,1531.406464,-9647.860723
244.102136,-612.562586,842.273555,-9609.575562
244.105416,76.570323,1129.412267,-9533.005238
244.108695,1531.406464,650.847747,-9513.862658
244.111975,1320.838075,842.273555,-9571.290400
244.115255,1665.404530,-229.710970,-9169.296203
244.118534,937.986459,1378.265818,-9705.288466
244.121814,-727.418070,191.425808,-10011.569758
244.125094,-535.992262,1493.121302,-9131.011042
244.128373,-497.707101,401.994197,-10030.712339
244.131653,-440.279358,1512.263883,-9418.149754
244.134933,631.705166,689.132909,-9437.292334
244.138212,1282.552914,133.998066,-9628.718142
244.141492,-57.427742,1167.697429,-9762.716208
244.144772,-1014.556782,421.136778,-9686.145885
244.148051,287.138712,516.849682,-9609.575562
244.151331,-765.703232,2258.824534,-9973.284597
244.154611,-440.279358,3254.238736,-9265.009107
244.157890,574.277424,1378.265818,-9379.864592
244.161170,1627.119368,-1416.550979,-9934.999435
244.164450,1799.402595,861.416136,-9341.579430
244.167729,2277.967115,-689.132909,-9686.145885
244.171009,497.707101,746.560651,-9494.720077
244.174289,-516.849682,363.709035,-9877.571693
244.177568,-478.564520,172.283227,-9820.143950
244.180848,-210.568389,57.427742,-9609.575562
244.184128,1378.265818,784.845813,-9571.290400
244.187408,2469.392923,746.560651,-9322.436850
244.190687,2029.113565,0.000000,-9513.862658
244.193967,76.570323,937.986459,-9724.431046
244.197260,631.705166,114.855485,-9686.145885
244.200543,-57.427742,1378.265818,-9533.005238
244.203826,-784.845813,937.986459,-9839.286531
244.207109,-248.853550,1320.838075,-9437.292334
244.210392,1569.691626,363.709035,-9437.292334
244.213675,1493.121302,1493.121302,-9552.147819
244.216958,1378.265818,-574.277424,-9571.290400
244.220241,1225.125171,842.273555,-9284.151688
244.223524,535.992262,497.707101,-10088.140082
244.226808,-1014.556782,1473.978722,-9322.436850
244.230091,-516.849682,861.416136,-9724.431046
244.233374,38.285162,823.130974,-9743.573627
244.236657,2048.256146,1301.695494,-9245.866526
244.239940,2718.246474,-1378.265818,-9571.290400
244.243223,2469.392923,-2488.535504,-9877.571693
244.246506,-248.853550,899.701298,-9686.145885
244.249789,-1895.115499,2794.816797,-9341.579430
244.253072,-1741.974853,1837.687757,-9456.434915
244.256355,478.564520,-535.992262,-9934.999435
244.259638,708.275490,2277.967115,-9533.005238
244.262921,1627.119368,2469.392923,-9341.579430
244.266205,1627.119368,2182.254211,-9016.155557
244.269488,1282.552914,-306.281293,-9628.718142
244.272771,76.570323,363.709035,-9762.716208
244.276054,-880.558717,669.990328,-9743.573627
244.279337,-861.416136,1320.838075,-9475.577496
244.282620,-1110.269686,1473.978722,-9647.860723
244.285903,-133.998066,784.845813,-9801.001370
244.289186,957.129040,1186.840010,-9437.292334
244.292469,1473.978722,-325.423874,-9418.149754
244.295752,1167.697429,1148.554848,-9571.290400
244.299035,-421.136778,-76.570323,-10088.140082
244.302321,-114.855485,1703.689691,-9303.294269
244.305606,-689.132909,210.568389,-10030.712339
244.308891,-210.568389,1588.834206,-9379.864592
244.312176,937.986459,421.136778,-9647.860723
244.315462,535.992262,765.703232,-9628.718142
244.318747,1033.699363,1244.267752,-9226.723946
244.322032,1225.125171,-880.558717,-9896.714274
244.325317,-861.416136,2182.254211,-9360.722011
244.328603,-1646.261949,765.703232,-9992.427178
244.331888,-861.416136,631.705166,-9513.862658
244.335173,-382.851616,669.990328,-9954.142016
244.338458,957.129040,2909.672282,-9418.149754
244.341744,918.843878,3101.098090,-8920.442653
244.345029,1110.269686,-1531.406464,-9915.856854
244.348314,535.992262,1301.695494,-9284.151688
244.351599,1722.832272,-918.843878,-10030.712339
244.354885,-19.142581,1186.840010,-9418.149754
244.358170,-172.283227,363.709035,-9743.573627
244.361455,229.710970,114.855485,-9724.431046
244.364740,1646.261949,516.849682,-9533.005238
244.368026,1952.543242,650.847747,-9609.575562
244.371311,2239.681954,880.558717,-9111.868461
244.374596,1071.984525,229.710970,-9647.860723
244.377881,-19.142581,1167.697429,-9667.003304
244.381167,-842.273555,669.990328,-9820.143950
244.384452,-669.990328,1052.841944,-9494.720077
244.387737,-555.134843,861.416136,-9667.003304
244.391023,976.271621,1071.984525,-9801.001370
244.394308,1607.976787,363.709035,-9399.007173
244.397593,1741.974853,114.855485,-9379.864592
244.400878,248.853550,1129.412267,-9743.573627
244.404164,1014.556782,-114.855485,-9686.145885
244.407363,-421.136778,1684.547110,-9533.005238
244.410562,-440.279358,842.273555,-9896.714274
244.413762,38.285162,1627.119368,-9456.434915
244.416961,1033.699363,555.134843,-9475.577496
244.420161,2124.826469,0.000000,-9513.862658
244.423360,3330.809059,-2947.957443,-10088.140082
244.426560,689.132909,-363.709035,-9513.862658
244.429759,-2852.244539,2718.246474,-9456.434915
244.432959,-1627.119368,2584.248408,-9667.003304
244.436158,38.285162,325.423874,-9743.573627
244.439357,-516.849682,1091.127106,-9590.432981
244.442557,880.558717,3177.668413,-9341.579430
244.445756,1282.552914,1895.115499,-9322.436850
244.448956,650.847747,-574.277424,-9781.858789
244.452155,918.843878,-172.283227,-9686.145885
244.455355,-535.992262,229.710970,-9762.716208
244.458554,-1129.412267,1512.263883,-9456.434915
244.461753,-478.564520,535.992262,-9934.999435
244.464953,459.421939,1205.982590,-9590.432981
244.468152,555.134843,382.851616,-9647.860723
244.471352,1339.980656,1225.125171,-9494.720077
244.474551,1282.552914,-306.281293,-9667.003304
244.477751,1129.412267,842.273555,-9590.432981
244.480950,-574.277424,861.416136,-9877.571693
244.484150,-727.418070,1263.410333,-9513.862658
244.487349,-516.849682,344.566454,-9801.001370
244.490548,-172.283227,1378.265818,-9667.003304
244.493748,765.703232,1225.125171,-9456.434915
244.496947,1110.269686,-555.134843,-9437.292334
244.500147,669.990328,1263.410333,-9533.005238
244.503346,-172.283227,172.283227,-9839.286531
244.506546,574.277424,746.560651,-9360.722011
244.509766,-976.271621,2545.963246,-9533.005238
244.512985,-803.988394,2737.389054,-9628.718142
244.516205,-995.414202,2641.676150,-9303.294269
244.519425,803.988394,-746.560651,-9820.143950
244.522645,1895.115499,1378.265818,-9092.725880
244.525865,2450.250342,631.705166,-9705.288466
244.529085,172.283227,1684.547110,-9379.864592
244.532304,267.996131,401.994197,-9609.575562
244.535524,-535.992262,-38.285162,-9762.716208
244.538744,-191.425808,440.279358,-9609.575562
244.541964,1205.982590,995.414202,-9647.860723
244.545184,1837.687757,727.418070,-9399.007173
244.548404,1550.549045,708.275490,-9150.153622
244.551623,1435.693560,210.568389,-9686.145885
244.554843,325.423874,57.427742,-9877.571693
244.558063,-38.285162,899.701298,-9494.720077
244.561283,-459.421939,1129.412267,-9667.003304
244.564503,-803.988394,1397.408398,-9762.716208
244.567723,-363.709035,535.992262,-9571.290400
244.570942,1684.547110,899.701298,-9513.862658
244.574162,1875.972918,325.423874,-9571.290400
244.577382,612.562586,631.705166,-9303.294269
244.580602,421.136778,823.130974,-9724.431046
244.583822,-516.849682,823.130974,-9915.856854
244.587058,440.279358,95.712904,-9533.005238
244.590294,1454.836141,-727.418070,-9762.716208
244.593530,1684.547110,1205.982590,-9686.145885
244.596766,1588.834206,1225.125171,-8997.012976
244.600002,248.853550,555.134843,-9379.864592
244.603238,1282.552914,-2641.676150,-10241.280728
244.606474,957.129040,57.427742,-9915.856854
244.609711,-497.707101,3158.525832,-9418.149754
244.612947,-2603.390989,3349.951640,-9322.436850
244.616183,-1856.830338,2679.961312,-9437.292334
244.619419,-153.140646,-708.275490,-9743.573627
244.622655,1837.687757,1722.832272,-9322.436850
244.625891,1588.834206,-19.142581,-9762.716208
244.629127,421.136778,153.140646,-9513.862658
244.632363,746.560651,-172.283227,-9896.714274
244.635599,-574.277424,1397.408398,-9896.714274
244.638836,-1167.697429,1378.265818,-9552.147819
244.642072,-38.285162,784.845813,-9571.290400
244.645308,937.986459,1033.699363,-9475.577496
244.648544,1148.554848,555.134843,-9571.290400
244.651780,1990.828403,650.847747,-9418.149754
244.655016,746.560651,210.568389,-9839.286531
244.658252,-1014.556782,1071.984525,-9513.862658
244.661488,-823.130974,478.564520,-9801.001370
244.664724,-1052.841944,1148.554848,-9705.288466
244.667961,172.283227,172.283227,-9609.575562
244.671197,593.420005,1282.552914,-9341.579430
244.674433,823.130974,1282.552914,-9533.005238
244.677669,-95.712904,593.420005,-9743.573627
244.680905,-95.712904,-95.712904,-9820.143950
244.684141,1397.408398,153.140646,-9647.860723
244.687377,-631.705166,3235.096155,-9552.147819
244.690626,-1091.127106,2565.105827,-9513.862658
244.693875,1052.841944,210.568389,-9571.290400
244.697124,2947.957443,-1129.412267,-9647.860723
244.700373,2373.680019,-1684.547110,-9686.145885
244.703622,1837.687757,-1167.697429,-9858.429112
244.706871,440.279358,-95.712904,-9705.288466
244.710120,-325.423874,133.998066,-9839.286531
244.713369,-153.140646,1397.408398,-9513.862658
244.716618,76.570323,861.416136,-9667.003304
244.719866,421.136778,1091.127106,-9494.720077
244.723115,1895.115499,803.988394,-9494.720077
244.726364,1627.119368,153.140646,-9475.577496
244.729613,535.992262,153.140646,-9552.147819
244.732862,765.703232,861.416136,-9705.288466
244.736111,-401.994197,937.986459,-9896.714274
244.739360,-1071.984525,1110.269686,-9494.720077
244.742609,669.990328,0.000000,-9628.718142
244.745858,1895.115499,1895.115499,-9379.864592
244.749107,1416.550979,765.703232,-9839.286531
244.752356,1588.834206,631.705166,-9111.868461
244.755605,1569.691626,-95.712904,-9705.288466
244.758854,765.703232,-497.707101,-9954.142016
244.762103,593.420005,-708.275490,-9667.003304
244.765352,-76.570323,1110.269686,-9475.577496
244.768600,-2220.539373,2775.674216,-9437.292334
244.771849,593.420005,-325.423874,-9877.571693
244.775098,2507.678085,-1263.410333,-9360.722011
244.778347,1186.840010,1761.117434,-9437.292334
244.781596,-1761.117434,4421.936165,-9169.296203
244.784845,-631.705166,2565.105827,-9456.434915
244.788094,-1110.269686,-306.281293,-9820.143950
244.791343,-535.992262,1569.691626,-9437.292334
244.794536,363.709035,1033.699363,-9667.003304
244.797729,1856.830338,784.845813,-9226.723946
244.800923,1780.260014,-440.279358,-9724.431046
244.804116,1895.115499,401.994197,-9456.434915
244.807309,574.277424,1167.697429,-9705.288466
244.810502,-957.129040,899.701298,-9647.860723
244.813696,-976.271621,650.847747,-9686.145885
244.816889,-401.994197,1320.838075,-9705.288466
244.820082,-76.570323,1052.841944,-9628.718142
244.823275,650.847747,899.701298,-9245.866526
244.826468,2067.398726,95.712904,-9628.718142
244.829662,210.568389,401.994197,-9820.143950
244.832855,937.986459,363.709035,-9341.579430
244.836048,-1129.412267,1225.125171,-9934.999435
244.839241,-1646.261949,2163.111630,-9590.432981
244.842434,-823.130974,497.707101,-9647.860723
244.845628,995.414202,-267.996131,-9839.286531
244.848821,2718.246474,612.562586,-9475.577496
244.852014,1627.119368,2545.963246,-9150.153622
244.855207,229.710970,2067.398726,-9360.722011
244.858401,133.998066,516.849682,-9820.143950
244.861594,1014.556782,-344.566454,-9724.431046
244.864787,172.283227,-1301.695494,-9954.142016
244.867980,325.423874,95.712904,-9762.716208
244.871173,1416.550979,-76.570323,-9628.718142
244.874367,1741.974853,-861.416136,-9456.434915
244.877560,1033.699363,1378.265818,-9513.862658
244.880753,1244.267752,-631.705166,-9609.575562
244.883946,382.851616,1780.260014,-9360.722011
244.887140,-497.707101,593.420005,-10298.708470
244.890333,-382.851616,1684.547110,-9131.011042
244.893526,535.992262,-210.568389,-9609.575562
244.896679,1129.412267,1741.974853,-9667.003304
244.899833,1607.976787,-191.425808,-9705.288466
244.902986,1933.400661,421.136778,-9150.153622
244.906139,229.710970,1129.412267,-9724.431046
244.909293,-287.138712,593.420005,-10107.282662
244.912446,-1110.269686,861.416136,-9686.145885
244.915599,631.705166,-669.990328,-9762.716208
244.918753,2335.394858,306.281293,-9590.432981
244.921906,2124.826469,1607.976787,-9437.292334
244.925059,1359.123237,363.709035,-9035.298138
244.928213,574.277424,-957.129040,-9801.001370
244.931366,669.990328,-2335.394858,-10241.280728
244.934519,-191.425808,1473.978722,-9513.862658
244.937672,-918.843878,2392.822600,-9513.862658
244.940826,-1684.547110,2967.100024,-9418.149754
244.943979,574.277424,746.560651,-9762.716208
244.947132,1473.978722,708.275490,-9284.151688
244.950286,1914.258080,325.423874,-9552.147819
244.953439,823.130974,306.281293,-9877.571693
244.956592,-612.562586,478.564520,-9801.001370
244.959746,-1110.269686,976.271621,-9437.292334
244.962899,-842.273555,1301.695494,-9647.860723
244.966052,-95.712904,1186.840010,-9820.143950
244.969206,1301.695494,823.130974,-9571.290400
244.972359,1263.410333,-38.285162,-9265.009107
244.975512,1339.980656,1110.269686,-9475.577496
244.978666,1244.267752,-555.134843,-10107.282662
244.981819,0.000000,1397.408398,-9226.723946
244.984972,-1416.550979,1033.699363,-9762.716208
244.988126,-784.845813,1110.269686,-9762.716208
244.991279,727.418070,497.707101,-9628.718142
244.994432,1282.552914,-57.427742,-9590.432981
244.997557,2220.539373,2124.826469,-9150.153622
245.000683,-172.283227,2584.248408,-9494.720077
245.003808,-497.707101,1167.697429,-9475.577496
245.006933,555.134843,-784.845813,-9896.714274
245.010058,-267.996131,248.853550,-10011.569758
245.013183,-1052.841944,3081.955509,-9437.292334
245.016308,1110.269686,1110.269686,-9705.288466
245.019433,2392.822600,-842.273555,-9322.436850
245.022558,2105.683888,-3158.525832,-10126.425243
245.025684,1607.976787,-1971.685822,-9705.288466
245.028809,459.421939,-421.136778,-10030.712339
245.031934,210.568389,1091.127106,-9724.431046
245.035059,-746.560651,516.849682,-9609.575562
245.038184,421.136778,1435.693560,-9399.007173
245.041309,1665.404530,401.994197,-9743.573627
245.044434,1665.404530,1301.695494,-9245.866526
245.047559,1952.543242,-153.140646,-9571.290400
245.050684,459.421939,248.853550,-9513.862658
245.053810,-133.998066,1799.402595,-9609.575562
245.056935,-459.421939,421.136778,-10126.425243
245.060060,-746.560651,1875.972918,-9016.155557
245.063185,-57.427742,-401.994197,-9973.284597
245.066310,1244.267752,1454.836141,-9456.434915
245.069435,3273.381317,-708.275490,-9781.858789
245.072560,2048.256146,-344.566454,-9475.577496
245.075685,957.129040,1167.697429,-9360.722011
245.078811,-248.853550,957.129040,-9839.286531
245.081936,-516.849682,-803.988394,-9839.286531
245.085061,248.853550,-1148.554848,-9820.143950
245.088186,880.558717,3292.523898,-8920.442653
245.091311,727.418070,2488.535504,-9667.003304
245.094436,-363.709035,1703.689691,-9341.579430
245.097542,-287.138712,803.988394,-9609.575562
245.100648,306.281293,1703.689691,-9513.862658
245.103753,-19.142581,1167.697429,-9437.292334
245.106859,-325.423874,612.562586,-10470.991698
245.109965,-1110.269686,1339.980656,-9188.438784
245.113070,248.853550,287.138712,-9226.723946
245.116176,2009.970984,1378.265818,-9762.716208
245.119282,1052.841944,-172.283227,-9934.999435
245.122387,2048.256146,306.281293,-9073.583299
245.125493,401.994197,287.138712,-9992.427178
245.128599,-555.134843,1148.554848,-9724.431046
245.131704,-1359.123237,1435.693560,-9628.718142
245.134810,306.281293,133.998066,-9781.858789
245.137916,133.998066,899.701298,-9245.866526
245.141022,2258.824534,57.427742,-9647.860723
245.144127,784.845813,1722.832272,-9341.579430
245.147233,-516.849682,497.707101,-9954.142016
245.150339,-918.843878,0.000000,-9437.292334
245.153444,-650.847747,-191.425808,-10164.710405
245.156550,-229.710970,2354.537438,-9552.147819
245.159656,-555.134843,3885.943902,-8863.014910
245.162761,1148.554848,76.570323,-9686.145885
245.165867,2048.256146,306.281293,-9456.434915
245.168973,2354.537438,1225.125171,-9839.286531
245.172078,1550.549045,1837.687757,-9073.583299
245.175184,114.855485,918.843878,-9628.718142
245.178290,-727.418070,-478.564520,-9628.718142
245.181396,-95.712904,325.423874,-9801.001370
245.184501,1665.404530,1684.547110,-9494.720077
245.187607,1378.265818,191.425808,-9245.866526
245.190713,2009.970984,95.712904,-9399.007173
245.193818,976.271621,746.560651,-10088.140082
245.196916,-401.994197,344.566454,-9820.143950
245.200009,-497.707101,1052.841944,-8863.014910
245.203102,-1071.984525,899.701298,-10241.280728
245.206195,344.566454,937.986459,-9705.288466
245.209288,727.418070,937.986459,-9169.296203
245.212381,1971.685822,76.570323,-9360.722011
245.215474,937.986459,574.277424,-9762.716208
245.218567,2182.254211,-1110.269686,-9781.858789
245.221659,1665.404530,-478.564520,-9513.862658
245.224752,-229.710970,1359.123237,-9686.145885
245.227845,-401.994197,2029.113565,-9092.725880
245.230938,1091.127106,-957.129040,-9877.571693
245.234031,1569.691626,-2335.394858,-10107.282662
245.237124,2565.105827,497.707101,-9265.009107
245.240217,325.423874,2258.824534,-9284.151688
245.243310,-2258.824534,2756.531635,-9762.716208
245.246403,-2163.111630,1454.836141,-9858.429112
245.249496,-440.279358,-76.570323,-9686.145885
245.252589,-19.142581,1952.543242,-9322.436850
245.255681,995.414202,899.701298,-10336.993632
245.258774,957.129040,210.568389,-9150.153622
245.261867,1550.549045,478.564520,-8882.157491
245.264960,267.996131,708.275490,-10202.995566
245.268053,612.562586,842.273555,-9609.575562
245.271146,-669.990328,918.843878,-9437.292334
245.274239,-765.703232,746.560651,-9686.145885
245.277332,-555.134843,1244.267752,-9418.149754
245.280425,1799.402595,344.566454,-9801.001370
245.283518,1493.121302,1646.261949,-9379.864592
245.286611,1493.121302,-459.421939,-9552.147819
245.289703,-593.420005,1378.265818,-9341.579430
245.292796,-1378.265818,421.136778,-10260.423309
245.295932,-38.285162,1531.406464,-9590.432981
245.299067,-1014.556782,2277.967115,-9399.007173
245.302203,-708.275490,2584.248408,-9513.862658
245.305338,1091.127106,918.843878,-9647.860723
245.308474,1780.260014,-1665.404530,-10030.712339
245.311609,459.421939,2297.109696,-8939.585234
245.314745,2163.111630,1895.115499,-9705.288466
245.317880,669.990328,1703.689691,-9475.577496
245.321015,-421.136778,-2048.256146,-10030.712339
245.324151,-267.996131,-2182.254211,-10068.997501
245.327286,823.130974,459.421939,-9609.575562
245.330422,1205.982590,1684.547110,-9762.716208
245.333557,2277.967115,-229.710970,-9379.864592
245.336693,1129.412267,-153.140646,-9131.011042
245.339828,287.138712,1225.125171,-10107.282662
245.342964,-784.845813,957.129040,-10164.710405
245.346099,-574.277424,861.416136,-9131.011042
245.349234,-957.129040,784.845813,-9686.145885
245.352370,842.273555,1052.841944,-9839.286531
245.355505,2201.396792,306.281293,-9628.718142
245.358641,1167.697429,-19.142581,-9245.866526
245.361776,-153.140646,1052.841944,-9552.147819
245.364912,1129.412267,650.847747,-9877.571693
245.368047,593.420005,-631.705166,-9647.860723
245.371183,669.990328,-1129.412267,-9801.001370
245.374318,497.707101,2048.256146,-9226.723946
245.377454,-880.558717,2029.113565,-9801.001370
245.380589,1933.400661,-1148.554848,-9686.145885
245.383724,2354.537438,-2067.398726,-9609.575562
245.386860,-191.425808,1914.258080,-9552.147819
245.389995,-3139.383251,4077.369710,-9647.860723
245.393131,-2143.969050,957.129040,-9973.284597
245.396300,-440.279358,-669.990328,-9437.292334
245.399469,478.564520,1741.974853,-9226.723946
245.402638,1627.119368,1129.412267,-10279.565890
245.405807,1263.410333,-555.134843,-9188.438784
245.408976,1933.400661,-172.283227,-9150.153622
245.412145,382.851616,344.566454,-10394.421374
245.415315,-172.283227,1167.697429,-9456.434915
245.418484,-689.132909,1014.556782,-9762.716208
245.421653,-593.420005,631.705166,-9762.716208
245.424822,-401.994197,937.986459,-9647.860723
245.427991,784.845813,401.994197,-9801.001370
245.431160,1627.119368,1378.265818,-9131.011042
245.434329,650.847747,-421.136778,-10030.712339
245.437498,-976.271621,267.996131,-9571.290400
245.440668,-880.558717,2392.822600,-9456.434915
245.443837,-1818.545176,3598.805190,-9456.434915
245.447006,-1033.699363,1646.261949,-9437.292334
245.450175,1741.974853,-1378.265818,-9839.286531
245.453344,1856.830338,708.275490,-9399.007173
245.456513,248.853550,2660.818731,-9590.432981
245.459682,1799.402595,1952.543242,-9284.151688
245.462851,1665.404530,-1014.556782,-9915.856854
245.466021,229.710970,-1588.834206,-9992.427178
245.469190,-669.990328,-784.845813,-9781.858789
245.472387,555.134843,-784.845813,-10011.569758
245.475585,976.271621,2277.967115,-9724.431046
245.478783,1875.972918,-1263.410333,-9667.003304
245.481981,1454.836141,1799.402595,-8767.302006
245.485178,516.849682,-899.701298,-10624.132344
245.488376,-306.281293,2220.539373,-9284.151688
245.491574,-650.847747,95.712904,-9609.575562
245.494772,-478.564520,1914.258080,-9360.722011
245.497969,-306.281293,765.703232,-9628.718142
245.501167,2009.970984,306.281293,-9647.860723
245.504365,2029.113565,880.558717,-9207.581365
245.507563,2239.681954,-803.988394,-9341.579430
245.510761,1531.406464,1052.841944,-9456.434915
245.513958,-306.281293,133.998066,-10394.421374
245.517156,631.705166,-1741.974853,-9896.714274
245.520354,650.847747,-612.562586,-9533.005238
245.523552,-267.996131,2029.113565,-9494.720077
245.526749,842.273555,2507.678085,-9475.577496
245.529947,2124.826469,-1550.549045,-9667.003304
245.533145,-325.423874,918.843878,-9284.151688
245.536343,-3139.383251,4843.072942,-9743.573627
245.539540,-918.843878,3081.955509,-9513.862658
245.542738,114.855485,-1244.267752,-9590.432981
245.545936,-363.709035,2775.674216,-9341.579430
245.549134,516.849682,-727.418070,-10470.991698
245.552331,1569.691626,1818.545176,-8250.452325
245.555529,1263.410333,-1110.269686,-10202.995566
245.558727,1129.412267,995.414202,-9265.009107
245.561925,267.996131,842.273555,-9533.005238
245.565122,-861.416136,803.988394,-10107.282662
245.568320,-248.853550,1091.127106,-9131.011042
245.571518,210.568389,612.562586,-9705.288466
245.574739,861.416136,1703.689691,-9705.288466
245.577960,1263.410333,-401.994197,-9552.147819
245.581182,689.132909,-382.851616,-9456.434915
245.584403,-440.279358,2584.248408,-9475.577496
245.587624,-1493.121302,1301.695494,-10126.425243
245.590845,-842.273555,-210.568389,-9743.573627
245.594067,440.279358,-440.279358,-9705.288466
245.597288,-153.140646,3139.383251,-9322.436850
245.600509,861.416136,2507.678085,-9494.720077
245.603730,2009.970984,95.712904,-9265.009107
245.606951,4039.084549,-1531.406464,-9724.431046
245.610173,1684.547110,19.142581,-9494.720077
245.613394,-574.277424,440.279358,-9762.716208
245.616615,-880.558717,-765.703232,-9915.856854
245.619836,-76.570323,1454.836141,-9207.581365
245.623058,1627.119368,612.562586,-9858.429112
245.652049,1741.974853,-1148.554848,-9686.145885
245.655270,-267.996131,1244.267752,-9494.720077
245.658491,-440.279358,57.427742,-10336.993632
245.661712,765.703232,-2297.109696,-10088.140082
245.664933,1359.123237,401.994197,-9169.296203
245.668155,612.562586,1607.976787,-9590.432981
245.671376,1607.976787,1799.402595,-9245.866526
245.674597,1837.687757,-2603.390989,-10068.997501
245.677838,-746.560651,976.271621,-9437.292334
245.681078,-3464.807125,4364.508422,-9667.003304
245.684319,-1033.699363,3024.527766,-9628.718142
245.687560,172.283227,-574.277424,-9303.294269
245.690800,-229.710970,1971.685822,-9456.434915
245.694041,1205.982590,669.990328,-10164.710405
245.697281,1627.119368,57.427742,-9016.155557
245.700522,746.560651,880.558717,-9418.149754
245.703763,229.710970,267.996131,-10030.712339
245.707003,325.423874,1914.258080,-9379.864592
245.710244,-1607.976787,287.138712,-10164.710405
245.713484,-229.710970,1186.840010,-9035.298138
245.716725,1205.982590,267.996131,-9667.003304
245.719966,1531.406464,1818.545176,-9705.288466
245.723206,287.138712,937.986459,-9265.009107
245.726447,-363.709035,-918.843878,-9743.573627
245.729687,191.425808,1550.549045,-9456.434915
245.732928,-1493.121302,3101.098090,-9858.429112
245.736169,-1359.123237,3254.238736,-8882.157491
245.739409,-516.849682,-191.425808,-9820.143950
245.742650,1014.556782,-382.851616,-10068.997501
245.745890,1071.984525,2258.824534,-9073.583299
245.749131,1646.261949,1359.123237,-9456.434915
245.752372,3139.383251,172.283227,-9456.434915
245.755612,555.134843,-2182.254211,-10260.423309
245.758853,-1167.697429,-842.273555,-9743.573627
245.762093,-727.418070,-478.564520,-9877.571693
245.765334,899.701298,2009.970984,-9552.147819
245.768575,727.418070,-784.845813,-9820.143950
245.771815,1493.121302,1761.117434,-8671.589102
245.775056,1091.127106,-612.562586,-10336.993632
245.778296,669.990328,1071.984525,-9533.005238
245.781552,-229.710970,669.990328,-9399.007173
245.784809,-823.130974,1320.838075,-9724.431046
245.788065,-708.275490,1646.261949,-9667.003304
245.791321,344.566454,-191.425808,-10068.997501
245.794577,2928.814862,823.130974,-8882.157491
245.797833,2220.539373,-114.855485,-9533.005238
245.801089,535.992262,1952.543242,-9360.722011
245.804345,1378.265818,-1205.982590,-10049.854920
245.807601,421.136778,-1741.974853,-9801.001370
245.810857,-976.271621,2450.250342,-9131.011042
245.814113,-229.710970,1588.834206,-9743.573627
245.817369,-287.138712,1205.982590,-9418.149754
245.820626,-153.140646,574.277424,-9647.860723
245.823882,-1129.412267,4498.506488,-8920.442653
245.827138,1225.125171,2354.537438,-9743.573627
245.830394,861.416136,-1205.982590,-9513.862658
245.833650,-248.853550,1837.687757,-9590.432981
245.836906,-1320.838075,19.142581,-10566.704602
245.840162,-38.285162,2143.969050,-8614.161360
245.843418,516.849682,133.998066,-10030.712339
245.846674,1052.841944,1129.412267,-9303.294269
245.849930,1091.127106,-842.273555,-9513.862658
245.853186,1875.972918,650.847747,-9647.860723
245.856442,-95.712904,344.566454,-9647.860723
245.859699,-669.990328,1703.689691,-9379.864592
245.862955,-401.994197,516.849682,-10222.138147
245.866211,-133.998066,957.129040,-9571.290400
245.869467,95.712904,1780.260014,-9188.438784
245.872723,-19.142581,2029.113565,-9360.722011
245.875979,957.129040,-440.279358,-9934.999435
245.879235,1339.980656,-401.994197,-9801.001370
245.882491,-1225.125171,3541.377448,-8901.300072
245.885760,-1359.123237,2737.389054,-9877.571693
245.889030,38.285162,1454.836141,-9705.288466
245.892299,2469.392923,248.853550,-9571.290400
245.895568,2565.105827,727.418070,-9245.866526
245.898837,1339.980656,-459.421939,-9456.434915
245.902106,1895.115499,-1837.687757,-9992.427178
245.905376,803.988394,1282.552914,-9360.722011
245.908645,95.712904,38.285162,-10088.140082
245.911914,-440.279358,1359.123237,-8939.585234
245.915183,-95.712904,516.849682,-9954.142016
245.918452,-574.277424,1837.687757,-9762.716208
245.921722,1110.269686,-459.421939,-9207.581365
245.924991,2163.111630,1033.699363,-9188.438784
245.928260,1378.265818,727.418070,-9973.284597
245.931529,-325.423874,114.855485,-9743.573627
245.934798,478.564520,478.564520,-9456.434915
245.938068,459.421939,401.994197,-9877.571693
245.941337,-823.130974,2335.394858,-9437.292334
245.944606,1205.982590,-1244.267752,-10030.712339
245.947875,2660.818731,-1493.121302,-9456.434915
245.951144,1110.269686,229.710970,-9360.722011
245.954414,1531.406464,1933.400661,-9016.155557
245.957683,612.562586,210.568389,-9781.858789
245.960952,-2029.113565,497.707101,-9954.142016
245.964221,-3885.943902,4192.225195,-9245.866526
245.967490,421.136778,3120.240670,-9781.858789
245.970760,631.705166,-306.281293,-9418.149754
245.974029,784.845813,1818.545176,-9207.581365
245.977298,1875.972918,344.566454,-10164.710405
245.980567,995.414202,172.283227,-9169.296203
245.983837,-19.142581,899.701298,-9399.007173
245.987106,-210.568389,976.271621,-10298.708470
245.990386,-803.988394,1263.410333,-9571.290400
245.993665,-765.703232,1091.127106,-9456.434915
245.996945,440.279358,478.564520,-9552.147819
246.000225,2143.969050,1071.984525,-9628.718142
246.003505,842.273555,1244.267752,-9647.860723
246.006785,401.994197,574.277424,-9150.153622
246.010065,727.418070,-344.566454,-9858.429112
246.013344,-1110.269686,3235.096155,-9322.436850
246.016624,-1435.693560,2622.533570,-9399.007173
246.019904,-1531.406464,1416.550979,-9513.862658
246.023184,-306.281293,-325.423874,-9877.571693
246.026464,1435.693560,1454.836141,-9379.864592
246.029744,2584.248408,2411.965181,-9092.725880
246.033023,3464.807125,-325.423874,-9877.571693
246.036303,1167.697429,-976.271621,-9552.147819
246.039583,-842.273555,-1033.699363,-9839.286531
246.042863,-650.847747,191.425808,-9801.001370
246.046143,-133.998066,1684.547110,-9781.858789
246.049423,918.843878,-306.281293,-9513.862658
246.052702,440.279358,1512.263883,-9092.725880
246.055982,1646.261949,-574.277424,-10241.280728
246.059262,2182.254211,1110.269686,-9379.864592
246.062542,172.283227,-114.855485,-9552.147819
246.065822,-918.843878,1454.836141,-9533.005238
246.069102,-957.129040,38.285162,-10413.563955
246.072382,650.847747,440.279358,-9590.432981
246.075661,1148.554848,1359.123237,-9188.438784
246.078941,1665.404530,133.998066,-9533.005238
246.082221,3005.385186,-2565.105827,-10068.997501
246.085501,1320.838075,-401.994197,-10107.282662
246.088781,172.283227,1952.543242,-9035.298138
246.092061,-516.849682,1531.406464,-9437.292334
246.121652,1244.267752,191.425808,-8939.585234
246.124940,1780.260014,823.130974,-9877.571693
246.128228,1359.123237,650.847747,-9839.286531
246.131516,516.849682,76.570323,-9360.722011
246.134804,-593.420005,1244.267752,-9647.860723
246.138092,-1205.982590,937.986459,-9743.573627
246.141380,-1684.547110,1837.687757,-9399.007173
246.144668,-325.423874,57.427742,-10145.567824
246.147955,2124.826469,1301.695494,-9341.579430
246.151243,555.134843,2297.109696,-8977.870395
246.154531,-287.138712,612.562586,-9762.716208
246.157819,478.564520,-650.847747,-9954.142016
246.161107,-784.845813,-459.421939,-10030.712339
246.164395,-1550.549045,2947.957443,-9188.438784
246.167683,478.564520,1914.258080,-9877.571693
246.170971,3522.234867,344.566454,-9609.575562
246.174259,1339.980656,-440.279358,-9571.290400
246.177547,1339.980656,-2067.398726,-9686.145885
246.180835,1435.693560,-1952.543242,-9858.429112
246.184123,803.988394,1148.554848,-9915.856854
246.187411,-421.136778,1282.552914,-9705.288466
246.190699,-746.560651,-57.427742,-9207.581365
246.193987,-650.847747,1569.691626,-10107.282662
246.197275,306.281293,325.423874,-10222.138147
246.200537,2029.113565,1244.267752,-8633.303941
246.203791,1454.836141,-708.275490,-9667.003304
246.207046,957.129040,1225.125171,-9667.003304
246.210300,2029.113565,-1167.697429,-10222.138147
246.213554,516.849682,421.136778,-9341.579430
246.216809,-1493.121302,1646.261949,-9303.294269
246.220063,497.707101,-937.986459,-10356.136213
246.223318,2431.107762,-363.709035,-9609.575562
246.226572,1990.828403,-191.425808,-9571.290400
246.229827,2143.969050,2622.533570,-8499.305875
246.233081,1416.550979,-306.281293,-9934.999435
246.236336,-1607.976787,363.709035,-9973.284597
246.239590,-3732.803256,3560.520029,-9379.864592
246.242845,38.285162,3369.094221,-9399.007173
246.246099,-38.285162,-76.570323,-9360.722011
246.249354,-76.570323,2163.111630,-9456.434915
246.252608,1091.127106,689.132909,-10260.423309
246.255863,1435.693560,-746.560651,-8882.157491
246.259117,1837.687757,727.418070,-9303.294269
246.262371,574.277424,-153.140646,-10700.702667
246.265626,-95.712904,1933.400661,-8901.300072
246.268880,-823.130974,0.000000,-9934.999435
246.272135,-708.275490,1761.117434,-9456.434915
246.275389,114.855485,803.988394,-9571.290400
246.278644,172.283227,-57.427742,-9992.427178
246.281898,2431.107762,1531.406464,-8939.585234
246.285153,210.568389,1837.687757,-9513.862658
246.288407,-765.703232,1703.689691,-9303.294269
246.291662,38.285162,-1205.982590,-10279.565890
246.294916,-1148.554848,287.138712,-9877.571693
246.298171,-1320.838075,2641.676150,-9322.436850
246.301425,1071.984525,1646.261949,-9667.003304
246.304690,3981.656806,669.990328,-9379.864592
246.307956,1780.260014,-899.701298,-9686.145885
246.311221,1110.269686,-1875.972918,-9494.720077
246.314487,574.277424,-1684.547110,-10145.567824
246.317752,478.564520,1569.691626,-9628.718142
246.321018,-535.992262,133.998066,-10011.569758
246.324283,-842.273555,2029.113565,-8729.016845
246.327549,-153.140646,0.000000,-10298.708470
246.330814,1186.840010,1799.402595,-9628.718142
246.334080,1780.260014,325.423874,-9303.294269
246.337345,1110.269686,-612.562586,-9552.147819
246.340611,1416.550979,918.843878,-9475.577496
246.343876,803.988394,287.138712,-10202.995566
246.347142,784.845813,57.427742,-9399.007173
246.350407,-95.712904,76.570323,-9456.434915
246.353673,191.425808,2163.111630,-9245.866526
246.356938,-38.285162,1339.980656,-10011.569758
246.360204,2871.387120,-1990.828403,-9858.429112
246.363469,2909.672282,-574.277424,-9092.725880
246.366735,248.853550,1014.556782,-9628.718142
246.370000,-3005.385186,2450.250342,-9743.573627
246.373266,-3617.947771,2124.826469,-9934.999435
246.376531,-593.420005,2201.396792,-9226.723946
246.379797,-650.847747,-669.990328,-9571.290400
246.383072,957.129040,2986.242605,-9552.147819
246.386348,1569.691626,-727.418070,-10432.706536
246.389623,1895.115499,650.847747,-8346.165229
246.392899,765.703232,-478.564520,-9858.429112
246.396175,114.855485,1359.123237,-10049.854920
246.399450,-535.992262,1033.699363,-9533.005238
246.402726,-1263.410333,325.423874,-9647.860723
246.406002,363.709035,2029.113565,-9054.440718
246.409277,-306.281293,-401.994197,-10662.417506
246.412553,1052.841944,2699.103893,-8863.014910
246.415829,803.988394,363.709035,-9437.292334
246.419104,287.138712,-784.845813,-9915.856854
246.422380,19.142581,1627.119368,-9513.862658
246.425655,-1129.412267,1761.117434,-9820.143950
246.428931,-1875.972918,2986.242605,-9169.296203
246.432207,421.136778,-19.142581,-10107.282662
246.435482,3081.955509,1780.260014,-9341.579430
246.438758,4402.793584,803.988394,-9341.579430
246.442034,1703.689691,38.285162,-9207.581365
246.445309,1646.261949,-669.990328,-9494.720077
246.448585,823.130974,38.285162,-9781.858789
246.451860,-574.277424,2277.967115,-9743.573627
246.455136,-1301.695494,-842.273555,-9437.292334
246.458412,861.416136,2622.533570,-8958.727814
246.461687,38.285162,133.998066,-10643.274925
246.464963,1263.410333,2239.681954,-8652.446522
246.468239,1990.828403,-1186.840010,-9628.718142
246.471514,1320.838075,1512.263883,-9475.577496
246.474790,363.709035,-650.847747,-10011.569758
246.478066,937.986459,-593.420005,-9571.290400
246.481341,248.853550,516.849682,-9418.149754
246.484617,-727.418070,1627.119368,-9494.720077
246.487900,784.845813,1205.982590,-9475.577496
246.491183,3062.812928,-1914.258080,-10509.276859
246.494467,3139.383251,-612.562586,-9111.868461
246.497750,1129.412267,727.418070,-9322.436850
246.501033,-2086.541307,1722.832272,-9839.286531
246.504316,-3254.238736,2813.959378,-9820.143950
246.507600,-459.421939,2029.113565,-9667.003304
246.510883,-1071.984525,689.132909,-8901.300072
246.514166,-669.990328,1301.695494,-10298.708470
246.517449,1282.552914,899.701298,-9896.714274
246.520733,2258.824534,-19.142581,-8767.302006
246.524016,1205.982590,746.560651,-9513.862658
246.527299,1205.982590,0.000000,-9896.714274
246.530582,612.562586,1895.115499,-9418.149754
246.533866,-957.129040,0.000000,-9896.714274
246.537149,-2163.111630,1607.976787,-9073.583299
246.540432,-95.712904,95.712904,-10107.282662
246.543715,1091.127106,861.416136,-9915.856854
246.546999,1148.554848,2813.959378,-8767.302006
246.550282,708.275490,478.564520,-9456.434915
246.553565,708.275490,38.285162,-9724.431046
246.556848,-918.843878,153.140646,-10451.849117
246.560132,-976.271621,2603.390989,-8901.300072
246.563415,401.994197,2086.541307,-9475.577496
246.566698,2182.254211,459.421939,-9954.142016
246.569981,1799.402595,-669.990328,-9533.005238
246.573265,1856.830338,-2163.111630,-9839.286531
246.576548,1761.117434,-38.285162,-9169.296203
246.579831,1914.258080,-191.425808,-10049.854920
246.583114,535.992262,1646.261949,-9590.432981
246.586398,-1359.123237,-421.136778,-9513.862658
246.589681,-478.564520,2297.109696,-9169.296203
246.592969,497.707101,172.283227,-10604.989763
246.596258,516.849682,1320.838075,-9073.583299
246.599546,880.558717,38.285162,-9303.294269
246.602834,2641.676150,-306.281293,-9762.716208
246.606122,2067.398726,593.420005,-9839.286531
246.609410,-765.703232,669.990328,-9475.577496
246.612699,-153.140646,1225.125171,-8958.727814
246.615987,0.000000,-1684.547110,-10470.991698
246.645581,363.709035,2641.676150,-9418.149754
246.648869,-229.710970,-535.992262,-10968.698798
246.652158,-172.283227,1914.258080,-8499.305875
246.655446,-1014.556782,-153.140646,-9781.858789
246.658734,-19.142581,2545.963246,-9839.286531
246.662022,1129.412267,133.998066,-9934.999435
246.665311,2469.392923,459.421939,-8958.727814
246.668599,19.142581,516.849682,-9437.292334
246.671887,133.998066,1320.838075,-9609.575562
246.675175,-421.136778,-114.855485,-10030.712339
246.678464,-995.414202,535.992262,-9801.001370
246.681752,-1033.699363,3101.098090,-9073.583299
246.685040,-1684.547110,2928.814862,-9533.005238
246.688328,-19.142581,937.986459,-9743.573627
246.691617,2316.252277,459.421939,-9399.007173
246.694905,3101.098090,1741.974853,-9111.868461
246.698197,2622.533570,1588.834206,-9456.434915
246.701490,803.988394,-306.281293,-9801.001370
246.704783,-1014.556782,-229.710970,-9437.292334
246.708075,-861.416136,-612.562586,-9896.714274
246.711368,191.425808,2852.244539,-9552.147819
246.714660,746.560651,-803.988394,-9801.001370
246.717953,1741.974853,2163.111630,-8843.872330
246.721245,2067.398726,-555.134843,-10470.991698
246.724538,1263.410333,1205.982590,-9169.296203
246.727830,-267.996131,-153.140646,-9303.294269
246.731123,-57.427742,1052.841944,-9743.573627
246.734415,-19.142581,1454.836141,-9762.716208
246.737708,-861.416136,153.140646,-9801.001370
246.741001,1722.832272,-1550.549045,-9513.862658
246.744293,2699.103893,-727.418070,-9877.571693
246.747586,535.992262,2239.681954,-9245.866526
246.750878,1091.127106,-918.843878,-9858.429112
246.754171,1416.550979,-1741.974853,-9934.999435
246.757463,-1167.697429,229.710970,-9743.573627
246.760756,-3541.377448,2450.250342,-9820.143950
246.764048,-1741.974853,3503.092286,-9475.577496
246.767341,1167.697429,899.701298,-9667.003304
246.770633,325.423874,1378.265818,-8709.874264
246.773926,1550.549045,612.562586,-10260.423309
246.777219,1148.554848,478.564520,-9743.573627
246.780511,574.277424,-191.425808,-8901.300072
246.783804,-574.277424,1473.978722,-9820.143950
246.787096,-1186.840010,708.275490,-10107.282662
246.790389,-344.566454,1091.127106,-9418.149754
246.793681,-593.420005,1033.699363,-9475.577496
246.796974,555.134843,478.564520,-9533.005238
246.800266,2029.113565,1110.269686,-9513.862658
246.803562,1378.265818,2029.113565,-9245.866526
246.806858,76.570323,1761.117434,-9245.866526
246.810154,19.142581,-708.275490,-9992.427178
246.813450,-1244.267752,995.414202,-9667.003304
246.816746,-1186.840010,2871.387120,-9667.003304
246.820042,689.132909,2507.678085,-9284.151688
246.823337,2986.242605,401.994197,-9494.720077
246.826633,2641.676150,-1320.838075,-9858.429112
246.829929,1071.984525,-1493.121302,-9609.575562
246.833225,842.273555,-1167.697429,-9858.429112
246.836521,1167.697429,2718.246474,-9533.005238
246.839817,-516.849682,-708.275490,-10336.993632
246.843112,-784.845813,2029.113565,-8422.735552
246.846408,-114.855485,-38.285162,-10413.563955
246.849704,1531.406464,1531.406464,-9552.147819
246.853000,1627.119368,-76.570323,-9131.011042
246.856296,2507.678085,478.564520,-9571.290400
246.859592,1627.119368,1550.549045,-9456.434915
246.862888,306.281293,-1129.412267,-10049.854920
246.866183,382.851616,-1244.267752,-9513.862658
246.869479,95.712904,-765.703232,-10126.425243
246.872775,-1607.976787,2699.103893,-9418.149754
246.876071,1091.127106,-382.851616,-9839.286531
246.879367,2794.816797,-1856.830338,-9743.573627
246.882663,1052.841944,669.990328,-9399.007173
246.885959,-1990.828403,1971.685822,-9667.003304
246.889254,-76.570323,2871.387120,-9513.862658
246.892550,-191.425808,459.421939,-9896.714274
246.895846,-1129.412267,976.271621,-8843.872330
246.899142,-669.990328,1225.125171,-10279.565890
246.902438,669.990328,918.843878,-10068.997501
246.905734,650.847747,172.283227,-8901.300072
246.909031,1895.115499,1033.699363,-9513.862658
246.912329,1263.410333,210.568389,-10068.997501
246.915627,880.558717,382.851616,-9399.007173
246.918924,-1473.978722,1761.117434,-9456.434915
246.922222,-1914.258080,1703.689691,-9475.577496
246.925519,-861.416136,114.855485,-9877.571693
246.928817,-382.851616,1818.545176,-9915.856854
246.932114,612.562586,2967.100024,-8939.585234
246.935412,2048.256146,-574.277424,-9552.147819
246.938710,1282.552914,-325.423874,-9647.860723
246.942007,1148.554848,784.845813,-9667.003304
246.945305,842.273555,2392.822600,-9456.434915
246.948602,1359.123237,1282.552914,-9399.007173
246.951900,172.283227,-1225.125171,-9992.427178
246.955198,-1359.123237,-1167.697429,-9724.431046
246.958495,382.851616,-1378.265818,-10107.282662
246.961793,1761.117434,2660.818731,-9245.866526
246.965090,1741.974853,-1359.123237,-9839.286531
246.968388,957.129040,1263.410333,-8709.874264
246.971686,1091.127106,-631.705166,-10719.845248
246.974983,-133.998066,1359.123237,-9437.292334
246.978281,-1512.263883,421.136778,-9131.011042
246.981578,229.710970,-76.570323,-10126.425243
246.984876,2086.541307,1454.836141,-9686.145885
246.988174,1856.830338,937.986459,-9475.577496
246.991471,1990.828403,1493.121302,-8556.733618
246.994769,2335.394858,-2009.970984,-10088.140082
246.998066,823.130974,382.851616,-9858.429112
247.001364,-650.847747,2699.103893,-8901.300072
247.004661,-248.853550,-172.283227,-9801.001370
247.007959,-2392.822600,1454.836141,-9705.288466
247.011257,-3024.527766,2335.394858,-9992.427178
247.014556,1129.412267,4536.791650,-8939.585234
247.017855,2450.250342,-995.414202,-9590.432981
247.021154,1473.978722,1473.978722,-8690.731683
247.024453,1895.115499,-1397.408398,-11006.983960
247.027752,325.423874,1665.404530,-8824.729749
247.031051,-957.129040,-38.285162,-9322.436850
247.034350,-1033.699363,1397.408398,-10011.569758
247.037649,57.427742,1646.261949,-9839.286531
247.040948,-1186.840010,746.560651,-9475.577496
247.044247,957.129040,784.845813,-9131.011042
247.047547,2392.822600,287.138712,-9724.431046
247.050846,-172.283227,3177.668413,-9284.151688
247.054145,-937.986459,612.562586,-9724.431046
247.057444,191.425808,-421.136778,-9609.575562
247.060743,-976.271621,669.990328,-9858.429112
247.064042,-1244.267752,2660.818731,-9781.858789
247.067341,1473.978722,2143.969050,-9379.864592
247.070640,3924.229064,-267.996131,-9628.718142
247.073939,2565.105827,-191.425808,-9303.294269
247.077238,1569.691626,-2258.824534,-10049.854920
247.080537,1129.412267,-1186.840010,-9781.858789
247.083836,38.285162,1435.693560,-9437.292334
247.087135,-440.279358,497.707101,-9992.427178
247.090434,-727.418070,1320.838075,-9188.438784
247.093734,-325.423874,765.703232,-9915.856854
247.097033,899.701298,1761.117434,-9686.145885
247.100332,1129.412267,-57.427742,-9379.864592
247.103631,2335.394858,76.570323,-9188.438784
247.106930,1244.267752,-669.990328,-10260.423309
247.110229,631.705166,2029.113565,-9226.723946
247.113528,-133.998066,803.988394,-9437.292334
247.116827,76.570323,-1225.125171,-9858.429112
247.120093,344.566454,1071.984525,-9667.003304
247.123359,1301.695494,2163.111630,-9456.434915
247.126625,1033.699363,1531.406464,-9016.155557
247.129891,497.707101,-114.855485,-9743.573627
247.133157,-1359.123237,2909.672282,-9303.294269
247.136423,-248.853550,2967.100024,-9705.288466
247.139689,421.136778,516.849682,-9494.720077
247.142955,-784.845813,880.558717,-9609.575562
247.146221,-957.129040,1225.125171,-10432.706536
247.149487,38.285162,727.418070,-9609.575562
247.152753,1359.123237,363.709035,-8920.442653
247.156019,1454.836141,803.988394,-9494.720077
247.159285,2679.961312,555.134843,-9743.573627
247.162551,899.701298,1359.123237,-9245.866526
247.165817,-1014.556782,306.281293,-9571.290400
247.169083,-823.130974,593.420005,-9475.577496
247.224163,2928.814862,-995.414202,-9418.149754
247.227403,1722.832272,95.712904,-10375.278794
247.230643,995.414202,1722.832272,-9188.438784
247.233882,248.853550,-650.847747,-9609.575562
247.237122,153.140646,-382.851616,-9399.007173
247.240362,-440.279358,803.988394,-10164.710405
247.243602,267.996131,2488.535504,-9265.009107
247.246842,2488.535504,-210.568389,-9341.579430
247.250082,650.847747,306.281293,-9686.145885
247.253322,-861.416136,3215.953574,-9111.868461
247.256562,306.281293,2833.101958,-9801.001370
247.259802,287.138712,1225.125171,-9169.296203
247.263041,-918.843878,-344.566454,-9418.149754
247.266281,-1014.556782,2143.969050,-10432.706536
247.269521,-1129.412267,-210.568389,-9896.714274
247.272761,765.703232,2048.256146,-8288.737486
247.276001,1454.836141,-306.281293,-10222.138147
247.279241,2143.969050,765.703232,-9552.147819
247.282481,1531.406464,-287.138712,-9628.718142
247.285721,-153.140646,1263.410333,-9341.579430
247.288961,-803.988394,746.560651,-9571.290400
247.292200,-1244.267752,344.566454,-10394.421374
247.295440,-1014.556782,3809.373579,-8977.870395
247.298680,650.847747,593.420005,-9609.575562
247.301920,631.705166,823.130974,-9552.147819
247.305160,2737.389054,708.275490,-9609.575562
247.308400,2660.818731,1397.408398,-9571.290400
247.311640,1703.689691,1646.261949,-9131.011042
247.314880,-57.427742,-1512.263883,-9992.427178
247.318120,-976.271621,-976.271621,-9724.431046
247.321359,-612.562586,-1225.125171,-10317.851051
247.324599,172.283227,3101.098090,-9207.581365
247.327815,1339.980656,-784.845813,-9877.571693
247.331031,842.273555,2622.533570,-8863.014910
247.334247,1933.400661,-861.416136,-10375.278794
247.337463,1378.265818,1282.552914,-9245.866526
247.340679,1052.841944,-516.849682,-9399.007173
247.343896,38.285162,-133.998066,-9973.284597
247.347112,-1052.841944,2794.816797,-9418.149754
247.350328,-421.136778,535.992262,-9858.429112
247.353544,1071.984525,-440.279358,-9322.436850
247.356760,1741.974853,478.564520,-9513.862658
247.359976,1684.547110,2469.392923,-9169.296203
247.363192,1339.980656,95.712904,-9303.294269
247.366408,-19.142581,-401.994197,-9590.432981
247.369624,-2354.537438,3120.240670,-9169.296203
247.372840,-1493.121302,3598.805190,-9858.429112
247.376056,-650.847747,612.562586,-9533.005238
247.379272,478.564520,229.710970,-9131.011042
247.382488,-248.853550,1091.127106,-10451.849117
247.385704,1110.269686,459.421939,-9226.723946
247.388920,2431.107762,1359.123237,-8939.585234
247.392136,899.701298,-937.986459,-10336.993632
247.395352,-497.707101,1186.840010,-9111.868461
247.398568,-267.996131,-344.566454,-10413.563955
247.401784,-1339.980656,2488.535504,-9341.579430
247.405000,-2105.683888,1684.547110,-9284.151688
247.408216,-210.568389,-1301.695494,-10432.706536
247.411432,2067.398726,2105.683888,-9150.153622
247.414648,1244.267752,1454.836141,-9571.290400
247.417864,1473.978722,2048.256146,-8939.585234
247.421080,1684.547110,-153.140646,-9896.714274
247.424296,1033.699363,1129.412267,-9896.714274
247.427512,363.709035,1895.115499,-9207.581365
247.430741,-401.994197,-937.986459,-10049.854920
247.433969,-918.843878,-133.998066,-9609.575562
247.437198,708.275490,-344.566454,-9973.284597
247.440426,1741.974853,2603.390989,-9399.007173
247.443655,1339.980656,-2048.256146,-9705.288466
247.446883,1971.685822,1952.543242,-8824.729749
247.450112,976.271621,-727.418070,-10738.987829
247.453340,344.566454,1588.834206,-9016.155557
247.456569,-708.275490,172.283227,-9437.292334
247.459797,344.566454,-133.998066,-10011.569758
247.463026,995.414202,-1225.125171,-10222.138147
247.466254,1493.121302,-172.283227,-9609.575562
247.469483,918.843878,2239.681954,-8671.589102
247.472711,2029.113565,-2220.539373,-10317.851051
247.475940,1091.127106,-631.705166,-9820.143950
247.479168,-918.843878,1263.410333,-9475.577496
247.482397,-2335.394858,2297.109696,-9456.434915
247.485625,-2277.967115,2584.248408,-9781.858789
247.488854,-133.998066,2086.541307,-9820.143950
247.492082,803.988394,-38.285162,-9131.011042
247.495311,1244.267752,1186.840010,-9418.149754
247.498539,1703.689691,229.710970,-9896.714274
247.501768,1761.117434,172.283227,-8901.300072
247.504996,478.564520,880.558717,-9781.858789
247.508236,-593.420005,363.709035,-9992.427178
247.511475,-823.130974,2392.822600,-9437.292334
247.514714,-1569.691626,1129.412267,-10068.997501
247.517954,-1110.269686,593.420005,-9322.436850
247.521193,784.845813,-267.996131,-10068.997501
247.524433,1225.125171,2373.680019,-9360.722011
247.527672,650.847747,1627.119368,-9111.868461
247.530912,1014.556782,-727.418070,-9781.858789
247.534151,842.273555,1167.697429,-9609.575562
247.537391,535.992262,1741.974853,-9820.143950
247.540630,631.705166,1703.689691,-9379.864592
247.543870,344.566454,-382.851616,-9628.718142
247.547109,-229.710970,-899.701298,-9877.571693
247.550348,842.273555,-478.564520,-9647.860723
247.553588,1952.543242,1627.119368,-9628.718142
247.556827,937.986459,-401.994197,-9456.434915
247.560067,76.570323,612.562586,-8939.585234
247.563306,440.279358,803.988394,-10643.274925
247.566546,-325.423874,172.283227,-9781.858789
247.569785,-478.564520,1875.972918,-8575.876198
247.573025,918.843878,-1014.556782,-10394.421374
247.576264,2947.957443,-57.427742,-9705.288466
247.579503,2258.824534,-478.564520,-9513.862658
247.582743,708.275490,1473.978722,-8863.014910
247.585982,1244.267752,-1052.841944,-9915.856854
247.589222,535.992262,-1110.269686,-10317.851051
247.592461,-1186.840010,1799.402595,-9265.009107
247.595701,-2411.965181,1780.260014,-9667.003304
247.598940,-2239.681954,2852.244539,-9781.858789
247.602180,133.998066,1588.834206,-9858.429112
247.605419,1875.972918,-57.427742,-9265.009107
247.608658,1665.404530,1071.984525,-9265.009107
247.611876,1071.984525,-612.562586,-10222.138147
247.615093,1205.982590,746.560651,-9341.579430
247.618311,-497.707101,-421.136778,-9896.714274
247.621528,-1014.556782,1837.687757,-9341.579430
247.624745,-478.564520,-114.855485,-10260.423309
247.627963,0.000000,2641.676150,-9169.296203
247.631180,-1091.127106,1110.269686,-9647.860723
247.634397,1225.125171,-650.847747,-9743.573627
247.637615,2029.113565,803.988394,-9360.722011
247.640832,-325.423874,2143.969050,-9533.005238
247.644049,574.277424,1971.685822,-9169.296203
247.647267,421.136778,401.994197,-10030.712339
247.650484,363.709035,1550.549045,-9513.862658
247.653701,497.707101,1225.125171,-9571.290400
247.656919,899.701298,-306.281293,-9667.003304
247.660136,1282.552914,-1799.402595,-9533.005238
247.663354,2143.969050,-306.281293,-9513.862658
247.666571,1588.834206,1512.263883,-9494.720077
247.669788,593.420005,-937.986459,-9762.716208
247.673006,-248.853550,2029.113565,-9073.583299
247.676223,-976.271621,-267.996131,-10624.132344
247.679440,-382.851616,1301.695494,-9150.153622
247.682658,574.277424,-708.275490,-9762.716208
247.685875,957.129040,2469.392923,-9322.436850
247.714669,-1148.554848,3120.240670,-9820.143950
247.717869,-229.710970,899.701298,-9265.009107
247.721068,-765.703232,1339.980656,-9839.286531
247.724267,535.992262,593.420005,-10088.140082
247.727467,1895.115499,516.849682,-8843.872330
247.730666,1722.832272,631.705166,-9475.577496
247.733865,-76.570323,287.138712,-9839.286531
247.737065,421.136778,-229.710970,-9628.718142
247.740264,-1473.978722,1799.402595,-9571.290400
247.743464,-2220.539373,1339.980656,-9743.573627
247.746663,-574.277424,95.712904,-9877.571693
247.749862,1531.406464,-191.425808,-10011.569758
247.753062,593.420005,3426.521963,-9016.155557
247.756261,2048.256146,727.418070,-9628.718142
247.759460,2124.826469,38.285162,-9475.577496
247.762660,1320.838075,1225.125171,-9609.575562
247.765859,95.712904,842.273555,-9686.145885
247.769058,-306.281293,-421.136778,-9628.718142
247.772258,-976.271621,-1665.404530,-10260.423309
247.775457,267.996131,1722.832272,-9226.723946
247.778657,1684.547110,306.281293,-9915.856854
247.781856,2086.541307,899.701298,-8863.014910
247.785055,1971.685822,-842.273555,-9724.431046
247.788255,1607.976787,1263.410333,-9686.145885
247.791454,267.996131,287.138712,-9647.860723
247.794653,325.423874,-401.994197,-9762.716208
247.797853,-574.277424,2488.535504,-9169.296203
247.801052,-593.420005,1665.404530,-9877.571693
247.804251,516.849682,574.277424,-9418.149754
247.807451,1971.685822,-880.558717,-9590.432981
247.810650,1607.976787,2067.398726,-8882.157491
247.813850,880.558717,765.703232,-9724.431046
247.817034,133.998066,153.140646,-9762.716208
247.820218,-1818.545176,3043.670347,-9111.868461
247.823402,-1378.265818,3254.238736,-9667.003304
247.826586,-727.418070,363.709035,-9667.003304
247.829771,516.849682,421.136778,-9379.864592
247.832955,57.427742,861.416136,-10260.423309
247.836139,1435.693560,57.427742,-8958.727814
247.839323,2048.256146,1473.978722,-8920.442653
247.842508,344.566454,-593.420005,-10681.560086
247.845692,-689.132909,1301.695494,-9265.009107
247.848876,-957.129040,516.849682,-9705.288466
247.852060,-2450.250342,2775.674216,-9552.147819
247.855245,-1129.412267,440.279358,-9858.429112
247.858429,1148.554848,-382.851616,-9934.999435
247.861613,1186.840010,3369.094221,-8499.305875
247.864797,1531.406464,-574.277424,-10202.995566
247.867981,2450.250342,842.273555,-9150.153622
247.871166,1665.404530,38.285162,-9762.716208
247.874350,287.138712,957.129040,-9533.005238
247.877534,-421.136778,631.705166,-9513.862658
247.880718,-57.427742,-1014.556782,-10107.282662
247.883903,-440.279358,2297.109696,-9092.725880
247.887087,880.558717,-631.705166,-10279.565890
247.890271,2277.967115,1780.260014,-8614.161360
247.893455,1493.121302,-842.273555,-10107.282662
247.896639,421.136778,2048.256146,-9762.716208
247.899824,535.992262,-76.570323,-9590.432981
247.903008,363.709035,-344.566454,-9762.716208
247.906192,708.275490,114.855485,-9724.431046
247.909376,191.425808,1148.554848,-9781.858789
247.912561,1378.265818,1110.269686,-9284.151688
247.915745,1531.406464,-1607.976787,-10222.138147
247.918946,2086.541307,-287.138712,-9188.438784
247.922147,861.416136,880.558717,-9533.005238
247.925348,-803.988394,1397.408398,-9839.286531
247.928548,-2411.965181,2641.676150,-9341.579430
247.931749,-823.130974,1952.543242,-9590.432981
247.934950,-880.558717,-133.998066,-9609.575562
247.938151,133.998066,1646.261949,-9609.575562
247.941352,1301.695494,669.990328,-10107.282662
247.944553,1914.258080,0.000000,-9073.583299
247.947754,1914.258080,306.281293,-9437.292334
247.950955,459.421939,708.275490,-10107.282662
247.954156,-612.562586,2067.398726,-9226.723946
247.957357,-574.277424,-823.130974,-9896.714274
247.960557,-1359.123237,3522.234867,-8997.012976
247.963758,-1818.545176,2545.963246,-9858.429112
247.966959,708.275490,803.988394,-9609.575562
247.970160,2201.396792,287.138712,-9303.294269
247.973361,1971.685822,1014.556782,-9513.862658
247.976562,1531.406464,2258.824534,-9245.866526
247.979763,1607.976787,-823.130974,-10107.282662
247.982964,248.853550,-746.560651,-9533.005238
247.986165,-1071.984525,-1895.115499,-10049.854920
247.989365,0.000000,133.998066,-9915.856854
247.992566,842.273555,1952.543242,-9552.147819
247.995767,1761.117434,248.853550,-9743.573627
247.998968,1703.689691,784.845813,-8901.300072
248.002169,1531.406464,95.712904,-10126.425243
248.005370,1129.412267,1148.554848,-9686.145885
248.008571,555.134843,-803.988394,-9552.147819
248.011772,-937.986459,1895.115499,-9303.294269
248.014973,-459.421939,1588.834206,-9839.286531
248.018174,478.564520,-708.275490,-10068.997501
248.021389,1205.982590,574.277424,-9092.725880
248.024604,1339.980656,1741.974853,-8977.870395
248.027820,1205.982590,842.273555,-9724.431046
248.031035,650.847747,-19.142581,-9915.856854
248.034251,-1071.984525,2450.250342,-9035.298138
248.037466,-918.843878,3541.377448,-9379.864592
248.040682,-363.709035,555.134843,-9781.858789
248.043897,-516.849682,1895.115499,-9303.294269
248.047113,-574.277424,210.568389,-10394.421374
248.050328,976.271621,689.132909,-8709.874264
248.053544,2469.392923,1033.699363,-9245.866526
248.056759,306.281293,765.703232,-10164.710405
248.059974,-784.845813,229.710970,-9456.434915
248.063190,478.564520,-497.707101,-9954.142016
248.066405,-1799.402595,3483.949706,-9379.864592
248.069621,-1818.545176,2239.681954,-9552.147819
248.072836,1225.125171,-1033.699363,-9992.427178
248.076052,1837.687757,1722.832272,-9150.153622
248.079267,1703.689691,1971.685822,-9533.005238
248.082483,2833.101958,1378.265818,-9169.296203
248.085698,1971.685822,-363.709035,-9609.575562
248.088913,421.136778,38.285162,-9762.716208
248.092129,-1110.269686,574.277424,-9360.722011
248.095344,-210.568389,-229.710970,-9934.999435
248.098560,-1052.841944,2335.394858,-9686.145885
248.101775,-38.285162,-593.420005,-9628.718142
248.104991,2182.254211,1971.685822,-8843.872330
248.108206,1320.838075,-172.283227,-10145.567824
248.111422,1454.836141,95.712904,-9628.718142
248.114637,2507.678085,-1569.691626,-9724.431046
248.117853,76.570323,1473.978722,-9513.862658
248.121068,-708.275490,1914.258080,-9341.579430
248.124296,478.564520,-1933.400661,-10432.706536
248.127524,612.562586,1435.693560,-9245.866526
248.130752,535.992262,1320.838075,-9513.862658
248.133980,1627.119368,1761.117434,-9092.725880
248.137208,1033.699363,669.990328,-9609.575562
248.140436,-727.418070,2258.824534,-9552.147819
248.143664,-1129.412267,4249.652938,-8824.729749
248.146893,-210.568389,-210.568389,-9934.999435
248.150121,-1320.838075,2277.967115,-9303.294269
248.153349,-516.849682,-248.853550,-10260.423309
248.156577,650.847747,2354.537438,-9073.583299
248.159805,2009.970984,-708.275490,-9456.434915
248.163033,1703.689691,2086.541307,-9265.009107
248.166261,746.560651,325.423874,-9839.286531
248.169489,459.421939,-287.138712,-9552.147819
248.172717,-1378.265818,2431.107762,-9188.438784
248.175945,-2009.970984,2086.541307,-9820.143950
248.179173,-823.130974,1971.685822,-9494.720077
248.182401,248.853550,-669.990328,-10030.712339
248.185629,1799.402595,1856.830338,-9054.440718
248.188857,2871.387120,1856.830338,-9360.722011
248.192085,2277.967115,-306.281293,-9934.999435
248.195314,401.994197,-1052.841944,-9418.149754
248.198542,440.279358,-612.562586,-9667.003304
248.227594,-382.851616,1531.406464,-9801.001370
248.230822,-918.843878,1416.550979,-9724.431046
248.234050,1895.115499,-497.707101,-9303.294269
248.237278,-401.994197,1493.121302,-8997.012976
248.240506,-306.281293,-153.140646,-9954.142016
248.243735,-1282.552914,708.275490,-10183.852986
248.246963,-1837.687757,2967.100024,-9265.009107
248.250191,-899.701298,1952.543242,-9533.005238
248.253385,803.988394,937.986459,-9475.577496
248.256595,1703.689691,-344.566454,-9418.149754
248.259805,1627.119368,1914.258080,-9743.573627
248.263015,1167.697429,-612.562586,-9437.292334
248.266225,1052.841944,1148.554848,-8997.012976
248.269435,-1110.269686,746.560651,-10336.993632
248.272645,-1588.834206,2354.537438,-9341.579430
248.275854,114.855485,-574.277424,-9647.860723
248.279064,-574.277424,1761.117434,-9571.290400
248.282274,401.994197,3330.809059,-9341.579430
248.285484,2297.109696,-19.142581,-9667.003304
248.288694,1722.832272,-210.568389,-9341.579430
248.291904,421.136778,1282.552914,-9552.147819
248.295113,516.849682,2143.969050,-9399.007173
248.298323,133.998066,440.279358,-9820.143950
248.301533,-497.707101,-344.566454,-9628.718142
248.304743,191.425808,-784.845813,-9686.145885
248.307953,1799.402595,-478.564520,-9762.716208
248.311163,1378.265818,1933.400661,-9475.577496
248.314373,1703.689691,-937.986459,-9322.436850
248.317582,1167.697429,1454.836141,-9073.583299
248.320792,746.560651,-995.414202,-10604.989763
248.324002,-229.710970,2603.390989,-9207.581365
248.327212,-229.710970,-19.142581,-9647.860723
248.330436,708.275490,-842.273555,-9839.286531
248.333660,1531.406464,-382.851616,-10068.997501
248.336883,363.709035,1416.550979,-9494.720077
248.340107,1359.123237,-114.855485,-8939.585234
248.343331,1952.543242,-1799.402595,-10164.710405
248.346555,210.568389,995.414202,-9590.432981
248.349779,-1454.836141,1971.685822,-9647.860723
248.353003,-1550.549045,2258.824534,-9552.147819
248.356226,-727.418070,1014.556782,-9475.577496
248.359450,-440.279358,2086.541307,-9379.864592
248.362674,382.851616,669.990328,-10260.423309
248.365898,1665.404530,267.996131,-9188.438784
248.369122,2182.254211,669.990328,-8843.872330
248.372345,172.283227,497.707101,-10336.993632
248.375569,-1244.267752,2220.539373,-9437.292334
248.378793,-516.849682,-1359.123237,-9858.429112
248.382017,-1493.121302,3005.385186,-9188.438784
248.385241,-1493.121302,2718.246474,-9781.858789
248.388465,1971.685822,287.138712,-9762.716208
248.391688,2699.103893,555.134843,-9111.868461
248.394912,2507.678085,1205.982590,-9379.864592
248.398136,1837.687757,1914.258080,-9188.438784
248.401360,784.845813,-784.845813,-10068.997501
248.404584,-191.425808,-669.990328,-9590.432981
248.407808,-593.420005,-803.988394,-9858.429112
248.411031,-114.855485,1033.699363,-9724.431046
248.414255,-95.712904,1186.840010,-9781.858789
248.417479,1167.697429,191.425808,-9456.434915
248.420703,1550.549045,631.705166,-8997.012976
248.423927,2392.822600,-746.560651,-10394.421374
248.427150,669.990328,421.136778,-9322.436850
248.430374,-153.140646,535.992262,-9456.434915
248.433582,287.138712,-191.425808,-9743.573627
248.436789,363.709035,-1397.408398,-10336.993632
248.439996,-1071.984525,1914.258080,-9571.290400
248.443204,-784.845813,1397.408398,-9188.438784
248.446411,1531.406464,-325.423874,-9934.999435
248.449618,1684.547110,363.709035,-9571.290400
248.452826,-153.140646,1684.547110,-9628.718142
248.456033,-1186.840010,3292.523898,-9150.153622
248.459240,-76.570323,-823.130974,-9973.284597
248.462448,-1225.125171,2622.533570,-9245.866526
248.465655,-861.416136,-19.142581,-10509.276859
248.468862,229.710970,1780.260014,-8920.442653
248.472070,1397.408398,-459.421939,-9418.149754
248.475277,1914.258080,1378.265818,-9877.571693
248.478484,842.273555,1033.699363,-9456.434915
248.481692,-267.996131,-689.132909,-9628.718142
248.484899,-842.273555,650.847747,-9705.288466
248.488106,-1359.123237,2373.680019,-9820.143950
248.491314,-1014.556782,3062.812928,-8997.012976
248.494521,0.000000,153.140646,-9915.856854
248.497728,1684.547110,612.562586,-9667.003304
248.500935,2450.250342,1225.125171,-9169.296203
248.504143,1703.689691,-267.996131,-9781.858789
248.507350,803.988394,-1205.982590,-9590.432981
248.510544,612.562586,-2182.254211,-10107.282662
248.513738,-38.285162,2411.965181,-9341.579430
248.516931,-669.990328,-133.998066,-10298.708470
248.520125,-478.564520,1856.830338,-8920.442653
248.523319,1205.982590,172.283227,-9762.716208
248.526513,1052.841944,2469.392923,-9437.292334
248.529707,2909.672282,-803.988394,-9571.290400
248.532900,2239.681954,-593.420005,-9207.581365
248.536094,191.425808,2124.826469,-9245.866526
248.539288,-325.423874,727.418070,-10164.710405
248.542482,-976.271621,-325.423874,-9494.720077
248.545676,-976.271621,421.136778,-9456.434915
248.548869,-191.425808,2450.250342,-9475.577496
248.552063,1454.836141,803.988394,-9858.429112
248.555257,1378.265818,1359.123237,-9418.149754
248.558451,1416.550979,1703.689691,-9073.583299
248.561644,1301.695494,-421.136778,-9686.145885
248.564838,-267.996131,1741.974853,-9762.716208
248.568032,-803.988394,-229.710970,-10088.140082
248.571226,-497.707101,2009.970984,-8882.157491
248.574420,-746.560651,1282.552914,-9762.716208
248.577613,-114.855485,2201.396792,-9724.431046
248.580807,1895.115499,-880.558717,-9705.288466
248.584001,574.277424,2316.252277,-8748.159426
248.587195,-631.705166,1569.691626,-9513.862658
248.590389,1550.549045,631.705166,-9820.143950
248.593582,497.707101,669.990328,-9609.575562
248.596776,-497.707101,2009.970984,-9245.866526
248.599970,267.996131,2124.826469,-9475.577496
248.603164,1875.972918,-478.564520,-10068.997501
248.606357,2124.826469,689.132909,-9054.440718
248.609551,2105.683888,-325.423874,-9456.434915
248.612733,1473.978722,153.140646,-9475.577496
248.615916,421.136778,1014.556782,-9954.142016
248.619098,-497.707101,593.420005,-9647.860723
248.622280,-1091.127106,1512.263883,-9341.579430
248.625462,-306.281293,937.986459,-10011.569758
248.628644,1397.408398,727.418070,-9724.431046
248.631827,1493.121302,1186.840010,-9054.440718
248.635009,2163.111630,325.423874,-8997.012976
248.638191,2182.254211,-1091.127106,-10260.423309
248.641373,440.279358,-191.425808,-9762.716208
248.644555,-937.986459,1607.976787,-9035.298138
248.647738,-918.843878,803.988394,-9743.573627
248.650920,-612.562586,1282.552914,-9781.858789
248.654102,-516.849682,2737.389054,-9667.003304
248.657284,-191.425808,3043.670347,-8939.585234
248.660466,1607.976787,-1071.984525,-9647.860723
248.663649,1588.834206,1339.980656,-9341.579430
248.666831,650.847747,229.710970,-10183.852986
248.670013,-497.707101,1569.691626,-9341.579430
248.673195,-1014.556782,535.992262,-9628.718142
248.676377,-1071.984525,1837.687757,-9781.858789
248.679560,191.425808,861.416136,-9705.288466
248.682742,-57.427742,2545.963246,-9111.868461
248.685924,689.132909,976.271621,-9016.155557
248.689106,2967.100024,-555.134843,-9915.856854
248.692288,1837.687757,650.847747,-9609.575562
248.695471,-95.712904,1646.261949,-9379.864592
248.698653,-248.853550,937.986459,-9609.575562
248.701835,-76.570323,440.279358,-9743.573627
248.705017,-19.142581,-267.996131,-9743.573627
248.708199,459.421939,133.998066,-9437.292334
248.711382,1780.260014,172.283227,-9571.290400
248.740180,-1588.834206,1071.984525,-9877.571693
248.743380,-1627.119368,1205.982590,-9647.860723
248.746579,-344.566454,-899.701298,-9896.714274
248.749779,727.418070,995.414202,-9762.716208
248.752979,1110.269686,2603.390989,-9131.011042
248.756179,1225.125171,1282.552914,-9552.147819
248.759379,1837.687757,-153.140646,-9245.866526
248.762578,574.277424,344.566454,-9705.288466
248.765778,-1473.978722,1703.689691,-9915.856854
248.768978,-133.998066,669.990328,-9552.147819
248.772178,-1799.402595,1875.972918,-9475.577496
248.775378,-918.843878,287.138712,-9839.286531
248.778577,1263.410333,1397.408398,-9341.579430
248.781777,382.851616,1875.972918,-9399.007173
248.784977,133.998066,1588.834206,-9150.153622
248.788177,2220.539373,-899.701298,-9877.571693
248.791377,229.710970,1493.121302,-9647.860723
248.794576,-574.277424,2660.818731,-9379.864592
248.797776,325.423874,-19.142581,-9801.001370
248.800976,-191.425808,421.136778,-9647.860723
248.804176,1052.841944,-363.709035,-9801.001370
248.807376,2201.396792,-325.423874,-9513.862658
248.810575,1818.545176,-191.425808,-9379.864592
248.813775,516.849682,995.414202,-9992.427178
248.816991,-803.988394,459.421939,-9571.290400
248.820206,153.140646,1512.263883,-9533.005238
248.823421,-823.130974,1550.549045,-10011.569758
248.826636,1091.127106,-210.568389,-9475.577496
248.829852,1952.543242,1378.265818,-9131.011042
248.833067,2067.398726,2105.683888,-9341.579430
248.836282,1684.547110,114.855485,-9475.577496
248.839497,267.996131,-1148.554848,-9705.288466
248.842713,-899.701298,2029.113565,-9379.864592
248.845928,-1071.984525,2009.970984,-9590.432981
248.849143,-784.845813,1339.980656,-9839.286531
248.852359,-1378.265818,2201.396792,-9379.864592
248.855574,363.709035,1148.554848,-9743.573627
248.858789,1588.834206,708.275490,-9150.153622
248.862004,1454.836141,363.709035,-9628.718142
248.865220,306.281293,669.990328,-10049.854920
248.868435,-95.712904,-114.855485,-9188.438784
248.871650,-478.564520,1435.693560,-9896.714274
248.874866,-1550.549045,1607.976787,-9858.429112
248.878081,-459.421939,0.000000,-9494.720077
248.881296,1110.269686,191.425808,-9820.143950
248.884511,1550.549045,2220.539373,-9265.009107
248.887727,2009.970984,1665.404530,-9245.866526
248.890942,1378.265818,-765.703232,-9896.714274
248.894157,325.423874,784.845813,-9667.003304
248.897372,-325.423874,1033.699363,-9781.858789
248.900588,-421.136778,1052.841944,-9494.720077
248.903803,38.285162,-38.285162,-9762.716208
248.907018,1301.695494,-612.562586,-9781.858789
248.910234,1703.689691,1378.265818,-9226.723946
248.913449,1225.125171,-210.568389,-9896.714274
248.916664,-421.136778,1301.695494,-9322.436850
248.919893,727.418070,-535.992262,-9877.571693
248.923122,574.277424,1167.697429,-9858.429112
248.926351,-784.845813,2009.970984,-9379.864592
248.929581,1627.119368,-401.994197,-9533.005238
248.932810,1110.269686,-1761.117434,-10317.851051
248.936039,765.703232,708.275490,-9628.718142
248.939268,727.418070,727.418070,-9188.438784
248.942497,593.420005,-669.990328,-9858.429112
248.945726,-497.707101,1531.406464,-9743.573627
248.948955,-784.845813,1818.545176,-9858.429112
248.952184,-1531.406464,2277.967115,-9360.722011
248.955413,-191.425808,344.566454,-9590.432981
248.958643,1359.123237,1091.127106,-9513.862658
248.961872,1818.545176,76.570323,-9762.716208
248.965101,1741.974853,555.134843,-9341.579430
248.968330,765.703232,-210.568389,-9781.858789
248.971559,-957.129040,1473.978722,-9647.860723
248.974788,-823.130974,325.423874,-10068.997501
248.978017,-1129.412267,1646.261949,-9609.575562
248.981246,-57.427742,3101.098090,-9016.155557
248.984475,1473.978722,918.843878,-9781.858789
248.987705,2718.246474,382.851616,-9647.860723
248.990934,1799.402595,267.996131,-9533.005238
248.994163,401.994197,287.138712,-9513.862658
248.997392,-191.425808,-57.427742,-9896.714274
249.000621,210.568389,-1148.554848,-10298.708470
249.003850,-401.994197,344.566454,-9379.864592
249.007079,95.712904,1493.121302,-9609.575562
249.010308,1225.125171,593.420005,-9743.573627
249.013537,1378.265818,-267.996131,-9245.866526
249.016767,1971.685822,153.140646,-9781.858789
249.019996,1588.834206,-363.709035,-9820.143950
249.023237,-267.996131,1665.404530,-9150.153622
249.026478,497.707101,-784.845813,-10011.569758
249.029719,497.707101,-1052.841944,-10107.282662
249.032960,-1569.691626,937.986459,-9399.007173
249.036201,-38.285162,803.988394,-9552.147819
249.039443,1799.402595,459.421939,-9628.718142
249.042684,995.414202,363.709035,-9896.714274
249.045925,-612.562586,2813.959378,-9150.153622
249.049166,-382.851616,1607.976787,-9590.432981
249.052407,-823.130974,248.853550,-9896.714274
249.055648,-421.136778,1033.699363,-9628.718142
249.058890,516.849682,1205.982590,-9724.431046
249.062131,1244.267752,842.273555,-9265.009107
249.065372,1320.838075,-669.990328,-9571.290400
249.068613,689.132909,1665.404530,-9552.147819
249.071854,-133.998066,-440.279358,-9839.286531
249.075095,-612.562586,1225.125171,-9418.149754
249.078337,-1091.127106,2411.965181,-9667.003304
249.081578,765.703232,2679.961312,-9494.720077
249.084819,669.990328,-38.285162,-9724.431046
249.088060,1531.406464,-19.142581,-9609.575562
249.091301,1531.406464,1014.556782,-9207.581365
249.094542,1627.119368,-1607.976787,-10183.852986
249.097783,555.134843,-382.851616,-9552.147819
249.101025,516.849682,-19.142581,-9877.571693
249.104266,-459.421939,2105.683888,-9647.860723
249.107507,-497.707101,267.996131,-9628.718142
249.110748,421.136778,1646.261949,-9571.290400
249.113989,1607.976787,19.142581,-9475.577496
249.117230,2833.101958,57.427742,-9169.296203
249.120472,2277.967115,918.843878,-9513.862658
249.123713,497.707101,1244.267752,-9456.434915
249.126937,-172.283227,-803.988394,-9839.286531
249.130161,-1741.974853,-191.425808,-10011.569758
249.133386,-1244.267752,2182.254211,-9418.149754
249.136610,57.427742,1761.117434,-9475.577496
249.139835,1761.117434,995.414202,-9475.577496
249.143059,957.129040,2163.111630,-9092.725880
249.146283,861.416136,114.855485,-9877.571693
249.149508,803.988394,1205.982590,-9303.294269
249.152732,-535.992262,-191.425808,-10164.710405
249.155956,-765.703232,1435.693560,-9360.722011
249.159181,-1282.552914,995.414202,-9475.577496
249.162405,880.558717,1205.982590,-9858.429112
249.165629,631.705166,248.853550,-9571.290400
249.168854,210.568389,2182.254211,-9111.868461
249.172078,555.134843,-19.142581,-9724.431046
249.175302,1473.978722,95.712904,-9954.142016
249.178527,-172.283227,2699.103893,-9188.438784
249.181751,-555.134843,1703.689691,-9667.003304
249.184975,-727.418070,937.986459,-9609.575562
249.188200,306.281293,-325.423874,-9973.284597
249.191424,2009.970984,229.710970,-9284.151688
249.194648,2124.826469,-210.568389,-9399.007173
249.197873,995.414202,-344.566454,-9992.427178
249.201097,937.986459,19.142581,-9667.003304
249.230230,-842.273555,1569.691626,-9150.153622
249.233468,344.566454,1684.547110,-9552.147819
249.236705,2163.111630,1952.543242,-9379.864592
249.239942,1263.410333,784.845813,-9628.718142
249.243179,1435.693560,612.562586,-9150.153622
249.246416,861.416136,478.564520,-9686.145885
249.249653,-612.562586,976.271621,-9705.288466
249.252891,-210.568389,861.416136,-9628.718142
249.256128,-593.420005,1263.410333,-9552.147819
249.259365,-1397.408398,1895.115499,-9418.149754
249.262602,1071.984525,-765.703232,-9973.284597
249.265839,1033.699363,2163.111630,-9226.723946
249.269077,38.285162,1914.258080,-9399.007173
249.272314,2163.111630,784.845813,-9265.009107
249.275551,880.558717,-57.427742,-9954.142016
249.278788,-401.994197,1359.123237,-9628.718142
249.282025,-325.423874,1493.121302,-9341.579430
249.285262,918.843878,-248.853550,-9858.429112
249.288500,823.130974,1052.841944,-9399.007173
249.291737,1550.549045,-421.136778,-9762.716208
249.294974,1282.552914,1512.263883,-9169.296203
249.298211,382.851616,-497.707101,-9858.429112
249.301448,-267.996131,1856.830338,-9399.007173
249.304685,-459.421939,574.277424,-9743.573627
249.307923,612.562586,516.849682,-9705.288466
249.311160,1033.699363,957.129040,-9265.009107
249.314397,1339.980656,1378.265818,-9265.009107
249.317634,1569.691626,-765.703232,-9877.571693
249.320871,-401.994197,-593.420005,-10126.425243
249.324108,172.283227,1378.265818,-9035.298138
249.327346,-114.855485,1971.685822,-9475.577496
249.330583,-555.134843,1646.261949,-9934.999435
249.333804,-1167.697429,2220.539373,-9245.866526
249.337025,421.136778,76.570323,-9801.001370
249.340246,535.992262,1282.552914,-9418.149754
249.343467,2009.970984,-76.570323,-9743.573627
249.346688,1895.115499,976.271621,-9265.009107
249.349910,-191.425808,516.849682,-9801.001370
249.353131,-1435.693560,1607.976787,-9437.292334
249.356352,-440.279358,-363.709035,-10260.423309
249.359573,-1205.982590,2660.818731,-9456.434915
249.362794,-631.705166,2756.531635,-9265.009107
249.366015,3311.666478,-248.853550,-9590.432981
249.369236,2679.961312,765.703232,-9399.007173
249.372457,2009.970984,440.279358,-9513.862658
249.375679,631.705166,976.271621,-9169.296203
249.378900,-631.705166,-325.423874,-9934.999435
249.382121,-382.851616,0.000000,-9858.429112
249.385342,401.994197,287.138712,-9513.862658
249.388563,-95.712904,2277.967115,-9322.436850
249.391784,1167.697429,-133.998066,-9858.429112
249.395005,2201.396792,861.416136,-8977.870395
249.398226,1014.556782,689.132909,-9705.288466
249.401448,1244.267752,-172.283227,-9954.142016
249.404669,1531.406464,-95.712904,-9245.866526
249.407890,-631.705166,1263.410333,-9743.573627
249.411098,-1129.412267,1052.841944,-9590.432981
249.414306,-478.564520,-19.142581,-9896.714274
249.417514,899.701298,1780.260014,-8901.300072
249.420722,1818.545176,2201.396792,-9322.436850
249.423930,1301.695494,1091.127106,-9820.143950
249.427138,19.142581,995.414202,-9284.151688
249.430347,-535.992262,535.992262,-9781.858789
249.433555,-1186.840010,1627.119368,-9590.432981
249.436763,-708.275490,1052.841944,-9743.573627
249.439971,-172.283227,1263.410333,-9667.003304
249.443179,957.129040,-191.425808,-9571.290400
249.446387,689.132909,1416.550979,-9131.011042
249.449595,803.988394,-459.421939,-10241.280728
249.452803,727.418070,555.134843,-9590.432981
249.456011,-229.710970,2009.970984,-9341.579430
249.459219,382.851616,899.701298,-9667.003304
249.462428,516.849682,478.564520,-9934.999435
249.465636,976.271621,325.423874,-9877.571693
249.468844,918.843878,976.271621,-9341.579430
249.472052,1531.406464,593.420005,-9513.862658
249.475260,1205.982590,-823.130974,-9915.856854
249.478468,631.705166,114.855485,-9475.577496
249.481676,-172.283227,1607.976787,-9724.431046
249.484884,-631.705166,937.986459,-9647.860723
249.488092,516.849682,803.988394,-9571.290400
249.491301,976.271621,995.414202,-9934.999435
249.494509,1531.406464,650.847747,-9207.581365
249.497717,2833.101958,-1416.550979,-9437.292334
249.500925,1186.840010,191.425808,-9781.858789
249.504133,-784.845813,1588.834206,-9533.005238
249.507341,-1052.841944,-19.142581,-9724.431046
249.510549,-861.416136,976.271621,-9647.860723
249.513746,-248.853550,2565.105827,-9647.860723
249.516943,803.988394,2009.970984,-9609.575562
249.520140,669.990328,746.560651,-9322.436850
249.523337,1339.980656,-38.285162,-9399.007173
249.526534,842.273555,153.140646,-9858.429112
249.529731,306.281293,880.558717,-9590.432981
249.532928,-1339.980656,1454.836141,-9781.858789
249.536125,-1167.697429,497.707101,-9705.288466
249.539322,-1091.127106,1205.982590,-9513.862658
249.542519,-957.129040,1952.543242,-9781.858789
249.545716,1588.834206,708.275490,-9456.434915
249.548913,2469.392923,-210.568389,-9475.577496
249.552110,2048.256146,1473.978722,-9265.009107
249.555307,344.566454,1186.840010,-9705.288466
249.558504,-593.420005,-210.568389,-9667.003304
249.561701,-229.710970,363.709035,-9571.290400
249.564898,516.849682,1225.125171,-9590.432981
249.568095,306.281293,1397.408398,-9590.432981
249.571292,1512.263883,612.562586,-9456.434915
249.574489,2009.970984,-133.998066,-9379.864592
249.577686,344.566454,842.273555,-9494.720077
249.580884,-38.285162,861.416136,-9781.858789
249.584081,746.560651,746.560651,-9743.573627
249.587278,-153.140646,650.847747,-9609.575562
249.590475,-593.420005,1875.972918,-9188.438784
249.593672,1148.554848,-880.558717,-10088.140082
249.596869,593.420005,650.847747,-9571.290400
249.600066,229.710970,631.705166,-9341.579430
249.603263,1416.550979,976.271621,-9513.862658
249.606460,153.140646,1110.269686,-9896.714274
249.609657,-1205.982590,1091.127106,-9705.288466
249.612854,-612.562586,1493.121302,-9322.436850
249.616041,612.562586,631.705166,-9820.143950
249.619229,363.709035,1607.976787,-9571.290400
249.622417,1493.121302,-95.712904,-9494.720077
249.625604,1397.408398,478.564520,-9475.577496
249.628792,-689.132909,727.418070,-9724.431046
249.631980,-669.990328,669.990328,-9781.858789
249.635167,-478.564520,344.566454,-10183.852986
249.638355,-287.138712,2029.113565,-9265.009107
249.641543,995.414202,1225.125171,-9399.007173
249.644730,2239.681954,-325.423874,-9954.142016
249.647918,1722.832272,516.849682,-9456.434915
249.651106,1378.265818,-363.709035,-9360.722011
249.654293,1033.699363,191.425808,-9667.003304
249.657481,-153.140646,382.851616,-9992.427178
249.660669,-363.709035,937.986459,-9705.288466
249.663856,133.998066,1205.982590,-9475.577496
249.667044,-267.996131,1301.695494,-9571.290400
249.670232,1263.410333,555.134843,-9552.147819
249.673419,2775.674216,-191.425808,-9533.005238
249.676607,708.275490,1895.115499,-9437.292334
249.679795,727.418070,-669.990328,-9781.858789
249.682982,363.709035,-1052.841944,-10030.712339
249.686170,-2029.113565,861.416136,-10049.854920
249.689358,-1129.412267,1263.410333,-9494.720077
249.692545,1052.841944,363.709035,-9667.003304
249.695733,1895.115499,727.418070,-9590.432981
249.698921,1129.412267,1895.115499,-9322.436850
249.702108,1167.697429,-287.138712,-9647.860723
249.705296,516.849682,1301.695494,-9475.577496
249.708484,-918.843878,57.427742,-9839.286531
249.711671,-325.423874,1684.547110,-9322.436850
249.714859,363.709035,325.423874,-10030.712339
249.743708,2029.113565,-459.421939,-9456.434915
249.746913,1282.552914,-76.570323,-9513.862658
249.750119,689.132909,574.277424,-9628.718142
249.753324,440.279358,153.140646,-9781.858789
249.756530,-937.986459,1875.972918,-9647.860723
249.759735,210.568389,-555.134843,-9915.856854
249.762941,1493.121302,1741.974853,-9035.298138
249.766146,421.136778,1282.552914,-9896.714274
249.769351,2794.816797,-133.998066,-9379.864592
249.772557,1856.830338,-1856.830338,-9628.718142
249.775762,-1588.834206,1301.695494,-9628.718142
249.778968,-1244.267752,1263.410333,-9743.573627
249.782173,-440.279358,172.283227,-10030.712339
249.785379,-765.703232,1895.115499,-9303.294269
249.788584,133.998066,1033.699363,-9705.288466
249.791789,1148.554848,995.414202,-9494.720077
249.794995,1646.261949,-248.853550,-9513.862658
249.798200,1722.832272,1033.699363,-9475.577496
249.801406,363.709035,-421.136778,-9820.143950
249.804611,-421.136778,976.271621,-9552.147819
249.807817,-1378.265818,1665.404530,-9858.429112
249.811022,-172.283227,-210.568389,-9839.286531
249.814227,765.703232,1761.117434,-9092.725880
249.817433,1359.123237,1799.402595,-9705.288466
249.820654,3273.381317,880.558717,-9207.581365
249.823875,1531.406464,-689.132909,-9877.571693
249.827096,-153.140646,1167.697429,-9475.577496
249.830317,-153.140646,823.130974,-9743.573627
249.833538,-191.425808,497.707101,-9954.142016
249.836759,19.142581,1014.556782,-9226.723946
249.839980,1129.412267,497.707101,-9705.288466
249.843201,1627.119368,842.273555,-9303.294269
249.846422,2124.826469,459.421939,-9341.579430
249.849644,1282.552914,765.703232,-9647.860723
249.852865,1033.699363,-325.423874,-9781.858789
249.856086,-497.707101,2048.256146,-9341.579430
249.859307,57.427742,937.986459,-9667.003304
249.862528,1186.840010,-612.562586,-9934.999435
249.865749,-861.416136,535.992262,-9552.147819
249.868970,976.271621,765.703232,-9360.722011
249.872191,1741.974853,593.420005,-9590.432981
249.875412,306.281293,344.566454,-9915.856854
249.878633,-880.558717,1397.408398,-9418.149754
249.881854,-727.418070,478.564520,-10011.569758
249.885075,-382.851616,1339.980656,-9762.716208
249.888296,306.281293,880.558717,-9552.147819
249.891518,976.271621,1052.841944,-9533.005238
249.894739,937.986459,-153.140646,-9399.007173
249.897960,861.416136,133.998066,-9360.722011
249.901181,-708.275490,1741.974853,-9705.288466
249.904402,-593.420005,401.994197,-9839.286531
249.907623,287.138712,1129.412267,-9360.722011
249.910844,689.132909,1071.984525,-9667.003304
249.914065,1665.404530,995.414202,-9705.288466
249.917286,1167.697429,-133.998066,-9667.003304
249.920507,1990.828403,-401.994197,-9379.864592
249.923742,1761.117434,172.283227,-9724.431046
249.926977,248.853550,727.418070,-9781.858789
249.930212,114.855485,1607.976787,-9475.577496
249.933446,-918.843878,-114.855485,-9839.286531
249.936681,133.998066,1320.838075,-9456.434915
249.939916,727.418070,784.845813,-9820.143950
249.943151,2813.959378,976.271621,-9360.722011
249.946386,2660.818731,-1167.697429,-9762.716208
249.949620,1837.687757,-191.425808,-9322.436850
249.952855,-1186.840010,1799.402595,-9667.003304
249.956090,-1607.976787,689.132909,-10049.854920
249.959325,-823.130974,1856.830338,-9016.155557
249.962560,-612.562586,1091.127106,-9743.573627
249.965795,-19.142581,2105.683888,-9475.577496
249.969029,1091.127106,440.279358,-9513.862658
249.972264,1627.119368,669.990328,-9437.292334
249.975499,325.423874,-114.855485,-9820.143950
249.978734,689.132909,535.992262,-9399.007173
249.981969,-210.568389,631.705166,-9973.284597
249.985203,-1282.552914,1512.263883,-9552.147819
249.988438,-210.568389,401.994197,-9552.147819
249.991673,516.849682,746.560651,-9781.858789
249.994908,1473.978722,2316.252277,-9207.581365
249.998143,3120.240670,-57.427742,-9360.722011
250.001377,1741.974853,57.427742,-9437.292334
250.004612,-153.140646,937.986459,-9705.288466
250.007847,-708.275490,1014.556782,-9915.856854
250.011082,-306.281293,803.988394,-9341.579430
250.014317,-382.851616,669.990328,-9724.431046
250.017551,57.427742,1263.410333,-9571.290400
250.020786,2239.681954,-133.998066,-9513.862658
250.024021,2009.970984,1167.697429,-9533.005238
250.027268,-19.142581,382.851616,-9724.431046
250.030514,1454.836141,248.853550,-9513.862658
250.033761,325.423874,593.420005,-9877.571693
250.037008,-765.703232,2450.250342,-9265.009107
250.040254,-38.285162,-210.568389,-9686.145885
250.043501,38.285162,248.853550,-9628.718142
250.046747,957.129040,1895.115499,-9226.723946
250.049994,1837.687757,248.853550,-9456.434915
250.053241,650.847747,401.994197,-9571.290400
250.056487,-555.134843,689.132909,-9839.286531
250.059734,-823.130974,1205.982590,-9686.145885
250.062981,-287.138712,669.990328,-9628.718142
250.066227,497.707101,1186.840010,-9590.432981
250.069474,784.845813,861.416136,-9686.145885
250.072721,1033.699363,727.418070,-9073.583299
250.075967,1244.267752,0.000000,-9896.714274
250.079214,172.283227,689.132909,-9437.292334
250.082460,-555.134843,1799.402595,-9265.009107
250.085707,995.414202,267.996131,-10011.569758
250.088954,401.994197,1818.545176,-9494.720077
250.092200,459.421939,1052.841944,-9437.292334
250.095447,516.849682,1091.127106,-9494.720077
250.098694,1914.258080,76.570323,-9743.573627
250.101940,1799.402595,-382.851616,-9686.145885
250.105187,535.992262,861.416136,-9399.007173
250.108433,-153.140646,803.988394,-9820.143950
250.111680,-287.138712,1263.410333,-9705.288466
250.114927,-631.705166,1301.695494,-9379.864592
250.118173,1359.123237,459.421939,-9781.858789
250.121420,1493.121302,1282.552914,-9379.864592
250.124667,1780.260014,516.849682,-9150.153622
250.127913,650.847747,-1071.984525,-10183.852986
250.131145,-689.132909,516.849682,-9686.145885
250.134376,-899.701298,1033.699363,-9494.720077
250.137608,-344.566454,784.845813,-9628.718142
250.140839,38.285162,1052.841944,-9839.286531
250.144070,708.275490,1033.699363,-9437.292334
250.147302,650.847747,1244.267752,-9475.577496
250.150533,1512.263883,76.570323,-9647.860723
250.153765,1627.119368,229.710970,-9475.577496
250.156996,-76.570323,1205.982590,-9590.432981
250.160228,-401.994197,1397.408398,-9533.005238
250.163459,-612.562586,-95.712904,-9954.142016
250.166691,-1473.978722,1837.687757,-9513.862658
250.169922,133.998066,1971.685822,-9628.718142
250.173153,3369.094221,325.423874,-9379.864592
250.176385,2182.254211,727.418070,-9188.438784
250.179616,1282.552914,650.847747,-9494.720077
250.182848,210.568389,727.418070,-9801.001370
250.186079,-133.998066,-248.853550,-9820.143950
250.189311,229.710970,861.416136,-9533.005238
250.192542,-172.283227,1339.980656,-9628.718142
250.195774,191.425808,803.988394,-9513.862658
250.199005,1761.117434,1033.699363,-9571.290400
250.202236,1339.980656,689.132909,-9303.294269
250.205468,2124.826469,-325.423874,-9571.290400
250.234449,-1225.125171,1397.408398,-9724.431046
250.237668,38.285162,287.138712,-9781.858789
250.240886,937.986459,1186.840010,-9341.579430
250.244105,1033.699363,880.558717,-9877.571693
250.247324,765.703232,382.851616,-9092.725880
250.250543,516.849682,421.136778,-9858.429112
250.253762,-1837.687757,1741.974853,-9801.001370
250.256980,-631.705166,1741.974853,-9169.296203
250.260199,1014.556782,-38.285162,-9934.999435
250.263418,555.134843,2182.254211,-9475.577496
250.266637,727.418070,823.130974,-9571.290400
250.269856,1741.974853,38.285162,-9303.294269
250.273075,2124.826469,0.000000,-9724.431046
250.276293,1531.406464,382.851616,-9705.288466
250.279512,344.566454,727.418070,-9533.005238
250.282731,-612.562586,976.271621,-9724.431046
250.285950,-440.279358,1263.410333,-9781.858789
250.289169,-535.992262,1512.263883,-9265.009107
250.292387,1550.549045,823.130974,-9858.429112
250.295606,2201.396792,325.423874,-9609.575562
250.298825,1110.269686,995.414202,-8805.587168
250.302044,38.285162,-842.273555,-10164.710405
250.305263,-2009.970984,1014.556782,-9667.003304
250.308482,-1033.699363,1359.123237,-9475.577496
250.311690,-382.851616,555.134843,-9571.290400
250.314897,478.564520,1091.127106,-9705.288466
250.318105,823.130974,1071.984525,-9705.288466
250.321313,1052.841944,1435.693560,-9111.868461
250.324521,1665.404530,95.712904,-9609.575562
250.327729,459.421939,440.279358,-9494.720077
250.330937,38.285162,57.427742,-9820.143950
250.334145,-1569.691626,1837.687757,-9533.005238
250.337353,-1339.980656,746.560651,-9839.286531
250.340561,-708.275490,153.140646,-9762.716208
250.343769,1282.552914,1722.832272,-9590.432981
250.346977,3158.525832,459.421939,-9743.573627
250.350184,2182.254211,306.281293,-9265.009107
250.353392,1263.410333,-459.421939,-9724.431046
250.356600,287.138712,937.986459,-9552.147819
250.359808,19.142581,172.283227,-9915.856854
250.363016,-248.853550,842.273555,-9379.864592
250.366224,-344.566454,1454.836141,-9628.718142
250.369432,-191.425808,478.564520,-9667.003304
250.372640,1703.689691,1014.556782,-9341.579430
250.375848,2258.824534,-440.279358,-9992.427178
250.379056,478.564520,1684.547110,-9035.298138
250.382263,1110.269686,-1167.697429,-10164.710405
250.385471,19.142581,957.129040,-9590.432981
250.388679,-2029.113565,1512.263883,-9571.290400
250.391887,-880.558717,440.279358,-9667.003304
250.395095,842.273555,1320.838075,-9609.575562
250.398303,1454.836141,669.990328,-9724.431046
250.401511,1148.554848,478.564520,-9207.581365
250.404719,1473.978722,-708.275490,-9705.288466
250.407927,765.703232,1607.976787,-9705.288466
250.411135,-57.427742,-114.855485,-9839.286531
250.414333,-593.420005,2718.246474,-9226.723946
250.417532,-478.564520,-19.142581,-9934.999435
250.420731,306.281293,976.271621,-9054.440718
250.423930,459.421939,1454.836141,-9762.716208
250.427128,1186.840010,937.986459,-9456.434915
250.430327,2316.252277,287.138712,-9341.579430
250.433526,57.427742,382.851616,-9896.714274
250.436725,-287.138712,2086.541307,-9418.149754
250.439923,-650.847747,287.138712,-10068.997501
250.443122,325.423874,1435.693560,-9188.438784
250.446321,842.273555,1033.699363,-9456.434915
250.449520,1454.836141,267.996131,-9724.431046
250.452718,1473.978722,267.996131,-9399.007173
250.455917,2220.539373,-363.709035,-9667.003304
250.459116,210.568389,1856.830338,-9475.577496
250.462315,-248.853550,57.427742,-9896.714274
250.465513,803.988394,1225.125171,-9284.151688
250.468712,0.000000,746.560651,-9820.143950
250.471911,-650.847747,1895.115499,-9092.725880
250.475109,516.849682,287.138712,-9801.001370
250.478308,1167.697429,1014.556782,-9379.864592
250.481507,669.990328,669.990328,-9399.007173
250.484706,-191.425808,516.849682,-9896.714274
250.487904,-229.710970,1665.404530,-9628.718142
250.491103,-765.703232,593.420005,-9992.427178
250.494302,114.855485,2067.398726,-9150.153622
250.497501,172.283227,267.996131,-9839.286531
250.500699,1684.547110,689.132909,-9226.723946
250.503898,1435.693560,-306.281293,-9647.860723
250.507097,-401.994197,1550.549045,-9609.575562
250.510296,-191.425808,784.845813,-9590.432981
250.513494,306.281293,-57.427742,-9743.573627
250.516710,440.279358,1856.830338,-9303.294269
250.519926,-708.275490,574.277424,-9934.999435
250.523142,344.566454,1071.984525,-9245.866526
250.526357,1875.972918,-382.851616,-9686.145885
250.529573,1818.545176,669.990328,-9609.575562
250.532789,478.564520,-133.998066,-9781.858789
250.536005,976.271621,880.558717,-9456.434915
250.539220,229.710970,459.421939,-9973.284597
250.542436,-918.843878,1397.408398,-9494.720077
250.545652,880.558717,957.129040,-9705.288466
250.548868,2105.683888,38.285162,-9762.716208
250.552083,1320.838075,2182.254211,-8843.872330
250.555299,842.273555,-287.138712,-9973.284597
250.558515,-421.136778,1129.412267,-9571.290400
250.561731,-574.277424,689.132909,-9705.288466
250.564946,-459.421939,708.275490,-9609.575562
250.568162,-746.560651,1225.125171,-9705.288466
250.571378,-459.421939,976.271621,-9858.429112
250.574594,555.134843,1378.265818,-9169.296203
250.577809,1895.115499,19.142581,-9475.577496
250.581025,287.138712,1359.123237,-9533.005238
250.584241,-267.996131,-803.988394,-9571.290400
250.587456,95.712904,1493.121302,-9284.151688
250.590672,-1761.117434,1244.267752,-10088.140082
250.593888,-746.560651,937.986459,-9284.151688
250.597104,1435.693560,248.853550,-9724.431046
250.600319,612.562586,1512.263883,-9705.288466
250.603535,1320.838075,1033.699363,-9265.009107
250.606751,1282.552914,-918.843878,-9724.431046
250.609967,918.843878,727.418070,-9552.147819
250.613182,38.285162,363.709035,-10107.282662
250.616398,-478.564520,995.414202,-9265.009107
250.619629,-535.992262,535.992262,-9934.999435
250.622860,842.273555,746.560651,-9743.573627
250.626090,957.129040,1512.263883,-9188.438784
250.629321,2469.392923,-229.710970,-9762.716208
250.632552,2048.256146,631.705166,-9418.149754
250.635783,1052.841944,133.998066,-9513.862658
250.639013,-1052.841944,1741.974853,-9686.145885
250.642244,-1914.258080,746.560651,-10011.569758
250.645475,-765.703232,1665.404530,-9150.153622
250.648706,880.558717,708.275490,-9801.001370
250.651936,421.136778,1454.836141,-9667.003304
250.655167,1263.410333,784.845813,-9360.722011
250.658398,1914.258080,-114.855485,-9437.292334
250.661629,880.558717,1416.550979,-9590.432981
250.664859,-1454.836141,306.281293,-9954.142016
250.668090,-1071.984525,2163.111630,-9226.723946
250.671321,-574.277424,-210.568389,-10164.710405
250.674551,-937.986459,2699.103893,-9131.011042
250.677782,1071.984525,421.136778,-9647.860723
250.681013,2871.387120,57.427742,-9552.147819
250.684244,2143.969050,899.701298,-9360.722011
250.687474,612.562586,95.712904,-9513.862658
250.690705,-287.138712,937.986459,-9609.575562
250.693936,-535.992262,-76.570323,-10241.280728
250.723013,650.847747,-784.845813,-9896.714274
250.726243,-1818.545176,1435.693560,-9877.571693
250.729474,-803.988394,1052.841944,-9379.864592
250.732705,-172.283227,306.281293,-9839.286531
250.735935,57.427742,1454.836141,-9667.003304
250.739166,899.701298,535.992262,-9724.431046
250.742397,1895.115499,842.273555,-8958.727814
250.745628,995.414202,325.423874,-9801.001370
250.748858,401.994197,765.703232,-9571.290400
250.752089,-248.853550,248.853550,-9552.147819
250.755320,-1339.980656,1205.982590,-9705.288466
250.758551,-899.701298,1473.978722,-9628.718142
250.761781,-842.273555,153.140646,-9552.147819
250.765012,1627.119368,1263.410333,-9456.434915
250.768243,2603.390989,555.134843,-9590.432981
250.771474,1588.834206,76.570323,-9456.434915
250.774704,440.279358,344.566454,-9724.431046
250.777935,1033.699363,937.986459,-9590.432981
250.781166,-133.998066,784.845813,-9781.858789
250.784397,-631.705166,880.558717,-9437.292334
250.787627,-401.994197,1148.554848,-9705.288466
250.790858,1799.402595,-133.998066,-9628.718142
250.794089,2067.398726,1933.400661,-8901.300072
250.797319,2431.107762,-344.566454,-9915.856854
250.800537,2258.824534,153.140646,-9169.296203
250.803755,-191.425808,650.847747,-9839.286531
250.806973,-1569.691626,1665.404530,-9686.145885
250.810191,-1856.830338,1378.265818,-9705.288466
250.813409,-823.130974,1225.125171,-9322.436850
250.816627,650.847747,1205.982590,-9513.862658
250.819845,1397.408398,497.707101,-9801.001370
250.823062,1033.699363,363.709035,-9284.151688
250.826295,1741.974853,-19.142581,-9571.290400
250.829527,421.136778,803.988394,-9743.573627
250.832760,-842.273555,191.425808,-9762.716208
250.835992,-1129.412267,2392.822600,-9226.723946
250.839225,401.994197,-172.283227,-10183.852986
250.842458,-708.275490,1569.691626,-9092.725880
250.845690,1244.267752,957.129040,-9647.860723
250.848923,3292.523898,401.994197,-9647.860723
250.852155,1225.125171,899.701298,-9341.579430
250.855388,-650.847747,459.421939,-9647.860723
250.858620,-172.283227,1320.838075,-9647.860723
250.861853,-421.136778,-248.853550,-10241.280728
250.865085,172.283227,1263.410333,-9073.583299
250.868318,650.847747,746.560651,-9781.858789
250.871550,1895.115499,1110.269686,-9533.005238
250.874783,1129.412267,-153.140646,-9379.864592
250.878015,2392.822600,-344.566454,-9743.573627
250.881248,440.279358,1397.408398,-9494.720077
250.884480,-401.994197,497.707101,-9590.432981
250.887713,-344.566454,440.279358,-9705.288466
250.890945,-1033.699363,803.988394,-10030.712339
250.894178,0.000000,918.843878,-9226.723946
250.897410,1971.685822,153.140646,-9628.718142
250.900643,2124.826469,784.845813,-9513.862658
250.903875,440.279358,976.271621,-9552.147819
250.907108,-823.130974,421.136778,-9686.145885
250.910340,-114.855485,1014.556782,-9839.286531
250.913573,-1473.978722,440.279358,-9839.286531
250.916805,-478.564520,2297.109696,-9150.153622
250.920038,440.279358,-325.423874,-10126.425243
250.923270,421.136778,2220.539373,-8920.442653
250.926503,1014.556782,-1033.699363,-9858.429112
250.929748,2545.963246,210.568389,-9437.292334
250.932993,880.558717,823.130974,-9628.718142
250.936238,-612.562586,421.136778,-9781.858789
250.939483,-382.851616,1339.980656,-9245.866526
250.942728,-382.851616,689.132909,-10145.567824
250.945973,287.138712,1703.689691,-9169.296203
250.949218,880.558717,19.142581,-9686.145885
250.952463,1493.121302,1129.412267,-9360.722011
250.955708,1071.984525,-995.414202,-9781.858789
250.958953,1990.828403,1148.554848,-9265.009107
250.962198,-363.709035,708.275490,-10145.567824
250.965443,-172.283227,344.566454,-9418.149754
250.968688,-57.427742,325.423874,-9686.145885
250.971933,-497.707101,1378.265818,-9934.999435
250.975178,1435.693560,1454.836141,-9265.009107
250.978423,2105.683888,-114.855485,-9647.860723
250.981668,1359.123237,1493.121302,-9265.009107
250.984913,76.570323,287.138712,-9954.142016
250.988158,-880.558717,1320.838075,-9226.723946
250.991403,-153.140646,650.847747,-10030.712339
250.994648,-1741.974853,1263.410333,-9781.858789
250.997893,-497.707101,976.271621,-9399.007173
251.001138,880.558717,440.279358,-9724.431046
251.004383,1014.556782,1646.261949,-9169.296203
251.007628,631.705166,-1378.265818,-9934.999435
251.010873,1914.258080,440.279358,-9418.149754
251.014118,899.701298,401.994197,-10030.712339
251.017363,-516.849682,1033.699363,-9494.720077
251.020608,-555.134843,937.986459,-9533.005238
251.023853,478.564520,842.273555,-9915.856854
251.027098,401.994197,957.129040,-9552.147819
251.030343,1091.127106,153.140646,-9360.722011
251.033599,1588.834206,1071.984525,-9360.722011
251.036855,861.416136,-1301.695494,-10126.425243
251.040111,306.281293,2316.252277,-9188.438784
251.043368,-880.558717,440.279358,-10222.138147
251.046624,287.138712,937.986459,-9188.438784
251.049880,401.994197,-229.710970,-9896.714274
251.053136,-191.425808,1646.261949,-9724.431046
251.056392,1282.552914,1359.123237,-9226.723946
251.059649,1741.974853,172.283227,-9494.720077
251.062905,1167.697429,1473.978722,-9284.151688
251.066161,-172.283227,-133.998066,-10183.852986
251.069417,-880.558717,1684.547110,-9131.011042
251.072674,-363.709035,172.283227,-9820.143950
251.075930,-937.986459,2258.824534,-9533.005238
251.079186,-689.132909,-38.285162,-9667.003304
251.082442,1052.841944,1320.838075,-9188.438784
251.085698,1071.984525,784.845813,-9743.573627
251.088955,535.992262,-784.845813,-9743.573627
251.092211,1741.974853,153.140646,-9437.292334
251.095467,555.134843,650.847747,-10126.425243
251.098723,-650.847747,1416.550979,-9379.864592
251.101980,-535.992262,229.710970,-9801.001370
251.105236,937.986459,1435.693560,-9533.005238
251.108492,1550.549045,784.845813,-9552.147819
251.111748,1493.121302,746.560651,-9150.153622
251.115004,1244.267752,459.421939,-9399.007173
251.118261,287.138712,-631.705166,-10145.567824
251.121517,478.564520,1990.828403,-9226.723946
251.124773,-1014.556782,344.566454,-10068.997501
251.128029,95.712904,1818.545176,-9284.151688
251.131285,421.136778,-918.843878,-10088.140082
251.134542,133.998066,1703.689691,-9207.581365
251.137808,1665.404530,459.421939,-9475.577496
251.141073,1263.410333,248.853550,-9303.294269
251.144339,1052.841944,784.845813,-9456.434915
251.147605,-133.998066,344.566454,-9954.142016
251.150871,-1148.554848,1895.115499,-9303.294269
251.154137,-401.994197,-76.570323,-9839.286531
251.157403,325.423874,2718.246474,-9494.720077
251.160669,-880.558717,-248.853550,-9915.856854
251.163934,1780.260014,1703.689691,-9035.298138
251.167200,842.273555,382.851616,-9954.142016
251.170466,363.709035,574.277424,-9437.292334
251.173732,1971.685822,-516.849682,-9609.575562
251.176998,-95.712904,1033.699363,-9915.856854
251.180264,-842.273555,1569.691626,-9494.720077
251.183530,-248.853550,38.285162,-9896.714274
251.186795,1014.556782,1703.689691,-9092.725880
251.190061,1569.691626,267.996131,-9858.429112
251.193327,1665.404530,1550.549045,-8863.014910
251.196593,1990.828403,-229.710970,-9571.290400
251.199859,421.136778,1091.127106,-9686.145885
251.203125,172.283227,708.275490,-9552.147819
251.206391,-899.701298,861.416136,-9628.718142
251.209657,-593.420005,2660.818731,-9437.292334
251.212922,-344.566454,-478.564520,-10126.425243
251.268583,-363.709035,153.140646,-9801.001370
251.271857,1148.554848,1665.404530,-9131.011042
251.275131,1799.402595,-191.425808,-9858.429112
251.278405,1225.125171,1071.984525,-9245.866526
251.281678,1225.125171,-861.416136,-9743.573627
251.284952,1205.982590,1741.974853,-9552.147819
251.288226,-382.851616,363.709035,-9858.429112
251.291500,191.425808,401.994197,-9379.864592
251.294774,248.853550,1703.689691,-9647.860723
251.298047,612.562586,842.273555,-9973.284597
251.301321,440.279358,1167.697429,-9188.438784
251.304595,1550.549045,306.281293,-9552.147819
251.307869,1205.982590,746.560651,-9552.147819
251.311142,19.142581,57.427742,-9839.286531
251.314416,-669.990328,1378.265818,-9284.151688
251.317690,-421.136778,1282.552914,-9858.429112
251.347210,-459.421939,1205.982590,-9647.860723
251.350490,803.988394,325.423874,-10030.712339
251.353771,1148.554848,1129.412267,-9322.436850
251.357051,1780.260014,153.140646,-9647.860723
251.360331,1914.258080,1397.408398,-9437.292334
251.363611,-57.427742,-478.564520,-9954.142016
251.366891,478.564520,1837.687757,-9303.294269
251.370171,-650.847747,976.271621,-10011.569758
251.373451,-669.990328,2048.256146,-8958.727814
251.376731,-133.998066,172.283227,-9973.284597
251.380011,133.998066,861.416136,-9781.858789
251.383291,1607.976787,440.279358,-8997.012976
251.386571,1282.552914,-210.568389,-9896.714274
251.389851,1301.695494,1493.121302,-9609.575562
251.393131,-478.564520,-153.140646,-9858.429112
251.396411,-631.705166,1703.689691,-9131.011042
251.399691,-1014.556782,382.851616,-9954.142016
251.402971,823.130974,669.990328,-9934.999435
251.406251,38.285162,535.992262,-9494.720077
251.409531,1550.549045,842.273555,-9360.722011
251.412811,1148.554848,363.709035,-9667.003304
251.416092,497.707101,114.855485,-9667.003304
251.419372,1225.125171,1435.693560,-9418.149754
251.422652,-306.281293,746.560651,-10088.140082
251.425912,-1148.554848,1875.972918,-9073.583299
251.429173,114.855485,516.849682,-9839.286531
251.432434,1320.838075,1282.552914,-9724.431046
251.435695,1531.406464,210.568389,-9265.009107
251.438955,918.843878,1033.699363,-9131.011042
251.442216,1091.127106,153.140646,-9762.716208
251.445477,765.703232,-421.136778,-9934.999435
251.448738,-746.560651,2373.680019,-9092.725880
251.451998,535.992262,-440.279358,-10202.995566
251.455259,-133.998066,784.845813,-9456.434915
251.458520,-555.134843,612.562586,-9762.716208
251.461781,1397.408398,1320.838075,-9494.720077
251.465042,1550.549045,535.992262,-9494.720077
251.468302,363.709035,-267.996131,-9705.288466
251.471563,-267.996131,1665.404530,-9552.147819
251.474824,-421.136778,421.136778,-9820.143950
251.478085,-746.560651,1684.547110,-9226.723946
251.481345,-38.285162,114.855485,-9973.284597
251.484606,210.568389,2220.539373,-9341.579430
251.487867,2086.541307,-823.130974,-9954.142016
251.491128,1014.556782,1895.115499,-8939.585234
251.494388,1186.840010,382.851616,-9781.858789
251.497649,1320.838075,95.712904,-9590.432981
251.500910,-325.423874,1473.978722,-9379.864592
251.504171,-669.990328,535.992262,-9954.142016
251.507431,-669.990328,1588.834206,-9188.438784
251.510692,363.709035,-76.570323,-10030.712339
251.513953,1895.115499,1550.549045,-9399.007173
251.517214,1244.267752,-555.134843,-9609.575562
251.520474,1837.687757,574.277424,-9360.722011
251.523735,1646.261949,-784.845813,-10183.852986
251.526996,-861.416136,1646.261949,-9399.007173
251.530240,267.996131,0.000000,-9571.290400
251.533484,325.423874,669.990328,-9858.429112
251.536728,114.855485,2392.822600,-9513.862658
251.539972,363.709035,-19.142581,-9705.288466
251.543216,1607.976787,1952.543242,-9035.298138
251.546460,1244.267752,-689.132909,-10222.138147
251.549704,57.427742,1225.125171,-9150.153622
251.552948,-880.558717,765.703232,-9801.001370
251.556192,-248.853550,1110.269686,-9801.001370
251.559436,-918.843878,459.421939,-9647.860723
251.562680,-650.847747,1339.980656,-9437.292334
251.565924,2163.111630,1205.982590,-9667.003304
251.569168,746.560651,114.855485,-9571.290400
251.572412,1493.121302,1320.838075,-9016.155557
251.575656,2143.969050,-593.420005,-10126.425243
251.578900,344.566454,1454.836141,-9379.864592
251.582144,-976.271621,593.420005,-9552.147819
251.585388,-401.994197,1167.697429,-9705.288466
251.588632,-497.707101,727.418070,-9762.716208
251.591876,210.568389,363.709035,-9475.577496
251.595120,1550.549045,1435.693560,-9245.866526
251.598364,1933.400661,-918.843878,-9858.429112
251.601608,1263.410333,1359.123237,-9322.436850
251.604852,-497.707101,76.570323,-10107.282662
251.608096,631.705166,1129.412267,-9379.864592
251.611340,-19.142581,-133.998066,-9934.999435
251.614584,-1091.127106,1875.972918,-9552.147819
251.617828,325.423874,1416.550979,-9609.575562
251.621072,1473.978722,-210.568389,-9418.149754
251.624316,1416.550979,1225.125171,-9226.723946
251.627560,842.273555,-497.707101,-10145.567824
251.630804,-478.564520,1818.545176,-9169.296203
251.634033,-555.134843,19.142581,-9934.999435
251.637263,95.712904,1646.261949,-9552.147819
251.640493,-1244.267752,689.132909,-9475.577496
251.643722,937.986459,861.416136,-9609.575562
251.646952,1167.697429,976.271621,-9647.860723
251.650181,1052.841944,172.283227,-9379.864592
251.653411,1646.261949,440.279358,-9360.722011
251.656640,689.132909,574.277424,-9801.001370
251.659870,-976.271621,1703.689691,-9456.434915
251.663099,-555.134843,133.998066,-9667.003304
251.666329,440.279358,1473.978722,-9513.862658
251.669558,1148.554848,-38.285162,-9934.999435
251.672788,1148.554848,1588.834206,-9035.298138
251.676017,2124.826469,574.277424,-9456.434915
251.679247,1493.121302,-459.421939,-9915.856854
251.682476,-669.990328,1856.830338,-9169.296203
251.685706,133.998066,-535.992262,-10107.282662
251.688936,-172.283227,1550.549045,-9628.718142
251.692165,-1225.125171,421.136778,-9820.143950
251.695395,574.277424,1378.265818,-9092.725880
251.698624,1837.687757,669.990328,-9667.003304
251.701854,1033.699363,421.136778,-9801.001370
251.705083,229.710970,937.986459,-9150.153622
251.708313,957.129040,669.990328,-9915.856854
251.711542,-995.414202,1665.404530,-9571.290400
251.714772,-727.418070,-363.709035,-9839.286531
251.718001,76.570323,2450.250342,-9284.151688
251.721231,1225.125171,-746.560651,-10049.854920
251.724460,1091.127106,1416.550979,-9111.868461
251.727690,2316.252277,76.570323,-9781.858789
251.730919,2373.680019,593.420005,-9571.290400
251.734149,229.710970,976.271621,-9437.292334
251.737365,-1359.123237,612.562586,-9762.716208
251.740582,-459.421939,1531.406464,-9743.573627
251.743798,-535.992262,114.855485,-9896.714274
251.747015,440.279358,2335.394858,-8901.300072
251.750231,1837.687757,-957.129040,-10030.712339
251.753448,2105.683888,2565.105827,-8729.016845
251.756664,1761.117434,-1052.841944,-9992.427178
251.759881,746.560651,1205.982590,-9437.292334
251.788830,1607.976787,-918.843878,-9705.288466
251.792046,1703.689691,1703.689691,-9341.579430
251.795263,-784.845813,-248.853550,-10049.854920
251.798479,-555.134843,1320.838075,-9284.151688
251.801696,-1416.550979,1665.404530,-9915.856854
251.804912,-995.414202,1378.265818,-9303.294269
251.808129,1627.119368,937.986459,-9341.579430
251.811345,1952.543242,267.996131,-10049.854920
251.814562,1416.550979,1033.699363,-9131.011042
251.817778,861.416136,-842.273555,-9877.571693
251.820995,1129.412267,1282.552914,-9379.864592
251.824211,-344.566454,248.853550,-10164.710405
251.827428,-1014.556782,1301.695494,-9475.577496
251.830644,-133.998066,1110.269686,-9341.579430
251.833861,1856.830338,19.142581,-10183.852986
251.837077,1339.980656,1914.258080,-8863.014910
251.840282,2450.250342,-516.849682,-9590.432981
251.843488,1722.832272,765.703232,-9628.718142
251.846693,-612.562586,133.998066,-10049.854920
251.849899,-1263.410333,1378.265818,-8997.012976
251.853104,-19.142581,363.709035,-10222.138147
251.856309,-765.703232,1914.258080,-9628.718142
251.859515,-191.425808,784.845813,-9322.436850
251.862720,1454.836141,669.990328,-9552.147819
251.865926,1301.695494,1665.404530,-9245.866526
251.869131,1071.984525,-689.132909,-9360.722011
251.872336,937.986459,1914.258080,-9169.296203
251.875542,-1091.127106,-497.707101,-10317.851051
251.878747,-957.129040,1339.980656,-9111.868461
251.881953,344.566454,746.560651,-9858.429112
251.885158,2392.822600,784.845813,-9839.286531
251.888363,669.990328,459.421939,-9513.862658
251.891569,1607.976787,287.138712,-9590.432981
251.894774,1359.123237,1339.980656,-9341.579430
251.897980,382.851616,-803.988394,-10241.280728
251.901185,-746.560651,2297.109696,-8958.727814
251.904390,-76.570323,-957.129040,-10202.995566
251.907596,229.710970,2584.248408,-9399.007173
251.910801,267.996131,-344.566454,-9973.284597
251.914007,2373.680019,937.986459,-9303.294269
251.917212,1952.543242,1071.984525,-9303.294269
251.920417,937.986459,631.705166,-9303.294269
251.923623,-401.994197,1435.693560,-9418.149754
251.926828,-765.703232,-382.851616,-10202.995566
251.930034,-765.703232,1741.974853,-9016.155557
251.933239,-57.427742,-19.142581,-10088.140082
251.936444,650.847747,2048.256146,-9341.579430
251.939650,421.136778,-325.423874,-9781.858789
251.942846,2258.824534,995.414202,-9322.436850
251.946042,823.130974,555.134843,-9552.147819
251.949238,516.849682,-478.564520,-9877.571693
251.952434,-57.427742,1244.267752,-9628.718142
251.955630,-555.134843,574.277424,-10068.997501
251.958826,746.560651,1531.406464,-9188.438784
251.962022,363.709035,287.138712,-9896.714274
251.965218,995.414202,1531.406464,-9456.434915
251.968414,803.988394,-287.138712,-9801.001370
251.971610,2220.539373,631.705166,-9322.436850
251.974806,1014.556782,631.705166,-9705.288466
251.978002,133.998066,153.140646,-9820.143950
251.981198,-899.701298,2335.394858,-9092.725880
251.984394,287.138712,-746.560651,-10260.423309
251.987590,-19.142581,2354.537438,-9188.438784
251.990786,440.279358,-287.138712,-9724.431046
251.993982,1741.974853,1588.834206,-9169.296203
251.997178,535.992262,-248.853550,-9915.856854
252.000374,57.427742,95.712904,-8997.012976
252.003570,1282.552914,478.564520,-9513.862658
252.006766,-133.998066,669.990328,-10202.995566
252.009962,-1091.127106,2029.113565,-9054.440718
252.013158,-153.140646,-306.281293,-9954.142016
252.016354,1512.263883,2354.537438,-9360.722011
252.019550,95.712904,-229.710970,-9571.290400
252.022746,2488.535504,1646.261949,-9169.296203
252.025942,76.570323,-19.142581,-10107.282662
252.029138,-478.564520,918.843878,-9303.294269
252.032334,-19.142581,708.275490,-9341.579430
252.035530,-440.279358,1531.406464,-9839.286531
252.038726,-669.990328,1110.269686,-9379.864592
252.041922,440.279358,172.283227,-9628.718142
252.045110,1990.828403,1952.543242,-9188.438784
252.048298,1722.832272,-765.703232,-10088.140082
252.051486,1914.258080,1569.691626,-8748.159426
252.054674,669.990328,-267.996131,-9858.429112
252.057862,689.132909,918.843878,-9839.286531
252.061050,-1071.984525,1665.404530,-9456.434915
252.064238,153.140646,191.425808,-9667.003304
252.067427,-287.138712,1205.982590,-9724.431046
252.070615,133.998066,-153.140646,-9915.856854
252.073803,1741.974853,1263.410333,-8920.442653
252.076991,1971.685822,-172.283227,-10164.710405
252.080179,0.000000,1282.552914,-9590.432981
252.083367,-191.425808,57.427742,-9552.147819
252.086555,-459.421939,1339.980656,-9781.858789
252.089743,-937.986459,689.132909,-9609.575562
252.092932,-287.138712,957.129040,-9437.292334
252.096120,1856.830338,1454.836141,-9647.860723
252.099308,114.855485,765.703232,-9571.290400
252.102496,1339.980656,995.414202,-8882.157491
252.105684,1646.261949,-842.273555,-10088.140082
252.108872,593.420005,1684.547110,-9475.577496
252.112060,-842.273555,153.140646,-9858.429112
252.115249,-516.849682,1071.984525,-9475.577496
252.118437,-344.566454,918.843878,-9781.858789
252.121625,421.136778,172.283227,-9743.573627
252.124813,1493.121302,1646.261949,-8977.870395
252.128001,1627.119368,-612.562586,-9877.571693
252.131189,1301.695494,1071.984525,-9475.577496
252.134377,191.425808,-229.710970,-9858.429112
252.137565,-153.140646,2297.109696,-9341.579430
252.140754,-172.283227,-421.136778,-10011.569758
252.143942,-689.132909,1454.836141,-9418.149754
252.147147,880.558717,1129.412267,-9533.005238
252.150353,1550.549045,1014.556782,-9571.290400
252.153559,1320.838075,937.986459,-9131.011042
252.156764,535.992262,-267.996131,-9839.286531
252.159970,287.138712,1167.697429,-9494.720077
252.163176,-535.992262,344.566454,-9667.003304
252.166381,-976.271621,2603.390989,-9647.860723
252.169587,-191.425808,-267.996131,-10164.710405
252.172793,-765.703232,2048.256146,-9054.440718
252.175998,1397.408398,555.134843,-9724.431046
252.179204,2143.969050,76.570323,-9513.862658
252.182410,2009.970984,478.564520,-9226.723946
252.185615,535.992262,-421.136778,-9896.714274
252.188821,-344.566454,2163.111630,-9418.149754
252.192027,-669.990328,-133.998066,-9801.001370
252.195232,114.855485,1646.261949,-9226.723946
252.224083,593.420005,1971.685822,-9131.011042
252.227289,957.129040,497.707101,-9915.856854
252.230495,1110.269686,746.560651,-9437.292334
252.233700,1339.980656,-861.416136,-9456.434915
252.236906,1416.550979,459.421939,-9494.720077
252.240112,-669.990328,1301.695494,-9820.143950
252.243317,-306.281293,-114.855485,-9705.288466
252.246523,-1225.125171,2565.105827,-9379.864592
252.275520,363.709035,2392.822600,-9073.583299
252.278741,2220.539373,-689.132909,-9934.999435
252.281962,-784.845813,1416.550979,-9590.432981
252.285182,133.998066,555.134843,-9609.575562
252.288403,-555.134843,459.421939,-9839.286531
252.291624,-1186.840010,2067.398726,-9609.575562
252.294844,153.140646,-133.998066,-9743.573627
252.298065,1531.406464,2201.396792,-8882.157491
252.301286,1301.695494,-1014.556782,-10413.563955
252.304506,1301.695494,1397.408398,-8863.014910
252.307727,918.843878,-1071.984525,-9724.431046
