#time,accel_x,accel_y,accel_z
84034.461837,459.421939,803.988394,-9896.714274
84034.464407,478.564520,880.558717,-9781.858789
84034.466976,765.703232,478.564520,-9954.142016
84034.469545,133.998066,1205.982590,-9877.571693
84034.472114,229.710970,784.845813,-9973.284597
84034.474683,631.705166,784.845813,-10088.140082
84034.477253,210.568389,1110.269686,-9954.142016
84034.479822,478.564520,229.710970,-10068.997501
84034.482391,784.845813,784.845813,-9858.429112
84034.484960,191.425808,1129.412267,-9934.999435
84034.487530,593.420005,-57.427742,-10145.567824
84034.490099,631.705166,1167.697429,-9877.571693
84034.492668,593.420005,535.992262,-10049.854920
84034.495237,114.855485,497.707101,-10030.712339
84034.497806,497.707101,1091.127106,-9781.858789
84034.500376,650.847747,535.992262,-9915.856854
84034.502945,57.427742,535.992262,-10145.567824
84034.505514,191.425808,1167.697429,-9705.288466
84034.508083,440.279358,555.134843,-9762.716208
84034.510652,344.566454,363.709035,-9934.999435
84034.513222,-19.142581,1397.408398,-9743.573627
84034.515791,95.712904,899.701298,-9724.431046
84034.518360,689.132909,19.142581,-9954.142016
84034.520929,-650.847747,2641.676150,-9475.577496
84034.523499,210.568389,574.277424,-9954.142016
84034.526068,861.416136,1071.984525,-9705.288466
84034.528637,-535.992262,2660.818731,-9437.292334
84034.531245,669.990328,-95.712904,-10145.567824
84034.533852,0.000000,2029.113565,-9667.003304
84034.536460,1033.699363,765.703232,-9954.142016
84034.539068,669.990328,1244.267752,-9667.003304
84034.541676,957.129040,363.709035,-9896.714274
84034.544283,861.416136,459.421939,-9954.142016
84034.546891,1071.984525,555.134843,-9839.286531
84034.549499,1263.410333,-38.285162,-9973.284597
84034.552107,918.843878,363.709035,-9781.858789
84034.554714,784.845813,-172.283227,-9839.286531
84034.557322,689.132909,-153.140646,-10107.282662
84034.559930,267.996131,765.703232,-9954.142016
84034.562538,401.994197,574.277424,-10011.569758
84034.565145,459.421939,459.421939,-9954.142016
84034.567753,631.705166,937.986459,-9858.429112
84034.570361,650.847747,574.277424,-9954.142016
84034.572968,784.845813,497.707101,-9973.284597
84034.575576,593.420005,1186.840010,-9973.284597
84034.578184,325.423874,306.281293,-10183.852986
84034.580792,612.562586,574.277424,-9801.001370
84034.583399,459.421939,1339.980656,-9743.573627
84034.586007,191.425808,401.994197,-10183.852986
84034.588615,765.703232,689.132909,-9992.427178
84034.591223,708.275490,1052.841944,-9896.714274
84034.593830,267.996131,-114.855485,-10375.278794
84034.596438,650.847747,1091.127106,-9667.003304
84034.599046,689.132909,899.701298,-9667.003304
84034.601654,76.570323,421.136778,-10336.993632
84034.604261,995.414202,555.134843,-9915.856854
84034.606869,746.560651,1129.412267,-9743.573627
84034.609477,574.277424,-76.570323,-10356.136213
84034.612084,344.566454,1263.410333,-9667.003304
84034.614692,1493.121302,-76.570323,-9934.999435
84034.617300,1225.125171,-95.712904,-10145.567824
84034.619908,574.277424,1301.695494,-9973.284597
84034.622515,1607.976787,-1282.552914,-10260.423309
84034.625123,861.416136,248.853550,-9934.999435
84034.627731,440.279358,535.992262,-9954.142016
84034.630339,765.703232,-784.845813,-10011.569758
84034.632946,133.998066,1531.406464,-9781.858789
84034.635575,765.703232,516.849682,-9992.427178
84034.638204,172.283227,421.136778,-9896.714274
84034.640832,-344.566454,1397.408398,-9820.143950
84034.643461,-229.710970,1167.697429,-9724.431046
84034.646090,267.996131,1091.127106,-9801.001370
84034.648718,76.570323,1569.691626,-10126.425243
84034.651347,-95.712904,1856.830338,-9705.288466
84034.653976,535.992262,1512.263883,-9667.003304
84034.656604,57.427742,957.129040,-9915.856854
84034.659233,-325.423874,1359.123237,-9858.429112
84034.661862,229.710970,669.990328,-10088.140082
84034.664490,823.130974,497.707101,-9896.714274
84034.667119,172.283227,1359.123237,-9628.718142
84034.669748,631.705166,363.709035,-10222.138147
84034.672376,459.421939,727.418070,-9743.573627
84034.675005,306.281293,1339.980656,-9762.716208
84034.677634,459.421939,344.566454,-10356.136213
84034.680262,478.564520,746.560651,-9839.286531
84034.682891,516.849682,995.414202,-9762.716208
84034.685520,172.283227,363.709035,-10030.712339
84034.688148,631.705166,861.416136,-9896.714274
84034.690777,555.134843,1263.410333,-9858.429112
84034.693406,325.423874,0.000000,-10126.425243
84034.696034,593.420005,899.701298,-9724.431046
84034.698663,401.994197,1033.699363,-9724.431046
84034.701292,95.712904,229.710970,-10088.140082
84034.703920,363.709035,899.701298,-9954.142016
84034.706549,593.420005,497.707101,-9973.284597
84034.709178,401.994197,382.851616,-10030.712339
84034.711806,95.712904,1359.123237,-9724.431046
84034.714435,-229.710970,1052.841944,-9609.575562
84034.717064,612.562586,401.994197,-10222.138147
84034.719692,-555.134843,2813.959378,-9705.288466
84034.722321,114.855485,172.283227,-10107.282662
84034.724949,555.134843,1473.978722,-9762.716208
84034.727578,-172.283227,1761.117434,-9552.147819
84034.730207,459.421939,57.427742,-10183.852986
84034.732835,0.000000,2048.256146,-9839.286531
84034.735464,918.843878,823.130974,-9954.142016
84034.738093,516.849682,880.558717,-9628.718142
84034.740735,803.988394,555.134843,-9801.001370
84034.743377,899.701298,497.707101,-10030.712339
84034.746019,1052.841944,650.847747,-9839.286531
84034.748662,1282.552914,0.000000,-10011.569758
84034.751304,708.275490,382.851616,-9877.571693
84034.753946,1186.840010,-612.562586,-9934.999435
84034.756588,593.420005,133.998066,-10011.569758
84034.759230,153.140646,401.994197,-10145.567824
84034.761872,459.421939,784.845813,-10030.712339
84034.764515,689.132909,38.285162,-9973.284597
84034.767157,535.992262,995.414202,-9686.145885
84034.769799,669.990328,459.421939,-10030.712339
84034.772441,727.418070,210.568389,-10126.425243
84034.775083,555.134843,1397.408398,-9915.856854
84034.777725,382.851616,267.996131,-10088.140082
84034.780368,535.992262,497.707101,-9724.431046
84034.783010,631.705166,1301.695494,-9571.290400
84034.785652,363.709035,497.707101,-10202.995566
84034.788294,612.562586,957.129040,-10068.997501
84034.790936,612.562586,1110.269686,-9628.718142
84034.793579,344.566454,0.000000,-10126.425243
84034.796221,325.423874,899.701298,-9858.429112
84034.798863,957.129040,880.558717,-9820.143950
84034.801505,459.421939,535.992262,-10164.710405
84034.804147,899.701298,440.279358,-9973.284597
84034.806789,248.853550,1282.552914,-9494.720077
84034.809432,746.560651,95.712904,-10030.712339
84034.812074,1052.841944,1186.840010,-9686.145885
84034.814716,1129.412267,210.568389,-9954.142016
84034.817358,899.701298,-133.998066,-10145.567824
84034.820000,746.560651,1339.980656,-9552.147819
84034.822642,1282.552914,-650.847747,-9781.858789
84034.825285,-38.285162,1033.699363,-9896.714274
84034.827927,861.416136,210.568389,-9973.284597
84034.830569,899.701298,57.427742,-9858.429112
84034.833211,459.421939,555.134843,-10011.569758
84034.835853,-440.279358,1339.980656,-9781.858789
84034.838496,555.134843,0.000000,-9820.143950
84034.841138,-267.996131,1761.117434,-9820.143950
84034.843780,-95.712904,1320.838075,-9858.429112
84034.846352,248.853550,1435.693560,-9915.856854
84034.848924,191.425808,1205.982590,-9934.999435
84034.851496,-172.283227,1818.545176,-9571.290400
84034.854068,803.988394,1359.123237,-9801.001370
84034.856640,478.564520,823.130974,-10145.567824
84034.859211,57.427742,1110.269686,-9820.143950
84034.861783,535.992262,650.847747,-10088.140082
84034.864355,497.707101,478.564520,-9858.429112
84034.866927,344.566454,1244.267752,-9667.003304
84034.869499,612.562586,555.134843,-10088.140082
84034.872071,708.275490,421.136778,-9934.999435
84034.874643,133.998066,1473.978722,-9628.718142
84034.877215,574.277424,267.996131,-10260.423309
84034.879787,555.134843,497.707101,-9839.286531
84034.882359,555.134843,1359.123237,-9820.143950
84034.884931,114.855485,287.138712,-10164.710405
84034.887503,765.703232,612.562586,-9801.001370
84034.890074,363.709035,1205.982590,-9801.001370
84034.892646,95.712904,363.709035,-10107.282662
84034.895218,344.566454,861.416136,-9839.286531
84034.897790,325.423874,1091.127106,-9647.860723
84034.900362,727.418070,306.281293,-9973.284597
84034.902934,153.140646,1148.554848,-9858.429112
84034.905506,-191.425808,1052.841944,-9667.003304
84034.908078,535.992262,363.709035,-9973.284597
84034.910650,-631.705166,2392.822600,-9609.575562
84034.913222,229.710970,248.853550,-10011.569758
84034.915794,440.279358,1684.547110,-9915.856854
84034.918366,-133.998066,1282.552914,-9915.856854
84034.920937,593.420005,153.140646,-10049.854920
84034.923509,-191.425808,1665.404530,-9934.999435
84034.926081,861.416136,555.134843,-10145.567824
84034.928653,765.703232,823.130974,-9743.573627
84034.931225,880.558717,325.423874,-10202.995566
84034.933797,842.273555,880.558717,-9915.856854
84034.936369,1627.119368,478.564520,-9801.001370
84034.938941,1148.554848,0.000000,-10068.997501
84034.941513,842.273555,344.566454,-9954.142016
84034.944085,1071.984525,-19.142581,-9877.571693
84034.946657,421.136778,-191.425808,-10049.854920
84034.949253,401.994197,172.283227,-10030.712339
84034.951849,784.845813,631.705166,-9877.571693
84034.954444,574.277424,823.130974,-10068.997501
84034.957040,191.425808,650.847747,-9801.001370
84034.959636,669.990328,823.130974,-9781.858789
84034.962232,708.275490,516.849682,-10049.854920
84034.964828,114.855485,918.843878,-9954.142016
84034.967424,669.990328,861.416136,-9896.714274
84034.970020,555.134843,497.707101,-9915.856854
84034.972616,267.996131,1052.841944,-9762.716208
84034.975212,478.564520,650.847747,-10260.423309
84034.977808,746.560651,459.421939,-9973.284597
84034.980404,401.994197,1263.410333,-9552.147819
84034.983000,344.566454,459.421939,-9973.284597
84034.985596,1052.841944,306.281293,-9934.999435
84034.988192,248.853550,1761.117434,-9686.145885
84034.990788,880.558717,57.427742,-10049.854920
84034.993384,382.851616,937.986459,-9781.858789
84034.995980,516.849682,899.701298,-9801.001370
84034.998576,880.558717,727.418070,-9801.001370
84035.001172,1186.840010,95.712904,-10068.997501
84035.003767,937.986459,421.136778,-9954.142016
84035.006363,612.562586,1033.699363,-9705.288466
84035.008959,1301.695494,-497.707101,-9896.714274
84035.011555,-114.855485,1301.695494,-9877.571693
84035.014151,803.988394,-325.423874,-10088.140082
84035.016747,1033.699363,459.421939,-9992.427178
84035.019343,765.703232,535.992262,-9992.427178
84035.021939,-229.710970,401.994197,-9973.284597
84035.024535,210.568389,440.279358,-10030.712339
84035.027131,-153.140646,1856.830338,-9571.290400
84035.029727,-248.853550,555.134843,-10164.710405
84035.032323,-153.140646,1512.263883,-10164.710405
84035.034919,210.568389,1052.841944,-9877.571693
84035.037515,-267.996131,1493.121302,-9724.431046
84035.040111,823.130974,1244.267752,-10030.712339
84035.042707,478.564520,1244.267752,-9839.286531
84035.045303,421.136778,631.705166,-10107.282662
84035.047899,248.853550,976.271621,-9954.142016
84035.050494,459.421939,976.271621,-9743.573627
84035.053039,478.564520,210.568389,-10068.997501
84035.055588,133.998066,1263.410333,-9839.286531
84035.058137,746.560651,631.705166,-9858.429112
84035.060685,325.423874,746.560651,-10011.569758
84035.063234,229.710970,1110.269686,-9877.571693
84035.065783,708.275490,765.703232,-9801.001370
84035.068331,516.849682,574.277424,-9820.143950
84035.070880,401.994197,1148.554848,-9762.716208
84035.073428,344.566454,918.843878,-9992.427178
84035.075977,516.849682,153.140646,-9973.284597
84035.078526,-76.570323,1397.408398,-9571.290400
84035.081074,727.418070,306.281293,-10030.712339
84035.083623,727.418070,478.564520,-9915.856854
84035.086171,-267.996131,1818.545176,-9781.858789
84035.088720,114.855485,823.130974,-9915.856854
84035.091269,957.129040,76.570323,-9934.999435
84035.093817,-612.562586,2565.105827,-9647.860723
84035.096366,-114.855485,306.281293,-10011.569758
84035.098914,1186.840010,1186.840010,-9762.716208
84035.101463,-612.562586,2009.970984,-9628.718142
84035.104012,325.423874,-478.564520,-10241.280728
84035.106560,114.855485,2009.970984,-9628.718142
84035.109109,459.421939,631.705166,-10088.140082
84035.111658,689.132909,727.418070,-9839.286531
84035.114206,1416.550979,459.421939,-10068.997501
84035.116755,1225.125171,842.273555,-9954.142016
84035.119303,1129.412267,497.707101,-9858.429112
84035.121852,1665.404530,344.566454,-10107.282662
84035.124401,803.988394,306.281293,-9858.429112
84035.126949,497.707101,19.142581,-9954.142016
84035.129498,727.418070,-38.285162,-10088.140082
84035.132046,650.847747,-76.570323,-9973.284597
84035.134595,306.281293,421.136778,-9954.142016
84035.137144,363.709035,937.986459,-10011.569758
84035.139692,689.132909,842.273555,-9839.286531
84035.142241,344.566454,287.138712,-9973.284597
84035.144789,574.277424,1052.841944,-9762.716208
84035.147338,708.275490,880.558717,-10030.712339
84035.149887,267.996131,153.140646,-10298.708470
84035.152435,229.710970,1205.982590,-9628.718142
84035.155011,746.560651,574.277424,-9973.284597
84035.157586,516.849682,421.136778,-10068.997501
84035.160161,363.709035,1282.552914,-9762.716208
84035.162736,727.418070,708.275490,-10030.712339
84035.165311,823.130974,0.000000,-10088.140082
84035.167886,248.853550,1244.267752,-9705.288466
84035.170462,497.707101,746.560651,-10011.569758
84035.173037,497.707101,957.129040,-9858.429112
84035.175612,918.843878,306.281293,-9915.856854
84035.178187,1263.410333,153.140646,-10011.569758
84035.180762,765.703232,765.703232,-9896.714274
84035.183338,1033.699363,-880.558717,-10145.567824
84035.185913,842.273555,995.414202,-9915.856854
84035.188488,650.847747,287.138712,-9915.856854
84035.191063,535.992262,516.849682,-9858.429112
84035.193638,478.564520,1512.263883,-9667.003304
84035.196214,1397.408398,-114.855485,-10049.854920
84035.198789,612.562586,478.564520,-10030.712339
84035.201364,-267.996131,1263.410333,-9820.143950
84035.203939,210.568389,-325.423874,-9954.142016
84035.206514,-516.849682,1761.117434,-9820.143950
84035.209090,-306.281293,976.271621,-10030.712339
84035.211665,-76.570323,1512.263883,-9858.429112
84035.214240,95.712904,1052.841944,-10107.282662
84035.216815,248.853550,899.701298,-9992.427178
84035.219390,669.990328,1588.834206,-9858.429112
84035.221965,937.986459,516.849682,-10049.854920
84035.224541,172.283227,555.134843,-10107.282662
84035.227116,421.136778,1014.556782,-9820.143950
84035.229691,574.277424,803.988394,-10030.712339
84035.232266,133.998066,478.564520,-9934.999435
84035.234841,727.418070,899.701298,-9781.858789
84035.237417,555.134843,765.703232,-10241.280728
84035.239992,114.855485,516.849682,-10068.997501
84035.242567,363.709035,1205.982590,-9705.288466
84035.245142,650.847747,574.277424,-9934.999435
84035.247717,325.423874,267.996131,-10088.140082
84035.250293,19.142581,1569.691626,-9820.143950
84035.252868,669.990328,708.275490,-9877.571693
84035.255443,401.994197,478.564520,-10011.569758
84035.257983,382.851616,1148.554848,-9705.288466
84035.260523,574.277424,689.132909,-9781.858789
84035.263063,229.710970,421.136778,-10107.282662
84035.265603,-210.568389,1684.547110,-9686.145885
84035.268143,-153.140646,880.558717,-9896.714274
84035.270683,497.707101,421.136778,-10145.567824
84035.273223,-267.996131,2009.970984,-9647.860723
84035.275763,1014.556782,-267.996131,-10049.854920
84035.278303,325.423874,1933.400661,-9667.003304
84035.280843,-478.564520,957.129040,-9915.856854
84035.283383,401.994197,1014.556782,-9762.716208
84035.285923,1416.550979,803.988394,-9781.858789
84035.288463,363.709035,1320.838075,-9915.856854
84035.291002,746.560651,669.990328,-9820.143950
84035.293542,1646.261949,689.132909,-9877.571693
84035.296082,1129.412267,593.420005,-9992.427178
84035.298622,1110.269686,440.279358,-9762.716208
84035.301162,1071.984525,325.423874,-9801.001370
84035.303702,306.281293,19.142581,-9954.142016
84035.306242,421.136778,344.566454,-9992.427178
84035.308782,593.420005,306.281293,-10088.140082
84035.311322,612.562586,842.273555,-9801.001370
84035.313862,421.136778,612.562586,-9973.284597
84035.316402,708.275490,478.564520,-9973.284597
84035.318942,612.562586,937.986459,-9667.003304
84035.321482,344.566454,421.136778,-10126.425243
84035.324022,727.418070,612.562586,-9992.427178
84035.326562,535.992262,1186.840010,-9686.145885
84035.329102,191.425808,57.427742,-9973.284597
84035.331642,574.277424,1091.127106,-9858.429112
84035.334182,555.134843,1205.982590,-9858.429112
84035.336722,631.705166,-172.283227,-10279.565890
84035.339262,535.992262,1550.549045,-9513.862658
84035.341802,995.414202,363.709035,-9934.999435
84035.344342,114.855485,516.849682,-10126.425243
84035.346882,574.277424,1033.699363,-9934.999435
84035.349422,1110.269686,612.562586,-9743.573627
84035.351962,1052.841944,-440.279358,-10049.854920
84035.354502,612.562586,995.414202,-9743.573627
84035.357042,937.986459,899.701298,-9705.288466
84035.359608,899.701298,-459.421939,-10049.854920
84035.362174,-325.423874,1588.834206,-9820.143950
84035.364741,1148.554848,-612.562586,-9973.284597
84035.367307,918.843878,823.130974,-9820.143950
84035.369873,1071.984525,765.703232,-9973.284597
84035.372440,765.703232,76.570323,-9820.143950
84035.375006,-248.853550,1301.695494,-10011.569758
84035.377572,-229.710970,1014.556782,-9801.001370
84035.380139,-440.279358,708.275490,-9915.856854
84035.382705,-478.564520,1665.404530,-9858.429112
84035.385271,-306.281293,1646.261949,-9781.858789
84035.387838,363.709035,1607.976787,-9762.716208
84035.390404,784.845813,823.130974,-9762.716208
84035.392970,440.279358,1320.838075,-9705.288466
84035.395536,727.418070,669.990328,-10049.854920
84035.398103,306.281293,535.992262,-10030.712339
84035.400669,191.425808,1148.554848,-9934.999435
84035.403235,459.421939,440.279358,-9915.856854
84035.405802,612.562586,459.421939,-9762.716208
84035.408368,440.279358,1512.263883,-9762.716208
84035.410934,363.709035,306.281293,-10202.995566
84035.413501,516.849682,669.990328,-9954.142016
84035.416067,880.558717,1225.125171,-9686.145885
84035.418633,191.425808,363.709035,-10126.425243
84035.421200,612.562586,784.845813,-9973.284597
84035.423766,382.851616,1339.980656,-9781.858789
84035.426332,172.283227,114.855485,-10260.423309
84035.428899,727.418070,555.134843,-9858.429112
84035.431465,76.570323,1320.838075,-9801.001370
84035.434031,-401.994197,459.421939,-10088.140082
84035.436598,957.129040,918.843878,-10049.854920
84035.439164,-535.992262,2163.111630,-9724.431046
84035.441730,95.712904,-267.996131,-10260.423309
84035.444297,784.845813,1780.260014,-9724.431046
84035.446863,-191.425808,1914.258080,-9647.860723
84035.449429,-19.142581,-535.992262,-10451.849117
84035.451996,-382.851616,2048.256146,-9781.858789
84035.454562,516.849682,401.994197,-10107.282662
84035.457128,669.990328,401.994197,-9934.999435
84035.459695,899.701298,1588.834206,-9820.143950
84035.462281,1244.267752,497.707101,-9934.999435
84035.464868,1531.406464,861.416136,-10049.854920
84035.467454,1607.976787,535.992262,-10030.712339
84035.470041,1205.982590,-76.570323,-10011.569758
84035.472627,401.994197,440.279358,-9801.001370
84035.475214,57.427742,-133.998066,-10030.712339
84035.477800,880.558717,-306.281293,-10068.997501
84035.480387,593.420005,708.275490,-9896.714274
84035.482973,76.570323,880.558717,-9762.716208
84035.485560,727.418070,803.988394,-9820.143950
84035.488146,401.994197,172.283227,-9954.142016
84035.490732,248.853550,1225.125171,-9533.005238
84035.493319,478.564520,823.130974,-10049.854920
84035.495905,612.562586,191.425808,-10049.854920
84035.498492,344.566454,1320.838075,-9360.722011
84035.501078,650.847747,363.709035,-9915.856854
84035.503665,631.705166,689.132909,-9973.284597
84035.506251,555.134843,880.558717,-9801.001370
84035.508838,650.847747,612.562586,-9973.284597
84035.511424,708.275490,153.140646,-9915.856854
84035.514011,19.142581,1244.267752,-9609.575562
84035.516597,918.843878,-153.140646,-10145.567824
84035.519184,1359.123237,669.990328,-10011.569758
84035.521770,631.705166,516.849682,-10088.140082
84035.524357,880.558717,-708.275490,-10011.569758
84035.526943,899.701298,1263.410333,-9628.718142
84035.529530,669.990328,-19.142581,-10030.712339
84035.532116,497.707101,1033.699363,-9839.286531
84035.534703,1091.127106,823.130974,-9954.142016
84035.537289,880.558717,-57.427742,-9915.856854
84035.539876,631.705166,478.564520,-10011.569758
84035.542462,631.705166,708.275490,-9992.427178
84035.545064,19.142581,459.421939,-9839.286531
84035.547666,-689.132909,1607.976787,-9781.858789
84035.550269,-535.992262,727.418070,-10088.140082
84035.552871,-669.990328,1301.695494,-9934.999435
84035.555473,153.140646,1148.554848,-10030.712339
84035.558075,708.275490,1990.828403,-9762.716208
84035.560677,650.847747,1282.552914,-9877.571693
84035.563279,612.562586,57.427742,-10260.423309
84035.565881,229.710970,880.558717,-9896.714274
84035.568484,689.132909,1110.269686,-9915.856854
84035.571086,267.996131,133.998066,-10317.851051
84035.573688,114.855485,1454.836141,-9360.722011
84035.576290,612.562586,899.701298,-9801.001370
84035.578892,440.279358,325.423874,-10298.708470
84035.581494,172.283227,1435.693560,-9781.858789
84035.584096,727.418070,382.851616,-9781.858789
84035.586699,133.998066,650.847747,-9858.429112
84035.589301,114.855485,1282.552914,-9705.288466
84035.591903,746.560651,803.988394,-9781.858789
84035.594505,650.847747,612.562586,-10088.140082
84035.597107,-76.570323,1244.267752,-9762.716208
84035.599709,287.138712,306.281293,-9858.429112
84035.602311,57.427742,1359.123237,-9820.143950
84035.604914,-95.712904,382.851616,-9992.427178
84035.607516,287.138712,1512.263883,-9973.284597
84035.610118,248.853550,1263.410333,-9858.429112
84035.612720,957.129040,95.712904,-9858.429112
84035.615322,0.000000,2431.107762,-9513.862658
84035.617924,-172.283227,95.712904,-10068.997501
84035.620526,-459.421939,880.558717,-9934.999435
84035.623129,497.707101,1014.556782,-9915.856854
84035.625731,401.994197,478.564520,-9934.999435
84035.628333,1186.840010,765.703232,-9839.286531
84035.630935,1186.840010,1244.267752,-9877.571693
84035.633537,2086.541307,861.416136,-9915.856854
84035.636139,1435.693560,861.416136,-10011.569758
84035.638741,708.275490,-363.709035,-10049.854920
84035.641344,535.992262,555.134843,-9801.001370
84035.643946,287.138712,325.423874,-9801.001370
84035.646548,325.423874,-497.707101,-10222.138147
84035.649117,746.560651,421.136778,-9992.427178
84035.651686,727.418070,957.129040,-9839.286531
84035.654255,-19.142581,382.851616,-9973.284597
84035.656824,727.418070,497.707101,-9915.856854
84035.659393,669.990328,1129.412267,-9609.575562
84035.661962,191.425808,478.564520,-10164.710405
84035.664532,497.707101,842.273555,-10126.425243
84035.667101,669.990328,784.845813,-9667.003304
84035.669670,669.990328,38.285162,-10068.997501
84035.672239,267.996131,1301.695494,-9762.716208
84035.674808,918.843878,555.134843,-9934.999435
84035.677377,306.281293,899.701298,-10030.712339
84035.679946,172.283227,1129.412267,-9896.714274
84035.682515,1320.838075,172.283227,-9839.286531
84035.685084,995.414202,306.281293,-9973.284597
84035.687653,440.279358,918.843878,-10030.712339
84035.690222,1205.982590,-497.707101,-10049.854920
84035.692792,765.703232,248.853550,-9896.714274
84035.695361,76.570323,976.271621,-9820.143950
84035.697930,899.701298,114.855485,-9896.714274
84035.700499,765.703232,1646.261949,-9571.290400
84035.703068,1186.840010,-76.570323,-9992.427178
84035.705637,1148.554848,574.277424,-9973.284597
84035.708206,478.564520,669.990328,-9801.001370
84035.710775,-440.279358,459.421939,-9724.431046
84035.713344,-861.416136,1435.693560,-9667.003304
84035.715913,-344.566454,1263.410333,-9934.999435
84035.718483,-727.418070,1588.834206,-9954.142016
84035.721052,497.707101,1607.976787,-9877.571693
84035.723621,746.560651,1225.125171,-9628.718142
84035.726190,344.566454,1684.547110,-9705.288466
84035.728759,574.277424,382.851616,-10088.140082
84035.731328,574.277424,459.421939,-9877.571693
84035.733897,555.134843,1435.693560,-9896.714274
84035.736466,421.136778,325.423874,-10107.282662
84035.739035,516.849682,727.418070,-9667.003304
84035.741604,574.277424,803.988394,-9801.001370
84035.744174,306.281293,612.562586,-10241.280728
84035.746743,650.847747,784.845813,-10107.282662
84035.749312,325.423874,976.271621,-9877.571693
84035.751897,306.281293,535.992262,-9781.858789
84035.754483,803.988394,689.132909,-10011.569758
84035.757069,631.705166,995.414202,-10088.140082
84035.759654,95.712904,899.701298,-10107.282662
84035.762240,363.709035,421.136778,-10145.567824
84035.764826,-38.285162,1225.125171,-9705.288466
84035.767411,-19.142581,-57.427742,-10107.282662
84035.769997,344.566454,1607.976787,-10068.997501
84035.772583,114.855485,1301.695494,-9954.142016
84035.775168,1091.127106,-210.568389,-10030.712339
84035.777754,38.285162,2335.394858,-9667.003304
84035.780340,76.570323,-38.285162,-10049.854920
84035.782925,-287.138712,784.845813,-9954.142016
84035.785511,153.140646,1205.982590,-9915.856854
84035.788097,248.853550,153.140646,-10107.282662
84035.790683,976.271621,803.988394,-9686.145885
84035.793268,1263.410333,1473.978722,-9724.431046
84035.795854,1875.972918,899.701298,-9954.142016
84035.798440,1703.689691,861.416136,-9954.142016
84035.801025,727.418070,153.140646,-10011.569758
84035.803611,306.281293,478.564520,-9590.432981
84035.806197,363.709035,382.851616,-9801.001370
84035.808782,382.851616,133.998066,-10030.712339
84035.811368,708.275490,306.281293,-9973.284597
84035.813954,765.703232,689.132909,-9858.429112
84035.816539,19.142581,1244.267752,-9667.003304
84035.819125,478.564520,555.134843,-9934.999435
84035.821711,899.701298,459.421939,-9743.573627
84035.824296,401.994197,1473.978722,-9686.145885
84035.826882,401.994197,574.277424,-10222.138147
84035.829468,765.703232,612.562586,-9743.573627
84035.832053,535.992262,1186.840010,-9475.577496
84035.834639,516.849682,421.136778,-10088.140082
84035.837225,708.275490,1033.699363,-10049.854920
84035.839810,191.425808,1320.838075,-9839.286531
84035.842396,861.416136,-172.283227,-9954.142016
84035.844982,1397.408398,689.132909,-9801.001370
84035.847567,612.562586,382.851616,-10088.140082
84035.850153,1014.556782,-133.998066,-10183.852986
84035.852739,727.418070,1301.695494,-9992.427178
84035.855297,574.277424,248.853550,-9877.571693
84035.857856,363.709035,363.709035,-9858.429112
84035.860415,899.701298,1301.695494,-9858.429112
84035.862974,1378.265818,-287.138712,-10011.569758
84035.865532,861.416136,746.560651,-9973.284597
84035.868091,957.129040,172.283227,-9954.142016
84035.870650,0.000000,899.701298,-9762.716208
84035.873209,-497.707101,631.705166,-9877.571693
84035.875767,-842.273555,746.560651,-10145.567824
84035.878326,-669.990328,1493.121302,-10049.854920
84035.880885,363.709035,1359.123237,-10049.854920
84035.883444,612.562586,1703.689691,-9724.431046
84035.886002,650.847747,1301.695494,-9705.288466
84035.888561,229.710970,708.275490,-10088.140082
84035.891120,401.994197,708.275490,-9992.427178
84035.893679,669.990328,1110.269686,-10049.854920
84035.896237,344.566454,95.712904,-10222.138147
84035.898796,133.998066,1531.406464,-9284.151688
84035.901355,650.847747,382.851616,-9992.427178
84035.903914,555.134843,344.566454,-10183.852986
84035.906472,-57.427742,1837.687757,-9781.858789
84035.909031,842.273555,344.566454,-10011.569758
84035.911590,191.425808,918.843878,-9686.145885
84035.914149,114.855485,1167.697429,-9552.147819
84035.916707,918.843878,421.136778,-10049.854920
84035.919266,19.142581,1416.550979,-10068.997501
84035.921825,-555.134843,1282.552914,-9609.575562
84035.924383,861.416136,57.427742,-9781.858789
84035.926942,-267.996131,2086.541307,-9437.292334
84035.929501,153.140646,191.425808,-10126.425243
84035.932060,957.129040,1780.260014,-9686.145885
84035.934618,133.998066,1129.412267,-9686.145885
84035.937177,95.712904,-344.566454,-10107.282662
84035.939736,-248.853550,1914.258080,-9686.145885
84035.942295,267.996131,248.853550,-10107.282662
84035.944853,574.277424,210.568389,-9992.427178
84035.947412,344.566454,1914.258080,-9513.862658
84035.949971,1435.693560,-38.285162,-10107.282662
84035.952530,1761.117434,1014.556782,-9820.143950
84035.955088,1914.258080,631.705166,-9915.856854
84035.957664,1473.978722,727.418070,-9781.858789
84035.960241,401.994197,-57.427742,-9992.427178
84035.962817,-287.138712,19.142581,-9973.284597
84035.965393,1033.699363,-344.566454,-10107.282662
84035.967969,784.845813,-19.142581,-10088.140082
84035.970545,344.566454,497.707101,-10011.569758
84035.973121,631.705166,918.843878,-9954.142016
84035.975697,459.421939,631.705166,-10011.569758
84035.978273,535.992262,344.566454,-10049.854920
84035.980849,803.988394,1110.269686,-9820.143950
84035.983425,267.996131,899.701298,-10126.425243
84035.986001,516.849682,248.853550,-10164.710405
84035.988577,650.847747,1320.838075,-9686.145885
84035.991153,1129.412267,287.138712,-10202.995566
84035.993729,76.570323,669.990328,-10164.710405
84035.996306,440.279358,1320.838075,-9724.431046
84035.998882,1186.840010,210.568389,-9877.571693
84036.001458,1282.552914,-76.570323,-10011.569758
84036.004034,459.421939,1722.832272,-9762.716208
84036.006610,957.129040,440.279358,-9934.999435
84036.009186,861.416136,-76.570323,-9915.856854
84036.011762,-344.566454,1416.550979,-9839.286531
84036.014338,957.129040,-401.994197,-9992.427178
84036.016914,1110.269686,1359.123237,-9667.003304
84036.019490,1416.550979,114.855485,-10049.854920
84036.022066,1244.267752,210.568389,-9858.429112
84036.024642,478.564520,1071.984525,-9896.714274
84036.027218,-248.853550,-210.568389,-10011.569758
84036.029794,-880.558717,1167.697429,-9647.860723
84036.032371,-593.420005,1339.980656,-9858.429112
84036.034947,-708.275490,1416.550979,-9839.286531
84036.037523,708.275490,1512.263883,-9781.858789
84036.040099,669.990328,1684.547110,-9552.147819
84036.042675,497.707101,1091.127106,-9743.573627
84036.045251,459.421939,535.992262,-9915.856854
84036.047827,497.707101,784.845813,-9896.714274
84036.050403,593.420005,1129.412267,-10164.710405
84036.052979,172.283227,650.847747,-9820.143950
84036.055555,727.418070,650.847747,-9475.577496
84036.058131,325.423874,1148.554848,-9820.143950
84036.060717,95.712904,421.136778,-10336.993632
84036.063307,631.705166,1014.556782,-9915.856854
84036.065897,631.705166,937.986459,-9686.145885
84036.068486,306.281293,344.566454,-9992.427178
84036.071076,172.283227,1301.695494,-9934.999435
84036.073666,363.709035,650.847747,-10145.567824
84036.076256,-535.992262,937.986459,-10088.140082
84036.078845,803.988394,-153.140646,-10088.140082
84036.081435,-248.853550,1952.543242,-9456.434915
84036.084025,-153.140646,-95.712904,-10222.138147
84036.086615,1148.554848,1282.552914,-9934.999435
84036.089205,-57.427742,1837.687757,-9724.431046
84036.091794,95.712904,-765.703232,-10413.563955
84036.094384,-440.279358,1607.976787,-9686.145885
84036.096974,38.285162,669.990328,-9954.142016
84036.099564,421.136778,-133.998066,-10107.282662
84036.102154,459.421939,2182.254211,-9705.288466
84036.104743,1493.121302,38.285162,-10126.425243
84036.107333,1799.402595,880.558717,-9877.571693
84036.109923,1952.543242,1033.699363,-9896.714274
84036.112513,1512.263883,899.701298,-9896.714274
84036.115103,-172.283227,631.705166,-9954.142016
84036.117692,555.134843,-401.994197,-10011.569758
84036.120282,669.990328,555.134843,-9781.858789
84036.122872,421.136778,76.570323,-9801.001370
84036.125462,344.566454,133.998066,-9858.429112
84036.128052,784.845813,1378.265818,-9781.858789
84036.130641,363.709035,287.138712,-10011.569758
84036.133231,325.423874,1052.841944,-9590.432981
84036.135821,612.562586,1071.984525,-9628.718142
84036.138411,631.705166,0.000000,-10222.138147
84036.141001,133.998066,1799.402595,-9705.288466
84036.143590,727.418070,153.140646,-9858.429112
84036.146180,497.707101,555.134843,-9781.858789
84036.148770,267.996131,1531.406464,-9724.431046
84036.151360,1052.841944,-133.998066,-10049.854920
84036.153949,1378.265818,535.992262,-9954.142016
84036.156539,421.136778,1205.982590,-9915.856854
84036.159129,1014.556782,-669.990328,-10088.140082
84036.161719,784.845813,1282.552914,-9801.001370
84036.164319,325.423874,899.701298,-10068.997501
84036.166919,344.566454,-363.709035,-10164.710405
84036.169519,918.843878,1627.119368,-9762.716208
84036.172119,1416.550979,-497.707101,-10107.282662
84036.174719,1091.127106,267.996131,-9992.427178
84036.177319,1186.840010,574.277424,-10011.569758
84036.179919,0.000000,784.845813,-9992.427178
84036.182518,-535.992262,459.421939,-10049.854920
84036.185118,-1071.984525,957.129040,-9858.429112
84036.187718,-784.845813,1205.982590,-10030.712339
84036.190318,325.423874,1320.838075,-10088.140082
84036.192918,765.703232,1646.261949,-9934.999435
84036.195518,574.277424,1205.982590,-9724.431046
84036.198118,382.851616,325.423874,-9992.427178
84036.200718,325.423874,478.564520,-9973.284597
84036.203318,746.560651,1378.265818,-9896.714274
84036.205918,248.853550,248.853550,-10432.706536
84036.208518,669.990328,612.562586,-9686.145885
84036.211118,382.851616,1071.984525,-9667.003304
84036.213718,497.707101,191.425808,-10298.708470
84036.216318,133.998066,1454.836141,-9762.716208
84036.218918,803.988394,708.275490,-9858.429112
84036.221518,861.416136,0.000000,-9973.284597
84036.224118,-229.710970,1454.836141,-9590.432981
84036.226718,516.849682,-19.142581,-10164.710405
84036.229318,-133.998066,1263.410333,-9915.856854
84036.231918,-210.568389,497.707101,-9973.284597
84036.234517,535.992262,248.853550,-10030.712339
84036.237117,325.423874,1703.689691,-9513.862658
84036.239717,708.275490,-344.566454,-10107.282662
84036.242317,363.709035,1703.689691,-9781.858789
84036.244917,-76.570323,1205.982590,-9896.714274
84036.247517,-497.707101,899.701298,-9839.286531
84036.250117,19.142581,1071.984525,-9781.858789
84036.252717,555.134843,-344.566454,-10011.569758
84036.255317,746.560651,1741.974853,-9686.145885
84036.257917,1799.402595,1588.834206,-9705.288466
84036.260517,2354.537438,555.134843,-9934.999435
84036.263117,1531.406464,1148.554848,-9781.858789
84036.265717,267.996131,401.994197,-10049.854920
84036.268325,421.136778,574.277424,-9992.427178
84036.270932,344.566454,957.129040,-9877.571693
84036.273540,669.990328,-287.138712,-10126.425243
84036.276148,708.275490,267.996131,-9839.286531
84036.278755,267.996131,382.851616,-9934.999435
84036.281363,0.000000,918.843878,-10068.997501
84036.283971,631.705166,478.564520,-10030.712339
84036.286578,689.132909,1014.556782,-9667.003304
84036.289186,784.845813,401.994197,-9877.571693
84036.291794,421.136778,708.275490,-10126.425243
84036.294401,861.416136,689.132909,-9973.284597
84036.297009,153.140646,1014.556782,-9762.716208
84036.299617,535.992262,516.849682,-10049.854920
84036.302224,1148.554848,153.140646,-9781.858789
84036.304832,995.414202,363.709035,-9954.142016
84036.307440,229.710970,1435.693560,-9992.427178
84036.310047,1301.695494,-459.421939,-10049.854920
84036.312655,574.277424,708.275490,-9781.858789
84036.315263,267.996131,650.847747,-10126.425243
84036.317870,631.705166,133.998066,-10011.569758
84036.320478,631.705166,1225.125171,-9839.286531
84036.323086,1263.410333,-401.994197,-10088.140082
84036.325693,1359.123237,459.421939,-9820.143950
84036.328301,976.271621,459.421939,-9954.142016
84036.330909,-287.138712,689.132909,-9934.999435
84036.333516,-325.423874,574.277424,-10011.569758
84036.336124,-1014.556782,1091.127106,-9858.429112
84036.338732,-1263.410333,1416.550979,-9820.143950
84036.341339,516.849682,1646.261949,-10030.712339
84036.343947,574.277424,1091.127106,-9820.143950
84036.346555,267.996131,1607.976787,-9667.003304
84036.349162,746.560651,440.279358,-10107.282662
84036.351770,306.281293,535.992262,-9973.284597
84036.354378,440.279358,1244.267752,-9973.284597
84036.356985,937.986459,593.420005,-10107.282662
84036.359593,267.996131,631.705166,-9762.716208
84036.362201,267.996131,555.134843,-9801.001370
84036.364808,325.423874,1129.412267,-10049.854920
84036.367416,669.990328,325.423874,-10260.423309
84036.370024,248.853550,1148.554848,-9762.716208
84036.372638,440.279358,842.273555,-9705.288466
84036.375251,612.562586,-114.855485,-10317.851051
84036.377865,-287.138712,1550.549045,-9781.858789
84036.380479,440.279358,0.000000,-10068.997501
84036.383093,-153.140646,1512.263883,-9896.714274
84036.385706,19.142581,689.132909,-9915.856854
84036.388320,1052.841944,689.132909,-9628.718142
84036.390934,133.998066,2124.826469,-9667.003304
84036.393548,210.568389,-287.138712,-10356.136213
84036.396161,-516.849682,2048.256146,-9647.860723
84036.398775,-421.136778,803.988394,-9858.429112
84036.401389,765.703232,-287.138712,-9934.999435
84036.404003,574.277424,1933.400661,-9552.147819
84036.406616,1722.832272,325.423874,-10183.852986
84036.409230,2029.113565,995.414202,-9781.858789
84036.411844,1799.402595,784.845813,-9839.286531
84036.414458,746.560651,555.134843,-10011.569758
84036.417071,-19.142581,803.988394,-9877.571693
84036.419685,421.136778,229.710970,-10030.712339
84036.422299,535.992262,459.421939,-9934.999435
84036.424913,937.986459,133.998066,-10011.569758
84036.427526,210.568389,95.712904,-10068.997501
84036.430140,248.853550,842.273555,-9839.286531
84036.432754,689.132909,574.277424,-10202.995566
84036.435368,1014.556782,363.709035,-9820.143950
84036.437981,267.996131,1435.693560,-9571.290400
84036.440595,650.847747,382.851616,-10317.851051
84036.443209,497.707101,899.701298,-9934.999435
84036.445823,210.568389,1071.984525,-9724.431046
84036.448436,957.129040,229.710970,-10011.569758
84036.451050,880.558717,1052.841944,-9839.286531
84036.453664,899.701298,401.994197,-9877.571693
84036.456278,631.705166,382.851616,-9896.714274
84036.458891,631.705166,842.273555,-9743.573627
84036.461505,535.992262,38.285162,-9896.714274
84036.464119,-287.138712,1627.119368,-9877.571693
84036.466733,880.558717,-19.142581,-10107.282662
84036.469346,861.416136,631.705166,-9858.429112
84036.471960,1282.552914,612.562586,-9896.714274
84036.474574,1378.265818,-38.285162,-9896.714274
84036.477191,880.558717,842.273555,-9973.284597
84036.479809,57.427742,937.986459,-9877.571693
84036.482426,-823.130974,727.418070,-10011.569758
84036.485043,-976.271621,1186.840010,-9896.714274
84036.487661,-957.129040,1627.119368,-9934.999435
84036.490278,727.418070,1186.840010,-9915.856854
84036.492895,861.416136,1167.697429,-9705.288466
84036.495513,344.566454,784.845813,-9781.858789
84036.498130,555.134843,631.705166,-9973.284597
84036.500747,325.423874,727.418070,-10068.997501
84036.503365,612.562586,612.562586,-10049.854920
84036.505982,421.136778,1205.982590,-9743.573627
84036.508599,535.992262,287.138712,-9934.999435
84036.511217,229.710970,803.988394,-9954.142016
84036.513834,574.277424,880.558717,-10107.282662
84036.516451,823.130974,535.992262,-10049.854920
84036.519068,248.853550,976.271621,-9781.858789
84036.521686,287.138712,421.136778,-9801.001370
84036.524303,38.285162,1110.269686,-9839.286531
84036.526920,746.560651,57.427742,-10145.567824
84036.529538,-153.140646,1780.260014,-9820.143950
84036.532155,95.712904,899.701298,-9934.999435
84036.534772,1110.269686,95.712904,-9801.001370
84036.537390,-153.140646,2488.535504,-9494.720077
84036.540007,287.138712,-76.570323,-10394.421374
84036.542624,-459.421939,1550.549045,-9820.143950
84036.545242,-593.420005,689.132909,-9877.571693
84036.547859,535.992262,287.138712,-9877.571693
84036.550476,612.562586,1320.838075,-9743.573627
84036.553094,1703.689691,478.564520,-9954.142016
84036.555711,1990.828403,880.558717,-10030.712339
84036.558328,1895.115499,535.992262,-9877.571693
84036.560946,631.705166,689.132909,-9820.143950
84036.563563,-172.283227,1167.697429,-9762.716208
84036.566180,727.418070,-229.710970,-10222.138147
84036.568798,516.849682,689.132909,-9858.429112
84036.571415,899.701298,459.421939,-9992.427178
84036.574032,363.709035,76.570323,-9934.999435
84036.576650,210.568389,1225.125171,-9915.856854
84036.579267,248.853550,689.132909,-9973.284597
84036.581887,1110.269686,325.423874,-9820.143950
84036.584508,382.851616,1263.410333,-9705.288466
84036.587128,497.707101,191.425808,-10126.425243
84036.589748,631.705166,880.558717,-9801.001370
84036.592368,287.138712,1205.982590,-9820.143950
84036.594989,1091.127106,-287.138712,-10030.712339
84036.597609,1263.410333,842.273555,-9896.714274
84036.600229,440.279358,1282.552914,-9934.999435
84036.602849,823.130974,-631.705166,-10107.282662
84036.605469,727.418070,1359.123237,-9762.716208
84036.608090,440.279358,-38.285162,-10126.425243
84036.610710,153.140646,784.845813,-9915.856854
84036.613330,861.416136,1129.412267,-9839.286531
84036.615950,1167.697429,-535.992262,-9839.286531
84036.618571,1014.556782,650.847747,-9820.143950
84036.621191,1684.547110,210.568389,-10126.425243
84036.623811,401.994197,689.132909,-9877.571693
84036.626431,-363.709035,1301.695494,-9877.571693
84036.629052,-1052.841944,1512.263883,-9915.856854
84036.631672,-995.414202,1339.980656,-9781.858789
84036.634292,-459.421939,1301.695494,-9973.284597
84036.636912,899.701298,1110.269686,-9973.284597
84036.639533,918.843878,918.843878,-9743.573627
84036.642153,-76.570323,440.279358,-9820.143950
84036.644773,267.996131,957.129040,-9934.999435
84036.647393,727.418070,880.558717,-10088.140082
84036.650014,382.851616,631.705166,-9858.429112
84036.652634,344.566454,995.414202,-9571.290400
84036.655254,344.566454,899.701298,-10011.569758
84036.657874,459.421939,382.851616,-10164.710405
84036.660495,382.851616,1282.552914,-9724.431046
84036.663115,631.705166,746.560651,-9954.142016
84036.665735,267.996131,287.138712,-10011.569758
84036.668355,-401.994197,1741.974853,-9609.575562
84036.670975,344.566454,38.285162,-10183.852986
84036.673596,114.855485,1531.406464,-9954.142016
84036.676216,-325.423874,1071.984525,-9896.714274
84036.678836,1186.840010,306.281293,-9877.571693
84036.681456,172.283227,2143.969050,-9437.292334
84036.684077,-76.570323,-153.140646,-10279.565890
84036.686668,-478.564520,1933.400661,-9743.573627
84036.689259,-191.425808,459.421939,-9934.999435
84036.691850,612.562586,-306.281293,-10107.282662
84036.694441,784.845813,1684.547110,-9399.007173
84036.697032,2373.680019,0.000000,-10145.567824
84036.699623,1933.400661,937.986459,-9973.284597
84036.702214,1703.689691,918.843878,-9839.286531
84036.704805,306.281293,344.566454,-9954.142016
84036.707396,459.421939,401.994197,-9973.284597
84036.709987,401.994197,631.705166,-9877.571693
84036.712578,918.843878,344.566454,-10068.997501
84036.715169,516.849682,382.851616,-9896.714274
84036.717760,191.425808,669.990328,-9858.429112
84036.720351,325.423874,593.420005,-9992.427178
84036.722942,880.558717,708.275490,-9877.571693
84036.725533,344.566454,842.273555,-9801.001370
84036.728125,823.130974,689.132909,-9992.427178
84036.730716,459.421939,1091.127106,-9877.571693
84036.733307,153.140646,497.707101,-9954.142016
84036.735898,1052.841944,363.709035,-9858.429112
84036.738489,976.271621,1129.412267,-9781.858789
84036.741080,746.560651,-210.568389,-10356.136213
84036.743671,555.134843,1148.554848,-9686.145885
84036.746262,784.845813,612.562586,-9647.860723
84036.748853,516.849682,-191.425808,-9973.284597
84036.751444,-325.423874,1646.261949,-9858.429112
84036.754035,689.132909,-267.996131,-10049.854920
84036.756626,765.703232,727.418070,-9820.143950
84036.759217,1416.550979,535.992262,-10011.569758
84036.761808,1416.550979,229.710970,-10011.569758
84036.764399,937.986459,1014.556782,-9877.571693
84036.766990,19.142581,1320.838075,-9877.571693
84036.769581,-497.707101,689.132909,-10068.997501
84036.772172,-1033.699363,1799.402595,-9705.288466
84036.774763,-1282.552914,1512.263883,-9820.143950
84036.777354,459.421939,727.418070,-10030.712339
84036.779946,1205.982590,535.992262,-9762.716208
84036.782537,210.568389,1091.127106,-9781.858789
84036.785128,535.992262,784.845813,-10241.280728
84036.787719,459.421939,631.705166,-9839.286531
84036.790316,325.423874,1014.556782,-9781.858789
84036.792913,478.564520,631.705166,-10068.997501
84036.795510,555.134843,689.132909,-9915.856854
84036.798107,95.712904,1071.984525,-9839.286531
84036.800704,689.132909,497.707101,-10068.997501
84036.803301,497.707101,689.132909,-9858.429112
84036.805898,191.425808,842.273555,-10011.569758
84036.808495,-306.281293,842.273555,-10107.282662
84036.811092,267.996131,76.570323,-10088.140082
84036.813689,172.283227,1301.695494,-9934.999435
84036.816286,-267.996131,976.271621,-10030.712339
84036.818883,1320.838075,210.568389,-10049.854920
84036.821480,76.570323,2316.252277,-9552.147819
84036.824077,-153.140646,-133.998066,-10183.852986
84036.826674,-421.136778,1473.978722,-9762.716208
84036.829271,-440.279358,516.849682,-10011.569758
84036.831868,612.562586,-248.853550,-10183.852986
84036.834465,1225.125171,1627.119368,-9705.288466
84036.837062,2469.392923,-133.998066,-9992.427178
84036.839659,1799.402595,842.273555,-9877.571693
84036.842256,1186.840010,593.420005,-9724.431046
84036.844853,574.277424,-210.568389,-10202.995566
84036.847450,363.709035,1110.269686,-9820.143950
84036.850047,421.136778,440.279358,-9858.429112
84036.852644,727.418070,248.853550,-10030.712339
84036.855241,612.562586,937.986459,-9954.142016
84036.857838,-133.998066,708.275490,-9877.571693
84036.860435,823.130974,842.273555,-9934.999435
84036.863032,669.990328,497.707101,-9934.999435
84036.865629,382.851616,861.416136,-9801.001370
84036.868226,440.279358,1033.699363,-10011.569758
84036.870823,650.847747,287.138712,-9820.143950
84036.873420,516.849682,880.558717,-9647.860723
84036.876017,1033.699363,976.271621,-9820.143950
84036.878614,1225.125171,-38.285162,-9973.284597
84036.881211,229.710970,1952.543242,-9743.573627
84036.883808,1110.269686,-612.562586,-10183.852986
84036.886405,593.420005,727.418070,-9705.288466
84036.889002,267.996131,555.134843,-10107.282662
84036.891599,382.851616,-210.568389,-10011.569758
84036.894201,746.560651,1320.838075,-9762.716208
84036.896803,1339.980656,172.283227,-10011.569758
84036.899405,976.271621,574.277424,-9839.286531
84036.902007,1473.978722,1014.556782,-9839.286531
84036.904609,344.566454,842.273555,-9954.142016
84036.907211,-421.136778,1607.976787,-9915.856854
84036.909813,-612.562586,1167.697429,-9858.429112
84036.912415,-1225.125171,1320.838075,-9781.858789
84036.915017,-401.994197,784.845813,-9934.999435
84036.917619,1014.556782,631.705166,-10011.569758
84036.920221,593.420005,1167.697429,-9915.856854
84036.922823,172.283227,535.992262,-10011.569758
84036.925425,267.996131,708.275490,-9915.856854
84036.928027,650.847747,1014.556782,-9762.716208
84036.930629,267.996131,631.705166,-10164.710405
84036.933231,631.705166,497.707101,-10126.425243
84036.935833,497.707101,918.843878,-9628.718142
84036.938435,593.420005,248.853550,-10145.567824
84036.941037,-153.140646,1225.125171,-9954.142016
84036.943639,401.994197,574.277424,-9877.571693
84036.946241,-133.998066,957.129040,-9954.142016
84036.948843,-57.427742,574.277424,-9992.427178
84036.951445,401.994197,1014.556782,-9820.143950
84036.954047,-153.140646,1148.554848,-9934.999435
84036.956649,1110.269686,-38.285162,-10068.997501
84036.959251,478.564520,1435.693560,-9839.286531
84036.961853,-382.851616,976.271621,-9934.999435
84036.964455,-708.275490,669.990328,-9820.143950
84036.967057,-133.998066,1129.412267,-9934.999435
84036.969659,1110.269686,-363.709035,-10183.852986
84036.972261,1416.550979,1397.408398,-9571.290400
84036.974863,2699.103893,19.142581,-10049.854920
84036.977469,1914.258080,631.705166,-9839.286531
84036.980075,650.847747,861.416136,-9839.286531
84036.982680,114.855485,650.847747,-10068.997501
84036.985286,631.705166,440.279358,-9820.143950
84036.987891,555.134843,823.130974,-9877.571693
84036.990497,440.279358,497.707101,-10107.282662
84036.993103,478.564520,689.132909,-9686.145885
84036.995708,114.855485,1129.412267,-9820.143950
84036.998314,727.418070,344.566454,-10126.425243
84037.000920,650.847747,880.558717,-9667.003304
84037.003525,612.562586,689.132909,-9858.429112
84037.006131,421.136778,669.990328,-9858.429112
84037.008736,325.423874,918.843878,-9915.856854
84037.011342,1186.840010,325.423874,-9896.714274
84037.013948,957.129040,823.130974,-9877.571693
84037.016553,746.560651,114.855485,-10183.852986
84037.019159,823.130974,421.136778,-9839.286531
84037.021764,363.709035,1205.982590,-9781.858789
84037.024370,689.132909,-248.853550,-10011.569758
84037.026976,-133.998066,1665.404530,-9896.714274
84037.029581,497.707101,727.418070,-9896.714274
84037.032187,937.986459,114.855485,-9954.142016
84037.034792,1167.697429,1014.556782,-9877.571693
84037.037398,1110.269686,363.709035,-9973.284597
84037.040004,1014.556782,1071.984525,-9896.714274
84037.042609,287.138712,1225.125171,-9954.142016
84037.045215,-918.843878,937.986459,-9896.714274
84037.047821,-631.705166,1033.699363,-9992.427178
84037.050426,-861.416136,937.986459,-9858.429112
84037.053032,440.279358,650.847747,-9992.427178
84037.055637,803.988394,823.130974,-9915.856854
84037.058243,574.277424,784.845813,-9801.001370
84037.060849,19.142581,937.986459,-9743.573627
84037.063454,593.420005,593.420005,-9934.999435
84037.066060,555.134843,918.843878,-9839.286531
84037.068665,612.562586,669.990328,-10107.282662
84037.071271,267.996131,1014.556782,-9896.714274
84037.073877,918.843878,631.705166,-9628.718142
84037.076482,-95.712904,1014.556782,-9877.571693
84037.079088,-57.427742,842.273555,-9858.429112
84037.081700,191.425808,1205.982590,-9954.142016
84037.084307,-76.570323,574.277424,-9954.142016
84037.086915,0.000000,823.130974,-9801.001370
84037.089523,248.853550,1282.552914,-9858.429112
84037.092131,1129.412267,-382.851616,-10068.997501
84037.094738,-153.140646,2316.252277,-9533.005238
84037.097346,-248.853550,267.996131,-10126.425243
84037.099954,-574.277424,191.425808,-9896.714274
84037.102562,-267.996131,1244.267752,-9877.571693
84037.105170,1473.978722,-172.283227,-10298.708470
84037.107777,2239.681954,1033.699363,-9533.005238
84037.110385,2488.535504,440.279358,-9858.429112
84037.112993,1607.976787,842.273555,-9954.142016
84037.115601,-76.570323,631.705166,-9743.573627
84037.118208,248.853550,593.420005,-10011.569758
84037.120816,689.132909,880.558717,-9992.427178
84037.123424,861.416136,401.994197,-10011.569758
84037.126032,363.709035,650.847747,-9934.999435
84037.128640,153.140646,1339.980656,-9801.001370
84037.131247,880.558717,-19.142581,-10107.282662
84037.133855,497.707101,1263.410333,-9705.288466
84037.136463,746.560651,727.418070,-9896.714274
84037.139071,555.134843,689.132909,-10088.140082
84037.141678,516.849682,765.703232,-9954.142016
84037.144286,344.566454,765.703232,-9743.573627
84037.146894,976.271621,1052.841944,-10049.854920
84037.149502,1397.408398,306.281293,-9858.429112
84037.152110,210.568389,1703.689691,-9724.431046
84037.154717,976.271621,-382.851616,-10222.138147
84037.157325,631.705166,765.703232,-9628.718142
84037.159933,114.855485,746.560651,-10107.282662
84037.162541,440.279358,382.851616,-10049.854920
84037.165148,497.707101,1378.265818,-9705.288466
84037.167756,1014.556782,-248.853550,-10068.997501
84037.170364,880.558717,650.847747,-9896.714274
84037.172972,1148.554848,1263.410333,-9915.856854
84037.175580,574.277424,574.277424,-9973.284597
84037.178187,-401.994197,1301.695494,-9801.001370
84037.180795,-631.705166,1091.127106,-9896.714274
84037.183403,-1263.410333,631.705166,-9954.142016
84037.186012,-248.853550,765.703232,-9992.427178
84037.188622,957.129040,803.988394,-10011.569758
84037.191231,650.847747,593.420005,-9877.571693
84037.193841,95.712904,1205.982590,-9705.288466
84037.196450,631.705166,535.992262,-10030.712339
84037.199059,459.421939,765.703232,-9820.143950
84037.201669,382.851616,995.414202,-9934.999435
84037.204278,593.420005,765.703232,-10011.569758
84037.206888,689.132909,535.992262,-9781.858789
84037.209497,-114.855485,1129.412267,-9762.716208
84037.212107,459.421939,306.281293,-10202.995566
84037.214716,-191.425808,1148.554848,-9954.142016
84037.217325,-172.283227,823.130974,-9858.429112
84037.219935,95.712904,574.277424,-10030.712339
84037.222544,-19.142581,1263.410333,-9686.145885
84037.225154,1014.556782,-172.283227,-10088.140082
84037.227763,-57.427742,2124.826469,-9801.001370
84037.230373,-191.425808,19.142581,-10088.140082
84037.232982,-708.275490,1378.265818,-9667.003304
84037.235591,-153.140646,708.275490,-9896.714274
84037.238201,1052.841944,19.142581,-9896.714274
84037.240810,2354.537438,995.414202,-9801.001370
84037.243420,2450.250342,593.420005,-9801.001370
84037.246029,1244.267752,382.851616,-10011.569758
84037.248639,248.853550,784.845813,-9858.429112
84037.251248,19.142581,842.273555,-9896.714274
84037.253857,880.558717,440.279358,-10126.425243
84037.256467,880.558717,861.416136,-9934.999435
84037.259076,114.855485,746.560651,-9839.286531
84037.261686,421.136778,669.990328,-9992.427178
84037.264295,555.134843,459.421939,-9934.999435
84037.266904,708.275490,803.988394,-9934.999435
84037.269514,918.843878,765.703232,-9858.429112
84037.272123,574.277424,631.705166,-9896.714274
84037.274733,95.712904,957.129040,-9858.429112
84037.277342,1129.412267,459.421939,-9820.143950
84037.279952,1225.125171,727.418070,-10183.852986
84037.282561,746.560651,287.138712,-10049.854920
84037.285170,669.990328,555.134843,-9647.860723
84037.287780,612.562586,1052.841944,-9781.858789
84037.290390,516.849682,-153.140646,-9992.427178
84037.293001,-382.851616,1818.545176,-9915.856854
84037.295612,823.130974,172.283227,-10126.425243
84037.298222,842.273555,191.425808,-9628.718142
84037.300833,880.558717,918.843878,-9858.429112
84037.303444,1244.267752,516.849682,-10049.854920
84037.306054,976.271621,1033.699363,-9743.573627
84037.308665,421.136778,1052.841944,-9934.999435
84037.311275,-574.277424,899.701298,-9992.427178
84037.313886,-765.703232,957.129040,-9801.001370
84037.316497,-1052.841944,957.129040,-9877.571693
84037.319107,153.140646,727.418070,-10030.712339
84037.321718,1359.123237,689.132909,-9954.142016
84037.324329,210.568389,899.701298,-9973.284597
84037.326939,153.140646,459.421939,-9820.143950
84037.329550,612.562586,746.560651,-9839.286531
84037.332160,478.564520,976.271621,-10049.854920
84037.334771,325.423874,689.132909,-10011.569758
84037.337382,918.843878,612.562586,-9781.858789
84037.339992,153.140646,1014.556782,-9801.001370
84037.342603,114.855485,267.996131,-10145.567824
84037.345214,-57.427742,1263.410333,-9992.427178
84037.347824,153.140646,382.851616,-10107.282662
84037.350435,-344.566454,1148.554848,-9781.858789
84037.353045,57.427742,842.273555,-9992.427178
84037.355656,1129.412267,114.855485,-9992.427178
84037.358267,-421.136778,1837.687757,-9762.716208
84037.360877,172.283227,-229.710970,-10451.849117
84037.363488,-401.994197,1588.834206,-9743.573627
84037.366098,-153.140646,440.279358,-9858.429112
84037.368709,1339.980656,133.998066,-10183.852986
84037.371320,2947.957443,765.703232,-9781.858789
84037.373930,2373.680019,727.418070,-9858.429112
84037.376541,957.129040,574.277424,-9934.999435
84037.379152,-133.998066,689.132909,-9896.714274
84037.381762,363.709035,555.134843,-9973.284597
84037.384373,612.562586,650.847747,-9992.427178
84037.386983,861.416136,593.420005,-10049.854920
84037.389594,153.140646,516.849682,-9934.999435
84037.392205,497.707101,918.843878,-9762.716208
84037.394815,555.134843,593.420005,-10107.282662
84037.397426,880.558717,325.423874,-9992.427178
84037.400037,535.992262,1205.982590,-9552.147819
84037.402648,842.273555,382.851616,-10164.710405
84037.405259,172.283227,765.703232,-9954.142016
84037.407869,1071.984525,459.421939,-9762.716208
84037.410480,1397.408398,650.847747,-10011.569758
84037.413091,574.277424,1071.984525,-9858.429112
84037.415702,823.130974,-133.998066,-10011.569758
84037.418313,478.564520,1320.838075,-9839.286531
84037.420923,708.275490,-133.998066,-10107.282662
84037.423534,-76.570323,1416.550979,-9877.571693
84037.426145,765.703232,727.418070,-10030.712339
84037.428756,861.416136,153.140646,-9628.718142
84037.431367,842.273555,937.986459,-9934.999435
84037.433977,1244.267752,421.136778,-10068.997501
84037.436588,937.986459,784.845813,-9915.856854
84037.439199,382.851616,1129.412267,-9973.284597
84037.441810,-516.849682,784.845813,-9915.856854
84037.444420,-593.420005,899.701298,-9877.571693
84037.447031,-861.416136,918.843878,-10011.569758
84037.449642,-153.140646,497.707101,-9934.999435
84037.452253,1071.984525,937.986459,-9781.858789
84037.454864,497.707101,899.701298,-9973.284597
84037.457474,153.140646,669.990328,-9781.858789
84037.460085,669.990328,861.416136,-9858.429112
84037.462696,516.849682,689.132909,-10049.854920
84037.465307,478.564520,612.562586,-10145.567824
84037.467918,593.420005,708.275490,-9858.429112
84037.470528,-19.142581,937.986459,-9781.858789
84037.473139,-363.709035,727.418070,-9954.142016
84037.475750,612.562586,746.560651,-9973.284597
84037.478361,-363.709035,1531.406464,-9839.286531
84037.480972,210.568389,-344.566454,-10241.280728
84037.483582,344.566454,1454.836141,-9647.860723
84037.486193,153.140646,823.130974,-9877.571693
84037.488804,210.568389,38.285162,-10279.565890
84037.491415,-516.849682,1895.115499,-9820.143950
84037.494025,421.136778,-133.998066,-10107.282662
84037.496636,746.560651,1167.697429,-9801.001370
84037.499246,2201.396792,478.564520,-9915.856854
84037.501857,2603.390989,287.138712,-9839.286531
84037.504467,1875.972918,784.845813,-10068.997501
84037.507077,19.142581,1301.695494,-9839.286531
84037.509687,153.140646,497.707101,-9992.427178
84037.512297,880.558717,593.420005,-9858.429112
84037.514907,823.130974,1052.841944,-9915.856854
84037.517517,172.283227,842.273555,-10183.852986
84037.520127,344.566454,382.851616,-9973.284597
84037.522738,421.136778,1148.554848,-9533.005238
84037.525348,1014.556782,459.421939,-10145.567824
84037.527958,535.992262,669.990328,-9973.284597
84037.530568,593.420005,1205.982590,-9820.143950
84037.533178,344.566454,727.418070,-9992.427178
84037.535788,1244.267752,191.425808,-9934.999435
84037.538398,1225.125171,976.271621,-9896.714274
84037.541008,631.705166,650.847747,-10145.567824
84037.543619,1014.556782,-114.855485,-9915.856854
84037.546229,191.425808,1493.121302,-9590.432981
84037.548839,612.562586,-229.710970,-10241.280728
84037.551449,-19.142581,1550.549045,-9801.001370
84037.554059,593.420005,1033.699363,-9934.999435
84037.556669,631.705166,153.140646,-9781.858789
84037.559279,995.414202,765.703232,-9896.714274
84037.561889,1148.554848,382.851616,-10088.140082
84037.564500,574.277424,918.843878,-9877.571693
84037.567110,727.418070,899.701298,-9877.571693
84037.569720,-344.566454,880.558717,-9954.142016
84037.572330,-650.847747,1033.699363,-9820.143950
84037.574940,-497.707101,497.707101,-9954.142016
84037.577550,-153.140646,650.847747,-9858.429112
84037.580160,593.420005,574.277424,-9934.999435
84037.582771,516.849682,784.845813,-9877.571693
84037.585381,555.134843,995.414202,-9705.288466
84037.587991,95.712904,344.566454,-10049.854920
84037.590601,306.281293,842.273555,-9896.714274
84037.593211,823.130974,823.130974,-9820.143950
84037.595821,325.423874,727.418070,-10145.567824
84037.598431,382.851616,363.709035,-10145.567824
84037.601041,-133.998066,1129.412267,-9781.858789
84037.603651,-57.427742,210.568389,-10107.282662
84037.606260,-535.992262,1416.550979,-9992.427178
84037.608870,-57.427742,957.129040,-10030.712339
84037.611479,727.418070,210.568389,-10011.569758
84037.614088,-401.994197,1741.974853,-9686.145885
84037.616698,191.425808,-363.709035,-10164.710405
84037.619307,-325.423874,1646.261949,-9762.716208
84037.621916,287.138712,555.134843,-10222.138147
84037.624526,1665.404530,401.994197,-10011.569758
84037.627135,2737.389054,803.988394,-9724.431046
84037.629745,2105.683888,669.990328,-9858.429112
84037.632354,880.558717,612.562586,-10107.282662
84037.634963,-153.140646,1320.838075,-9896.714274
84037.637573,191.425808,459.421939,-9954.142016
84037.640182,880.558717,1052.841944,-9820.143950
84037.642791,689.132909,478.564520,-9877.571693
84037.645401,287.138712,823.130974,-9934.999435
84037.648010,210.568389,1167.697429,-9839.286531
84037.650620,899.701298,57.427742,-9973.284597
84037.653229,669.990328,1416.550979,-9724.431046
84037.655838,803.988394,555.134843,-9839.286531
84037.658448,172.283227,401.994197,-9915.856854
84037.661057,918.843878,918.843878,-9705.288466
84037.663667,1033.699363,1091.127106,-9820.143950
84037.666276,1320.838075,-287.138712,-10088.140082
84037.668885,440.279358,1531.406464,-9590.432981
84037.671495,248.853550,995.414202,-9628.718142
84037.674104,689.132909,-172.283227,-10164.710405
84037.676713,-287.138712,1837.687757,-9781.858789
84037.679323,440.279358,-38.285162,-10145.567824
84037.681932,765.703232,1033.699363,-9667.003304
84037.684542,957.129040,574.277424,-9877.571693
84037.687151,727.418070,555.134843,-9820.143950
84037.689760,727.418070,1110.269686,-10030.712339
84037.692370,593.420005,689.132909,-9915.856854
84037.694979,-210.568389,535.992262,-9954.142016
84037.697588,-535.992262,1167.697429,-9954.142016
84037.700198,-631.705166,880.558717,-9915.856854
84037.702807,-593.420005,669.990328,-10068.997501
84037.705417,669.990328,976.271621,-10164.710405
84037.708025,803.988394,650.847747,-9992.427178
84037.710634,172.283227,344.566454,-9934.999435
84037.713243,38.285162,976.271621,-9839.286531
84037.715851,421.136778,746.560651,-10049.854920
84037.718460,861.416136,593.420005,-10088.140082
84037.721069,-19.142581,1244.267752,-9915.856854
84037.723678,555.134843,229.710970,-9896.714274
84037.726286,-382.851616,937.986459,-9858.429112
84037.728895,-210.568389,593.420005,-10049.854920
84037.731504,229.710970,401.994197,-10241.280728
84037.734112,-95.712904,1339.980656,-9647.860723
84037.736721,669.990328,-344.566454,-9954.142016
84037.739330,38.285162,1531.406464,-9801.001370
84037.741939,-133.998066,210.568389,-10068.997501
84037.744547,-287.138712,1531.406464,-9705.288466
84037.747156,803.988394,784.845813,-10011.569758
84037.749765,1722.832272,172.283227,-9839.286531
84037.752373,2488.535504,1205.982590,-9552.147819
84037.754982,2507.678085,899.701298,-9781.858789
84037.757591,114.855485,689.132909,-10030.712339
84037.760199,-38.285162,937.986459,-9820.143950
84037.762808,746.560651,516.849682,-9858.429112
84037.765417,899.701298,478.564520,-9877.571693
84037.768026,363.709035,1244.267752,-9839.286531
84037.770634,344.566454,516.849682,-9973.284597
84037.773243,535.992262,650.847747,-9934.999435
84037.775852,516.849682,1052.841944,-9858.429112
84037.778460,689.132909,421.136778,-9973.284597
84037.781069,593.420005,727.418070,-9915.856854
84037.783678,669.990328,746.560651,-9801.001370
84037.786287,957.129040,880.558717,-9934.999435
84037.788895,1550.549045,210.568389,-10279.565890
84037.791504,535.992262,1550.549045,-9858.429112
84037.794113,842.273555,-421.136778,-9934.999435
84037.796721,708.275490,1205.982590,-9896.714274
84037.799330,593.420005,76.570323,-10279.565890
84037.801939,-172.283227,1263.410333,-10049.854920
84037.804548,248.853550,1148.554848,-9934.999435
84037.807156,1052.841944,38.285162,-9820.143950
84037.809765,669.990328,803.988394,-9858.429112
84037.812348,880.558717,727.418070,-10164.710405
84037.814931,650.847747,937.986459,-9896.714274
84037.817514,248.853550,957.129040,-10030.712339
84037.820097,153.140646,382.851616,-10011.569758
84037.822680,-382.851616,1014.556782,-9743.573627
84037.825263,-784.845813,823.130974,-9973.284597
84037.827845,-344.566454,823.130974,-9915.856854
84037.830428,976.271621,689.132909,-9992.427178
84037.833011,593.420005,382.851616,-9934.999435
84037.835594,133.998066,765.703232,-9743.573627
84037.838177,459.421939,727.418070,-10030.712339
84037.840760,535.992262,535.992262,-9934.999435
84037.843343,153.140646,1167.697429,-9781.858789
84037.845926,516.849682,325.423874,-10145.567824
84037.848509,-248.853550,899.701298,-9743.573627
84037.851092,-38.285162,631.705166,-9915.856854
84037.853675,-421.136778,1167.697429,-10068.997501
84037.856258,-344.566454,937.986459,-9934.999435
84037.858841,555.134843,555.134843,-9858.429112
84037.861424,-76.570323,1282.552914,-9781.858789
84037.864007,382.851616,-574.277424,-10088.140082
84037.866590,-172.283227,1780.260014,-9781.858789
84037.869172,861.416136,287.138712,-10183.852986
84037.871755,1550.549045,784.845813,-9705.288466
84037.874338,2258.824534,1071.984525,-9801.001370
84037.876921,1952.543242,401.994197,-9992.427178
84037.879504,593.420005,344.566454,-10049.854920
84037.882087,-57.427742,1186.840010,-10049.854920
84037.884670,440.279358,689.132909,-9858.429112
84037.887253,861.416136,593.420005,-9896.714274
84037.889836,669.990328,899.701298,-9839.286531
84037.892419,306.281293,842.273555,-9801.001370
84037.895002,267.996131,574.277424,-10222.138147
84037.897585,650.847747,631.705166,-9915.856854
84037.900168,746.560651,937.986459,-9896.714274
84037.902751,478.564520,631.705166,-10145.567824
84037.905334,727.418070,478.564520,-9858.429112
84037.907917,976.271621,1110.269686,-9647.860723
84037.910499,1416.550979,19.142581,-10298.708470
84037.913082,574.277424,1569.691626,-9820.143950
84037.915668,937.986459,-421.136778,-10030.712339
84037.918253,478.564520,631.705166,-9781.858789
84037.920839,172.283227,1033.699363,-9973.284597
84037.923424,57.427742,516.849682,-10068.997501
84037.926010,248.853550,1339.980656,-9801.001370
84037.928595,1071.984525,267.996131,-9858.429112
84037.931180,574.277424,823.130974,-9820.143950
84037.933766,727.418070,765.703232,-9954.142016
84037.936351,440.279358,784.845813,-9915.856854
84037.938937,114.855485,746.560651,-9858.429112
84037.941522,-267.996131,861.416136,-9781.858789
84037.944108,-248.853550,746.560651,-9973.284597
84037.946693,-306.281293,574.277424,-9915.856854
84037.949279,-114.855485,1148.554848,-9877.571693
84037.951864,976.271621,497.707101,-10049.854920
84037.954449,593.420005,669.990328,-9820.143950
84037.957035,153.140646,823.130974,-9743.573627
84037.959620,363.709035,574.277424,-10011.569758
84037.962206,784.845813,306.281293,-9896.714274
84037.964791,57.427742,1205.982590,-9896.714274
84037.967377,-57.427742,899.701298,-9858.429112
84037.969962,267.996131,631.705166,-9801.001370
84037.972547,-401.994197,1339.980656,-9839.286531
84037.975133,133.998066,-19.142581,-10222.138147
84037.977718,-191.425808,1397.408398,-9724.431046
84037.980304,421.136778,-38.285162,-9934.999435
84037.982889,-210.568389,1339.980656,-9743.573627
84037.985475,57.427742,650.847747,-9992.427178
84037.988060,899.701298,267.996131,-10049.854920
84037.990646,1378.265818,1282.552914,-9762.716208
84037.993231,2316.252277,133.998066,-10145.567824
84037.995816,2182.254211,842.273555,-9647.860723
84037.998402,823.130974,976.271621,-9801.001370
84038.000987,19.142581,325.423874,-10164.710405
84038.003573,459.421939,823.130974,-9877.571693
84038.006158,612.562586,746.560651,-9781.858789
84038.008744,746.560651,650.847747,-10068.997501
84038.011329,631.705166,784.845813,-9820.143950
84038.013915,306.281293,669.990328,-10030.712339
84038.016500,574.277424,918.843878,-9954.142016
84038.019088,957.129040,669.990328,-9896.714274
84038.021675,593.420005,593.420005,-9858.429112
84038.024263,631.705166,1110.269686,-9801.001370
84038.026850,1263.410333,363.709035,-9858.429112
84038.029438,1091.127106,689.132909,-10030.712339
84038.032026,593.420005,1129.412267,-9992.427178
84038.034613,1244.267752,-593.420005,-10164.710405
84038.037201,555.134843,1071.984525,-9743.573627
84038.039788,440.279358,267.996131,-10107.282662
84038.042376,210.568389,1129.412267,-9896.714274
84038.044964,727.418070,650.847747,-9954.142016
84038.047551,382.851616,459.421939,-9781.858789
84038.050139,899.701298,880.558717,-9839.286531
84038.052726,899.701298,421.136778,-10107.282662
84038.055314,153.140646,1129.412267,-9858.429112
84038.057902,459.421939,1033.699363,-9973.284597
84038.060489,0.000000,535.992262,-9896.714274
84038.063077,-344.566454,803.988394,-9858.429112
84038.065664,-172.283227,727.418070,-10107.282662
84038.068252,-38.285162,459.421939,-10049.854920
84038.070840,363.709035,1014.556782,-9781.858789
84038.073427,727.418070,593.420005,-10107.282662
84038.076015,478.564520,401.994197,-9954.142016
84038.078602,114.855485,1110.269686,-9896.714274
84038.081190,248.853550,459.421939,-9992.427178
84038.083778,229.710970,689.132909,-9954.142016
84038.086365,19.142581,1148.554848,-9839.286531
84038.088953,267.996131,516.849682,-9954.142016
84038.091540,-267.996131,1091.127106,-9877.571693
84038.094128,-19.142581,-95.712904,-10260.423309
84038.096716,-440.279358,1493.121302,-9801.001370
84038.099303,516.849682,19.142581,-10030.712339
84038.101891,-133.998066,1186.840010,-9820.143950
84038.104478,-95.712904,1263.410333,-9839.286531
84038.107066,1435.693560,19.142581,-10164.710405
84038.109654,1856.830338,1129.412267,-9820.143950
84038.112241,2029.113565,421.136778,-9896.714274
84038.114829,2029.113565,382.851616,-9915.856854
84038.117416,497.707101,708.275490,-9954.142016
84038.120004,-153.140646,535.992262,-10164.710405
84038.122596,669.990328,861.416136,-9877.571693
84038.125184,976.271621,765.703232,-9954.142016
84038.127773,191.425808,287.138712,-10030.712339
84038.130362,421.136778,1052.841944,-9686.145885
84038.132951,765.703232,727.418070,-9973.284597
84038.135540,344.566454,401.994197,-10088.140082
84038.138129,861.416136,1359.123237,-9609.575562
84038.140718,382.851616,708.275490,-10183.852986
84038.143306,976.271621,-172.283227,-9992.427178
84038.145895,842.273555,1684.547110,-9552.147819
84038.148484,1282.552914,-19.142581,-10375.278794
84038.151073,803.988394,861.416136,-9762.716208
84038.153662,421.136778,1033.699363,-9571.290400
84038.156251,746.560651,153.140646,-9896.714274
84038.158839,-191.425808,1550.549045,-9896.714274
84038.161428,57.427742,650.847747,-10145.567824
84038.164017,382.851616,1071.984525,-9686.145885
84038.166606,1014.556782,497.707101,-9839.286531
84038.169195,555.134843,861.416136,-9896.714274
84038.171784,440.279358,1148.554848,-9896.714274
84038.174373,535.992262,497.707101,-9896.714274
84038.176961,-363.709035,1148.554848,-9781.858789
84038.179550,-76.570323,803.988394,-9801.001370
84038.182139,38.285162,497.707101,-9762.716208
84038.184728,-133.998066,1378.265818,-9992.427178
84038.187317,344.566454,689.132909,-9954.142016
84038.189906,727.418070,746.560651,-9724.431046
84038.192495,459.421939,1244.267752,-9762.716208
84038.195083,153.140646,555.134843,-10011.569758
84038.197672,765.703232,612.562586,-9858.429112
84038.200261,76.570323,1454.836141,-9820.143950
84038.202850,-38.285162,325.423874,-9992.427178
84038.205439,191.425808,957.129040,-9647.860723
84038.208028,-229.710970,1033.699363,-9801.001370
84038.210617,-153.140646,-287.138712,-10222.138147
84038.213205,-306.281293,1665.404530,-9705.288466
84038.215794,478.564520,-19.142581,-10011.569758
84038.218383,-210.568389,1186.840010,-9762.716208
84038.220972,248.853550,976.271621,-9896.714274
84038.223561,803.988394,727.418070,-9801.001370
84038.226151,1301.695494,937.986459,-9877.571693
84038.228741,2201.396792,440.279358,-10088.140082
84038.231331,1933.400661,631.705166,-9686.145885
84038.233921,516.849682,708.275490,-9915.856854
84038.236511,-229.710970,746.560651,-9858.429112
84038.239101,689.132909,784.845813,-9858.429112
84038.241691,689.132909,574.277424,-10088.140082
84038.244281,421.136778,727.418070,-9915.856854
84038.246871,631.705166,937.986459,-9896.714274
84038.249461,363.709035,306.281293,-10164.710405
84038.252051,497.707101,842.273555,-9801.001370
84038.254641,937.986459,861.416136,-10030.712339
84038.257231,287.138712,459.421939,-10088.140082
84038.259821,937.986459,574.277424,-9628.718142
84038.262411,1148.554848,1052.841944,-9934.999435
84038.265001,1167.697429,-95.712904,-10317.851051
84038.267591,784.845813,1186.840010,-9762.716208
84038.270181,823.130974,746.560651,-9877.571693
84038.272771,555.134843,-38.285162,-9954.142016
84038.275361,-401.994197,1741.974853,-9820.143950
84038.277951,535.992262,363.709035,-10068.997501
84038.280541,669.990328,918.843878,-9647.860723
84038.283131,593.420005,765.703232,-9915.856854
84038.285721,669.990328,593.420005,-9915.856854
84038.288311,478.564520,918.843878,-9858.429112
84038.290901,287.138712,861.416136,-10030.712339
84038.293491,-421.136778,918.843878,-9839.286531
84038.296081,133.998066,401.994197,-9801.001370
84038.298671,-344.566454,1052.841944,-9896.714274
84038.301261,-95.712904,842.273555,-10068.997501
84038.303851,746.560651,421.136778,-9973.284597
84038.306441,535.992262,1186.840010,-9781.858789
84038.309032,363.709035,306.281293,-9973.284597
84038.311623,459.421939,459.421939,-9934.999435
84038.314214,363.709035,1301.695494,-9667.003304
84038.316804,95.712904,306.281293,-10222.138147
84038.319395,114.855485,861.416136,-9858.429112
84038.321986,287.138712,861.416136,-9628.718142
84038.324576,-918.843878,1110.269686,-10049.854920
84038.327167,-325.423874,612.562586,-10088.140082
84038.329758,267.996131,1148.554848,-9801.001370
84038.332349,-306.281293,899.701298,-9973.284597
84038.334939,631.705166,153.140646,-10088.140082
84038.337530,497.707101,1263.410333,-9801.001370
84038.340121,1186.840010,-57.427742,-10126.425243
84038.342711,1741.974853,1148.554848,-9915.856854
84038.345302,2086.541307,401.994197,-9896.714274
84038.347893,1129.412267,19.142581,-10030.712339
84038.350484,440.279358,1148.554848,-9858.429112
84038.353074,325.423874,612.562586,-10011.569758
84038.355665,325.423874,574.277424,-9973.284597
84038.358256,708.275490,708.275490,-9992.427178
84038.360847,612.562586,957.129040,-9896.714274
84038.363437,287.138712,593.420005,-9877.571693
84038.366028,440.279358,823.130974,-9801.001370
84038.368619,899.701298,1014.556782,-9858.429112
84038.371209,401.994197,497.707101,-10145.567824
84038.373800,574.277424,842.273555,-9705.288466
84038.376391,1091.127106,1282.552914,-9743.573627
84038.378982,1550.549045,-76.570323,-10107.282662
84038.381572,229.710970,1914.258080,-9705.288466
84038.384163,1359.123237,-421.136778,-10068.997501
84038.386754,708.275490,842.273555,-9820.143950
84038.389344,248.853550,593.420005,-10126.425243
84038.391935,0.000000,1148.554848,-9820.143950
84038.394526,382.851616,1129.412267,-9858.429112
84038.397117,765.703232,344.566454,-10011.569758
84038.399707,287.138712,1052.841944,-9934.999435
84038.402298,765.703232,689.132909,-9954.142016
84038.404889,-19.142581,957.129040,-9858.429112
84038.407479,191.425808,918.843878,-9839.286531
84038.410070,133.998066,899.701298,-9762.716208
84038.412661,-344.566454,899.701298,-9820.143950
84038.415252,-76.570323,937.986459,-9954.142016
84038.417843,574.277424,631.705166,-10049.854920
84038.420434,574.277424,1148.554848,-9743.573627
84038.423025,306.281293,708.275490,-9973.284597
84038.425616,516.849682,440.279358,-10011.569758
84038.428207,459.421939,1225.125171,-9571.290400
84038.430798,-38.285162,574.277424,-10049.854920
84038.433389,191.425808,746.560651,-10049.854920
84038.435980,325.423874,861.416136,-9667.003304
84038.438572,-497.707101,842.273555,-9858.429112
84038.441163,-248.853550,267.996131,-10202.995566
84038.443754,38.285162,1454.836141,-9628.718142
84038.446345,-114.855485,727.418070,-10049.854920
84038.448936,401.994197,593.420005,-10088.140082
84038.451527,631.705166,1225.125171,-9743.573627
84038.454118,995.414202,-19.142581,-10145.567824
84038.456709,1588.834206,1052.841944,-9915.856854
84038.459300,2105.683888,344.566454,-9934.999435
84038.461891,1244.267752,784.845813,-9705.288466
84038.464482,114.855485,976.271621,-9820.143950
84038.467073,535.992262,248.853550,-10202.995566
84038.469664,478.564520,784.845813,-9934.999435
84038.472255,689.132909,689.132909,-10011.569758
84038.474846,401.994197,784.845813,-9896.714274
84038.477437,631.705166,478.564520,-9954.142016
84038.480028,210.568389,669.990328,-9877.571693
84038.482619,803.988394,880.558717,-9896.714274
84038.485210,478.564520,497.707101,-10068.997501
84038.487801,937.986459,593.420005,-9743.573627
84038.490392,976.271621,1320.838075,-9724.431046
84038.492983,1435.693560,-133.998066,-10126.425243
84038.495574,363.709035,1722.832272,-9647.860723
84038.498165,1033.699363,191.425808,-9973.284597
84038.500756,784.845813,363.709035,-9820.143950
84038.503347,-287.138712,1416.550979,-9877.571693
84038.505938,76.570323,880.558717,-9934.999435
84038.508529,382.851616,803.988394,-9839.286531
84038.511120,631.705166,631.705166,-9915.856854
84038.513711,325.423874,689.132909,-9858.429112
84038.516302,363.709035,803.988394,-9934.999435
84038.518893,114.855485,708.275490,-9915.856854
84038.521483,-287.138712,1033.699363,-9743.573627
84038.524074,287.138712,516.849682,-9973.284597
84038.526665,-19.142581,1052.841944,-9839.286531
84038.529255,172.283227,937.986459,-9896.714274
84038.531846,727.418070,210.568389,-10145.567824
84038.534437,382.851616,1071.984525,-9571.290400
84038.537027,497.707101,401.994197,-10011.569758
84038.539618,765.703232,440.279358,-10088.140082
84038.542209,114.855485,1454.836141,-9705.288466
84038.544799,114.855485,421.136778,-10107.282662
84038.547390,-76.570323,1014.556782,-9839.286531
84038.549981,172.283227,957.129040,-9801.001370
84038.552571,-153.140646,382.851616,-10202.995566
84038.555162,-401.994197,1339.980656,-9896.714274
84038.557752,1129.412267,-76.570323,-9973.284597
84038.560343,-57.427742,1091.127106,-9743.573627
84038.562934,440.279358,229.710970,-10145.567824
84038.565524,899.701298,1397.408398,-9647.860723
84038.568115,1301.695494,823.130974,-9915.856854
84038.570706,1473.978722,478.564520,-9973.284597
84038.573296,1627.119368,957.129040,-9705.288466
84038.575887,976.271621,516.849682,-9877.571693
84038.578478,19.142581,880.558717,-9801.001370
84038.581068,689.132909,765.703232,-9934.999435
84038.583659,708.275490,497.707101,-10011.569758
84038.586250,287.138712,937.986459,-9743.573627
84038.588840,746.560651,478.564520,-10107.282662
84038.591431,631.705166,631.705166,-9839.286531
84038.594022,210.568389,1091.127106,-9839.286531
84038.596612,459.421939,669.990328,-10030.712339
84038.599203,1014.556782,306.281293,-9877.571693
84038.601794,727.418070,1550.549045,-9590.432981
84038.604384,1550.549045,248.853550,-10030.712339
84038.606975,823.130974,1339.980656,-9724.431046
84038.609566,957.129040,-191.425808,-9973.284597
84038.612156,765.703232,1148.554848,-9781.858789
84038.614747,153.140646,1148.554848,-10011.569758
84038.617338,19.142581,880.558717,-9992.427178
84038.619928,210.568389,1129.412267,-9743.573627
84038.622518,727.418070,114.855485,-10107.282662
84038.625109,191.425808,976.271621,-9934.999435
84038.627699,363.709035,784.845813,-9973.284597
84038.630289,325.423874,727.418070,-9973.284597
84038.632880,172.283227,823.130974,-9934.999435
84038.635470,95.712904,631.705166,-9839.286531
84038.638061,133.998066,650.847747,-10049.854920
84038.640651,248.853550,708.275490,-9934.999435
84038.643241,363.709035,650.847747,-10011.569758
84038.645832,631.705166,784.845813,-10011.569758
84038.648422,535.992262,535.992262,-9896.714274
84038.651012,459.421939,612.562586,-9915.856854
84038.653603,114.855485,1205.982590,-10088.140082
84038.656193,440.279358,306.281293,-10068.997501
84038.658783,-478.564520,995.414202,-9801.001370
84038.661374,-248.853550,957.129040,-9781.858789
84038.663964,0.000000,478.564520,-10049.854920
84038.666554,-459.421939,1167.697429,-9820.143950
84038.669145,861.416136,-19.142581,-10088.140082
84038.671735,229.710970,1244.267752,-9858.429112
84038.674326,382.851616,38.285162,-10068.997501
84038.676916,574.277424,1359.123237,-9781.858789
84038.679506,1359.123237,746.560651,-10068.997501
84038.682097,1378.265818,593.420005,-9934.999435
84038.684687,1435.693560,1167.697429,-9781.858789
84038.687277,823.130974,708.275490,-9839.286531
84038.689868,267.996131,248.853550,-9992.427178
84038.692458,325.423874,1205.982590,-9877.571693
84038.695048,650.847747,555.134843,-9934.999435
84038.697639,574.277424,555.134843,-9820.143950
84038.700229,248.853550,1225.125171,-9743.573627
84038.702820,631.705166,631.705166,-9934.999435
84038.705410,421.136778,650.847747,-9954.142016
84038.708000,38.285162,1205.982590,-9839.286531
84038.710591,1244.267752,153.140646,-10011.569758
84038.713181,1148.554848,1071.984525,-9801.001370
84038.715771,1033.699363,363.709035,-9934.999435
84038.718362,746.560651,1282.552914,-9705.288466
84038.720952,995.414202,287.138712,-9877.571693
84038.723542,497.707101,784.845813,-9781.858789
84038.726132,-172.283227,1454.836141,-9954.142016
84038.728722,229.710970,650.847747,-9896.714274
84038.731312,191.425808,1225.125171,-9667.003304
84038.733902,382.851616,440.279358,-9954.142016
84038.736492,267.996131,765.703232,-10049.854920
84038.739082,210.568389,1110.269686,-9820.143950
84038.741672,-287.138712,861.416136,-9877.571693
84038.744262,382.851616,401.994197,-9954.142016
84038.746853,19.142581,1071.984525,-9877.571693
84038.749443,-172.283227,574.277424,-9992.427178
84038.752033,784.845813,803.988394,-9992.427178
84038.754623,631.705166,784.845813,-9820.143950
84038.757213,210.568389,210.568389,-10049.854920
84038.759803,650.847747,1167.697429,-9858.429112
84038.762393,650.847747,516.849682,-10011.569758
84038.764983,-133.998066,593.420005,-10183.852986
84038.767573,76.570323,1091.127106,-9858.429112
84038.770163,574.277424,287.138712,-10068.997501
84038.772753,-593.420005,842.273555,-9896.714274
84038.775343,248.853550,38.285162,-10260.423309
84038.777933,363.709035,1129.412267,-9954.142016
84038.780523,191.425808,842.273555,-9973.284597
84038.783113,574.277424,248.853550,-10030.712339
84038.785703,823.130974,957.129040,-9839.286531
84038.788293,1205.982590,-38.285162,-10164.710405
84038.790883,1033.699363,1263.410333,-9743.573627
84038.793473,1780.260014,421.136778,-9954.142016
84038.796063,1186.840010,727.418070,-9781.858789
84038.798653,325.423874,1091.127106,-9839.286531
84038.801243,306.281293,631.705166,-10088.140082
84038.803833,727.418070,401.994197,-9896.714274
84038.806423,421.136778,1339.980656,-9667.003304
84038.809013,459.421939,593.420005,-10011.569758
84038.811604,440.279358,746.560651,-9839.286531
84038.814194,344.566454,995.414202,-9705.288466
84038.816784,459.421939,861.416136,-9915.856854
84038.819374,727.418070,401.994197,-9992.427178
84038.821964,803.988394,1263.410333,-9533.005238
84038.824554,1397.408398,172.283227,-10030.712339
84038.827143,842.273555,1320.838075,-9801.001370
84038.829731,1205.982590,-19.142581,-9973.284597
84038.832320,784.845813,1052.841944,-9743.573627
84038.834909,555.134843,631.705166,-10088.140082
84038.837498,-133.998066,1378.265818,-9858.429112
84038.840087,401.994197,727.418070,-9743.573627
84038.842676,516.849682,363.709035,-9934.999435
84038.845265,76.570323,1033.699363,-9973.284597
84038.847854,0.000000,669.990328,-10088.140082
84038.850442,38.285162,669.990328,-10011.569758
84038.853031,57.427742,784.845813,-9839.286531
84038.855620,38.285162,535.992262,-10030.712339
84038.858209,593.420005,708.275490,-9992.427178
84038.860798,440.279358,861.416136,-10011.569758
84038.863387,153.140646,133.998066,-10088.140082
84038.865976,612.562586,823.130974,-9820.143950
84038.868565,689.132909,823.130974,-9973.284597
84038.871153,114.855485,306.281293,-10222.138147
84038.873742,287.138712,823.130974,-9801.001370
84038.876331,287.138712,823.130974,-9954.142016
84038.878920,401.994197,-57.427742,-10241.280728
84038.881509,-803.988394,1416.550979,-9724.431046
84038.884098,172.283227,-57.427742,-10260.423309
84038.886687,-382.851616,1205.982590,-9915.856854
84038.889276,478.564520,823.130974,-9954.142016
84038.891864,555.134843,861.416136,-10183.852986
84038.894453,803.988394,957.129040,-9743.573627
84038.897042,1033.699363,267.996131,-9992.427178
84038.899631,1301.695494,1014.556782,-9839.286531
84038.902220,1301.695494,478.564520,-10030.712339
84038.904809,765.703232,1071.984525,-9724.431046
84038.907398,880.558717,689.132909,-9877.571693
84038.909987,267.996131,38.285162,-10126.425243
84038.912575,459.421939,1225.125171,-9877.571693
84038.915164,784.845813,708.275490,-10126.425243
84038.917753,669.990328,57.427742,-9934.999435
84038.920342,344.566454,1320.838075,-9590.432981
84038.922931,784.845813,344.566454,-10011.569758
84038.925520,172.283227,459.421939,-9934.999435
84038.928109,976.271621,899.701298,-9781.858789
84038.930697,976.271621,1091.127106,-9954.142016
84038.933285,1550.549045,19.142581,-9896.714274
84038.935873,363.709035,1722.832272,-9647.860723
84038.938461,1397.408398,-229.710970,-10049.854920
84038.941049,1071.984525,172.283227,-9915.856854
84038.943637,57.427742,1607.976787,-9781.858789
84038.946225,191.425808,593.420005,-9839.286531
84038.948813,382.851616,1071.984525,-9628.718142
84038.951401,497.707101,497.707101,-9915.856854
84038.953989,-172.283227,765.703232,-10030.712339
84038.956578,-38.285162,1320.838075,-9915.856854
84038.959166,267.996131,344.566454,-9992.427178
84038.961754,-229.710970,612.562586,-9820.143950
84038.964342,382.851616,937.986459,-9934.999435
84038.966930,382.851616,1071.984525,-9954.142016
84038.969518,325.423874,421.136778,-10088.140082
84038.972106,593.420005,746.560651,-9915.856854
84038.974694,555.134843,689.132909,-9896.714274
84038.977282,382.851616,0.000000,-10202.995566
84038.979870,-306.281293,1569.691626,-9705.288466
84038.982458,401.994197,650.847747,-9934.999435
84038.985046,-210.568389,669.990328,-10145.567824
84038.987635,-153.140646,1033.699363,-9781.858789
84038.990223,19.142581,689.132909,-9801.001370
84038.992811,-382.851616,746.560651,-10011.569758
84038.995399,842.273555,248.853550,-10030.712339
84038.997987,497.707101,1359.123237,-9877.571693
84039.000575,574.277424,899.701298,-9896.714274
84039.003163,708.275490,1244.267752,-9590.432981
84039.005751,1301.695494,765.703232,-9915.856854
84039.008339,1225.125171,267.996131,-10145.567824
84039.010927,957.129040,1148.554848,-9762.716208
84039.013515,1110.269686,555.134843,-9896.714274
84039.016104,459.421939,459.421939,-9781.858789
84039.018692,248.853550,937.986459,-9743.573627
84039.021280,669.990328,612.562586,-10030.712339
84039.023868,689.132909,382.851616,-9973.284597
84039.026456,382.851616,1205.982590,-9801.001370
84039.029044,593.420005,689.132909,-9973.284597
84039.031632,440.279358,306.281293,-9915.856854
84039.034198,689.132909,1167.697429,-9762.716208
84039.036764,976.271621,1052.841944,-9858.429112
84039.039330,1531.406464,0.000000,-9877.571693
84039.041895,267.996131,1875.972918,-9647.860723
84039.044461,1454.836141,-593.420005,-10049.854920
84039.047027,918.843878,861.416136,-9954.142016
84039.049593,363.709035,1167.697429,-10030.712339
84039.052159,-287.138712,995.414202,-9954.142016
84039.054725,555.134843,746.560651,-9934.999435
84039.057291,382.851616,440.279358,-9954.142016
84039.059856,-57.427742,765.703232,-9992.427178
84039.062422,478.564520,459.421939,-10088.140082
84039.064988,-248.853550,1225.125171,-9820.143950
84039.067554,172.283227,344.566454,-9954.142016
84039.070120,287.138712,669.990328,-9934.999435
84039.072686,459.421939,1091.127106,-9954.142016
84039.075252,516.849682,325.423874,-10164.710405
84039.077817,478.564520,689.132909,-9954.142016
84039.080383,746.560651,1129.412267,-9781.858789
84039.082949,478.564520,57.427742,-10260.423309
84039.085515,-114.855485,1225.125171,-9896.714274
84039.088081,593.420005,535.992262,-9973.284597
84039.090647,-325.423874,861.416136,-10126.425243
84039.093212,-191.425808,957.129040,-9743.573627
84039.095778,-19.142581,669.990328,-9762.716208
84039.098344,-267.996131,784.845813,-10030.712339
84039.100910,765.703232,306.281293,-9954.142016
84039.103476,555.134843,1205.982590,-9801.001370
84039.106042,823.130974,-95.712904,-10126.425243
84039.108608,535.992262,1397.408398,-9628.718142
84039.111173,1301.695494,631.705166,-9954.142016
84039.113739,1014.556782,612.562586,-10107.282662
84039.116305,1033.699363,1186.840010,-9820.143950
84039.118871,784.845813,689.132909,-9858.429112
84039.121437,440.279358,172.283227,-9877.571693
84039.124003,401.994197,1339.980656,-9686.145885
84039.126569,669.990328,363.709035,-9973.284597
84039.129134,421.136778,555.134843,-9992.427178
84039.131700,306.281293,995.414202,-9743.573627
84039.134266,650.847747,612.562586,-9820.143950
84039.136833,267.996131,803.988394,-9877.571693
84039.139401,976.271621,746.560651,-9896.714274
84039.141969,899.701298,1244.267752,-9877.571693
84039.144537,1493.121302,-133.998066,-9992.427178
84039.147105,555.134843,1550.549045,-9552.147819
84039.149673,1301.695494,229.710970,-9954.142016
84039.152241,976.271621,593.420005,-9820.143950
84039.154809,172.283227,1569.691626,-9781.858789
84039.157377,-287.138712,937.986459,-9801.001370
84039.159945,133.998066,899.701298,-9801.001370
84039.162513,497.707101,593.420005,-9801.001370
84039.165081,-153.140646,650.847747,-10049.854920
84039.167649,363.709035,650.847747,-10011.569758
84039.170217,-133.998066,1071.984525,-9820.143950
84039.172784,-57.427742,421.136778,-9954.142016
84039.175352,746.560651,497.707101,-9934.999435
84039.177920,401.994197,1186.840010,-9896.714274
84039.180488,574.277424,516.849682,-10183.852986
84039.183056,363.709035,880.558717,-9820.143950
84039.185624,765.703232,746.560651,-9628.718142
84039.188192,133.998066,478.564520,-10145.567824
84039.190760,153.140646,746.560651,-10030.712339
84039.193328,191.425808,1148.554848,-9628.718142
84039.195896,95.712904,172.283227,-10011.569758
84039.198464,-267.996131,918.843878,-9992.427178
84039.201032,133.998066,287.138712,-9934.999435
84039.203600,-497.707101,1129.412267,-9877.571693
84039.206168,440.279358,995.414202,-9915.856854
84039.208736,957.129040,708.275490,-9992.427178
84039.211304,708.275490,937.986459,-9877.571693
84039.213872,937.986459,382.851616,-9973.284597
84039.216440,1282.552914,746.560651,-9858.429112
84039.219008,1091.127106,19.142581,-10145.567824
84039.221576,823.130974,1148.554848,-9724.431046
84039.224144,937.986459,535.992262,-9762.716208
84039.226712,153.140646,57.427742,-10049.854920
84039.229280,497.707101,1225.125171,-9724.431046
84039.231848,669.990328,1052.841944,-9954.142016
84039.234416,612.562586,76.570323,-10011.569758
84039.236984,172.283227,1473.978722,-9667.003304
84039.239554,803.988394,535.992262,-10030.712339
84039.242124,593.420005,363.709035,-9973.284597
84039.244694,842.273555,1110.269686,-9647.860723
84039.247264,1397.408398,612.562586,-10107.282662
84039.249833,669.990328,823.130974,-9973.284597
84039.252403,210.568389,19.142581,-9992.427178
84039.254973,746.560651,1205.982590,-9743.573627
84039.257543,842.273555,-19.142581,-10413.563955
84039.260113,-574.277424,1761.117434,-9801.001370
84039.262683,153.140646,421.136778,-10011.569758
84039.265253,306.281293,612.562586,-9858.429112
84039.267823,0.000000,1301.695494,-9877.571693
84039.270393,344.566454,459.421939,-10049.854920
84039.272962,287.138712,995.414202,-9858.429112
84039.275532,0.000000,1014.556782,-9820.143950
84039.278102,210.568389,612.562586,-9992.427178
84039.280672,516.849682,535.992262,-10088.140082
84039.283242,669.990328,995.414202,-9896.714274
84039.285812,153.140646,631.705166,-9896.714274
84039.288382,727.418070,497.707101,-9915.856854
84039.290952,669.990328,861.416136,-9705.288466
84039.293522,-306.281293,1148.554848,-9954.142016
84039.296092,612.562586,459.421939,-10164.710405
84039.298661,-210.568389,421.136778,-9552.147819
84039.301231,-401.994197,593.420005,-9973.284597
84039.303801,133.998066,95.712904,-10183.852986
84039.306371,-229.710970,1301.695494,-9667.003304
84039.308941,880.558717,-382.851616,-10068.997501
84039.311511,401.994197,1225.125171,-9915.856854
84039.314081,765.703232,765.703232,-9877.571693
84039.316651,650.847747,995.414202,-9762.716208
84039.319221,937.986459,899.701298,-10145.567824
84039.321790,1282.552914,421.136778,-9973.284597
84039.324360,727.418070,784.845813,-9781.858789
84039.326930,421.136778,497.707101,-9915.856854
84039.329500,803.988394,631.705166,-9954.142016
84039.332070,612.562586,669.990328,-10011.569758
84039.334640,287.138712,727.418070,-9973.284597
84039.337210,727.418070,937.986459,-9877.571693
84039.339780,440.279358,267.996131,-10088.140082
84039.342351,133.998066,1014.556782,-9781.858789
84039.344922,746.560651,784.845813,-10011.569758
84039.347493,1244.267752,535.992262,-9743.573627
84039.350064,937.986459,957.129040,-9667.003304
84039.352635,631.705166,1301.695494,-9877.571693
84039.355206,1512.263883,-650.847747,-10107.282662
84039.357778,593.420005,1933.400661,-9475.577496
84039.360349,880.558717,-401.994197,-10317.851051
84039.362920,-421.136778,1301.695494,-9877.571693
84039.365491,19.142581,516.849682,-9954.142016
84039.368062,38.285162,516.849682,-9896.714274
84039.370633,363.709035,746.560651,-10049.854920
84039.373204,306.281293,497.707101,-10049.854920
84039.375775,76.570323,899.701298,-9705.288466
84039.378346,287.138712,918.843878,-10030.712339
84039.380918,382.851616,746.560651,-9820.143950
84039.383489,306.281293,612.562586,-9973.284597
84039.386060,689.132909,727.418070,-10049.854920
84039.388631,401.994197,727.418070,-9896.714274
84039.391202,478.564520,689.132909,-9934.999435
84039.393773,497.707101,746.560651,-10049.854920
84039.396344,287.138712,746.560651,-9954.142016
84039.398915,-153.140646,937.986459,-9973.284597
84039.401487,593.420005,421.136778,-10030.712339
84039.404058,-478.564520,1186.840010,-9896.714274
84039.406629,-191.425808,287.138712,-10222.138147
84039.409200,76.570323,1225.125171,-9820.143950
84039.411771,880.558717,765.703232,-9915.856854
84039.414342,995.414202,306.281293,-10145.567824
84039.416913,899.701298,1263.410333,-9877.571693
84039.419484,1110.269686,248.853550,-9915.856854
84039.422055,803.988394,765.703232,-9992.427178
84039.424627,823.130974,669.990328,-9915.856854
84039.427198,612.562586,918.843878,-9839.286531
84039.429769,727.418070,421.136778,-10030.712339
84039.432340,306.281293,957.129040,-9954.142016
84039.434911,823.130974,1014.556782,-9973.284597
84039.437482,593.420005,421.136778,-9992.427178
84039.440053,153.140646,1167.697429,-9762.716208
84039.442624,746.560651,727.418070,-10049.854920
84039.445197,95.712904,306.281293,-10145.567824
84039.447769,937.986459,689.132909,-9781.858789
84039.450342,918.843878,937.986459,-9934.999435
84039.452914,1186.840010,76.570323,-10068.997501
84039.455486,842.273555,1263.410333,-9609.575562
84039.458059,918.843878,918.843878,-9915.856854
84039.460631,957.129040,76.570323,-9973.284597
84039.463204,-287.138712,1895.115499,-9686.145885
84039.465776,-133.998066,516.849682,-9915.856854
84039.468348,95.712904,535.992262,-9743.573627
84039.470921,325.423874,765.703232,-9820.143950
84039.473493,153.140646,784.845813,-9992.427178
84039.476066,401.994197,957.129040,-9992.427178
84039.478638,516.849682,555.134843,-9877.571693
84039.481210,-57.427742,976.271621,-9743.573627
84039.483783,823.130974,229.710970,-10030.712339
84039.486355,248.853550,1359.123237,-9877.571693
84039.488928,401.994197,440.279358,-9973.284597
84039.491500,555.134843,612.562586,-9915.856854
84039.494072,708.275490,574.277424,-9820.143950
84039.496645,-229.710970,746.560651,-10049.854920
84039.499217,210.568389,918.843878,-9915.856854
84039.501790,306.281293,918.843878,-9954.142016
84039.504362,19.142581,516.849682,-9954.142016
84039.506934,0.000000,689.132909,-10049.854920
84039.509507,95.712904,995.414202,-9801.001370
84039.512079,1091.127106,-172.283227,-10164.710405
84039.514651,803.988394,1397.408398,-9992.427178
84039.517224,1110.269686,976.271621,-9934.999435
84039.519796,861.416136,803.988394,-9858.429112
84039.522369,612.562586,1071.984525,-9820.143950
84039.524941,976.271621,344.566454,-10011.569758
84039.527513,842.273555,746.560651,-10011.569758
84039.530086,535.992262,918.843878,-9858.429112
84039.532658,497.707101,861.416136,-9915.856854
84039.535231,555.134843,555.134843,-10049.854920
84039.537803,363.709035,957.129040,-9743.573627
84039.540375,784.845813,497.707101,-10088.140082
84039.542948,325.423874,765.703232,-9839.286531
84039.545520,57.427742,1148.554848,-9705.288466
84039.548094,1320.838075,459.421939,-9973.284597
84039.550667,880.558717,1014.556782,-9858.429112
84039.553240,957.129040,689.132909,-9705.288466
84039.555813,708.275490,1378.265818,-9858.429112
84039.558387,1435.693560,-306.281293,-9973.284597
84039.560960,440.279358,1263.410333,-9552.147819
84039.563533,-95.712904,1378.265818,-9896.714274
84039.566107,-153.140646,708.275490,-9877.571693
84039.568680,-133.998066,861.416136,-9724.431046
84039.571253,401.994197,191.425808,-9896.714274
84039.573827,306.281293,708.275490,-9877.571693
84039.576400,248.853550,784.845813,-9954.142016
84039.578973,191.425808,957.129040,-9954.142016
84039.581547,478.564520,344.566454,-9839.286531
84039.584120,401.994197,1033.699363,-9801.001370
84039.586693,153.140646,401.994197,-10088.140082
84039.589267,727.418070,727.418070,-10049.854920
84039.591840,478.564520,1129.412267,-9877.571693
84039.594413,153.140646,-95.712904,-9973.284597
84039.596987,267.996131,1186.840010,-9839.286531
84039.599560,267.996131,803.988394,-9954.142016
84039.602133,-95.712904,497.707101,-9973.284597
84039.604707,478.564520,784.845813,-9839.286531
84039.607280,-57.427742,937.986459,-9954.142016
84039.609853,-421.136778,1014.556782,-9992.427178
84039.612426,1110.269686,306.281293,-9992.427178
84039.615000,976.271621,1205.982590,-9839.286531
84039.617573,555.134843,669.990328,-10088.140082
84039.620146,899.701298,1071.984525,-9877.571693
84039.622720,957.129040,861.416136,-9896.714274
84039.625293,593.420005,76.570323,-10126.425243
84039.627866,1052.841944,995.414202,-9896.714274
84039.630441,842.273555,669.990328,-9915.856854
84039.633015,287.138712,306.281293,-10126.425243
84039.635589,593.420005,1129.412267,-9686.145885
84039.638164,861.416136,1033.699363,-9915.856854
84039.640738,382.851616,114.855485,-10183.852986
84039.643312,172.283227,1588.834206,-9667.003304
84039.645887,650.847747,823.130974,-9973.284597
84039.648461,976.271621,-76.570323,-10164.710405
84039.651035,631.705166,1722.832272,-9513.862658
84039.653610,1416.550979,95.712904,-9934.999435
84039.656184,1320.838075,306.281293,-9820.143950
84039.658758,535.992262,1875.972918,-9475.577496
84039.661333,1110.269686,-306.281293,-10126.425243
84039.663907,-325.423874,1512.263883,-9839.286531
84039.666481,-459.421939,918.843878,-9762.716208
84039.669056,57.427742,899.701298,-9667.003304
84039.671630,516.849682,401.994197,-9896.714274
84039.674204,-38.285162,1071.984525,-9781.858789
84039.676779,516.849682,937.986459,-9915.856854
84039.679353,344.566454,899.701298,-9762.716208
84039.681927,267.996131,899.701298,-9877.571693
84039.684502,153.140646,918.843878,-9801.001370
84039.687076,708.275490,440.279358,-9915.856854
84039.689650,478.564520,1588.834206,-9801.001370
84039.692225,555.134843,421.136778,-10030.712339
84039.694799,306.281293,516.849682,-9724.431046
84039.697373,229.710970,1282.552914,-9781.858789
84039.699948,172.283227,612.562586,-10088.140082
84039.702522,823.130974,363.709035,-10030.712339
84039.705096,-459.421939,1435.693560,-9647.860723
84039.707671,-95.712904,38.285162,-10222.138147
84039.710245,440.279358,1186.840010,-9915.856854
84039.712819,880.558717,1033.699363,-9781.858789
84039.715394,918.843878,172.283227,-10088.140082
84039.717968,1014.556782,1033.699363,-10011.569758
84039.720542,918.843878,344.566454,-9915.856854
84039.723117,535.992262,612.562586,-9858.429112
84039.725691,574.277424,880.558717,-10011.569758
84039.728265,899.701298,631.705166,-9896.714274
84039.730840,478.564520,650.847747,-10049.854920
84039.733415,574.277424,497.707101,-10030.712339
84039.735990,612.562586,1282.552914,-9686.145885
84039.738565,555.134843,19.142581,-10241.280728
84039.741140,267.996131,957.129040,-9839.286531
84039.743715,689.132909,1052.841944,-9801.001370
84039.746290,535.992262,-95.712904,-10317.851051
84039.748865,382.851616,1837.687757,-9437.292334
84039.751439,1665.404530,287.138712,-10011.569758
84039.754014,133.998066,1014.556782,-10126.425243
84039.756589,1014.556782,363.709035,-9686.145885
84039.759164,880.558717,957.129040,-9781.858789
84039.761739,267.996131,191.425808,-10260.423309
84039.764314,-880.558717,1646.261949,-9781.858789
84039.766889,478.564520,306.281293,-9934.999435
84039.769464,133.998066,459.421939,-9858.429112
84039.772039,76.570323,1167.697429,-9781.858789
84039.774614,631.705166,708.275490,-10107.282662
84039.777189,612.562586,440.279358,-9954.142016
84039.779764,57.427742,1110.269686,-9762.716208
84039.782339,401.994197,555.134843,-9954.142016
84039.784914,631.705166,306.281293,-9858.429112
84039.787489,210.568389,1531.406464,-9590.432981
84039.790064,593.420005,669.990328,-10126.425243
84039.792639,497.707101,76.570323,-9896.714274
84039.795214,382.851616,1282.552914,-9801.001370
84039.797789,172.283227,421.136778,-10183.852986
84039.800364,593.420005,440.279358,-9934.999435
84039.802939,-76.570323,1473.978722,-9743.573627
84039.805514,0.000000,-229.710970,-10241.280728
84039.808089,306.281293,1186.840010,-9973.284597
84039.810664,1110.269686,918.843878,-9839.286531
84039.813239,746.560651,267.996131,-10183.852986
84039.815814,861.416136,1148.554848,-9992.427178
84039.818389,842.273555,478.564520,-9839.286531
84039.820964,478.564520,612.562586,-9934.999435
84039.823539,1052.841944,421.136778,-10145.567824
84039.826114,459.421939,1148.554848,-9705.288466
84039.828689,401.994197,421.136778,-10011.569758
84039.831264,306.281293,612.562586,-9973.284597
84039.833838,823.130974,1205.982590,-9667.003304
84039.836394,555.134843,306.281293,-10279.565890
84039.838949,267.996131,1014.556782,-9762.716208
84039.841504,555.134843,1052.841944,-9762.716208
84039.844059,708.275490,-38.285162,-10394.421374
84039.846615,555.134843,1627.119368,-9513.862658
84039.849170,1473.978722,555.134843,-9705.288466
84039.851725,76.570323,1052.841944,-10164.710405
84039.854280,861.416136,689.132909,-9743.573627
84039.856835,823.130974,861.416136,-9839.286531
84039.859391,363.709035,612.562586,-10011.569758
84039.861946,-765.703232,1569.691626,-9724.431046
84039.864501,440.279358,191.425808,-9915.856854
84039.867056,325.423874,344.566454,-9934.999435
84039.869612,172.283227,1167.697429,-9858.429112
84039.872167,708.275490,478.564520,-10049.854920
84039.874722,421.136778,593.420005,-9992.427178
84039.877277,38.285162,1186.840010,-9801.001370
84039.879832,535.992262,478.564520,-10030.712339
84039.882388,612.562586,421.136778,-10011.569758
84039.884943,287.138712,1301.695494,-9667.003304
84039.887498,612.562586,555.134843,-10088.140082
84039.890053,287.138712,497.707101,-9896.714274
84039.892608,153.140646,995.414202,-9667.003304
84039.895164,267.996131,918.843878,-10011.569758
84039.897719,861.416136,153.140646,-10068.997501
84039.900274,-555.134843,1531.406464,-9801.001370
84039.902829,76.570323,153.140646,-10107.282662
84039.905385,689.132909,880.558717,-9934.999435
84039.907940,918.843878,1186.840010,-9858.429112
84039.910495,842.273555,153.140646,-10011.569758
84039.913050,957.129040,746.560651,-9954.142016
84039.915605,803.988394,593.420005,-9934.999435
84039.918161,497.707101,746.560651,-9820.143950
84039.920716,861.416136,842.273555,-10068.997501
84039.923271,669.990328,995.414202,-9686.145885
84039.925826,248.853550,689.132909,-10049.854920
84039.928382,631.705166,612.562586,-10049.854920
84039.930937,555.134843,1301.695494,-9590.432981
84039.933492,497.707101,133.998066,-10260.423309
84039.936047,382.851616,880.558717,-9858.429112
84039.938605,516.849682,1052.841944,-9667.003304
84039.941164,727.418070,-133.998066,-10260.423309
84039.943722,478.564520,1205.982590,-9839.286531
84039.946280,1205.982590,401.994197,-9992.427178
84039.948838,880.558717,306.281293,-10145.567824
84039.951397,708.275490,1378.265818,-9743.573627
84039.953955,1091.127106,229.710970,-9877.571693
84039.956513,-153.140646,1167.697429,-9992.427178
84039.959071,-287.138712,937.986459,-9954.142016
84039.961630,306.281293,650.847747,-9724.431046
84039.964188,325.423874,267.996131,-10011.569758
84039.966746,153.140646,1129.412267,-9820.143950
84039.969304,363.709035,1148.554848,-9839.286531
84039.971863,382.851616,344.566454,-9915.856854
84039.974421,210.568389,1091.127106,-9724.431046
84039.976979,574.277424,976.271621,-9820.143950
84039.979537,574.277424,-38.285162,-10126.425243
84039.982096,325.423874,1512.263883,-9609.575562
84039.984654,803.988394,401.994197,-10030.712339
84039.987212,-133.998066,612.562586,-9954.142016
84039.989770,306.281293,1435.693560,-9647.860723
84039.992329,344.566454,382.851616,-10030.712339
84039.994887,421.136778,478.564520,-10049.854920
84039.997445,-267.996131,1129.412267,-9858.429112
84040.000003,0.000000,880.558717,-9801.001370
84040.002561,1301.695494,-95.712904,-9934.999435
84040.005120,440.279358,1550.549045,-9781.858789
84040.007678,899.701298,95.712904,-10030.712339
84040.010236,861.416136,957.129040,-9801.001370
84040.012794,363.709035,1071.984525,-9877.571693
84040.015353,459.421939,95.712904,-10068.997501
84040.017911,995.414202,727.418070,-10030.712339
84040.020469,669.990328,746.560651,-9954.142016
84040.023027,172.283227,574.277424,-9954.142016
84040.025586,880.558717,535.992262,-10030.712339
84040.028144,363.709035,1071.984525,-9801.001370
84040.030702,421.136778,535.992262,-9858.429112
84040.033260,669.990328,593.420005,-10068.997501
84040.035819,823.130974,1091.127106,-9781.858789
84040.038377,555.134843,1033.699363,-9992.427178
84040.040918,1148.554848,401.994197,-10126.425243
84040.043459,440.279358,1607.976787,-9647.860723
84040.046000,1205.982590,-306.281293,-10088.140082
84040.048542,689.132909,1110.269686,-9915.856854
84040.051083,516.849682,612.562586,-10049.854920
84040.053624,-669.990328,995.414202,-10011.569758
84040.056165,344.566454,459.421939,-10145.567824
84040.058706,344.566454,765.703232,-9820.143950
84040.061247,210.568389,574.277424,-10126.425243
84040.063789,267.996131,746.560651,-9934.999435
84040.066330,459.421939,1052.841944,-9781.858789
84040.068871,0.000000,363.709035,-10088.140082
84040.071412,153.140646,899.701298,-9762.716208
84040.073953,727.418070,880.558717,-9896.714274
84040.076494,267.996131,535.992262,-10107.282662
84040.079036,382.851616,937.986459,-9820.143950
84040.081577,248.853550,1129.412267,-9915.856854
84040.084118,535.992262,344.566454,-9915.856854
84040.086659,-287.138712,1339.980656,-9494.720077
84040.089200,708.275490,459.421939,-9992.427178
84040.091741,-382.851616,937.986459,-9973.284597
84040.094283,-306.281293,1263.410333,-9667.003304
84040.096824,1052.841944,574.277424,-9743.573627
84040.099365,957.129040,899.701298,-9858.429112
84040.101906,823.130974,229.710970,-10088.140082
84040.104447,555.134843,1205.982590,-9820.143950
84040.106988,937.986459,612.562586,-9915.856854
84040.109530,497.707101,784.845813,-9896.714274
84040.112071,880.558717,861.416136,-9915.856854
84040.114612,784.845813,363.709035,-9915.856854
84040.117153,344.566454,918.843878,-9877.571693
84040.119694,516.849682,823.130974,-9858.429112
84040.122235,861.416136,555.134843,-9877.571693
84040.124777,516.849682,1071.984525,-9820.143950
84040.127318,0.000000,593.420005,-9934.999435
84040.129859,1110.269686,401.994197,-10068.997501
84040.132400,803.988394,1493.121302,-9762.716208
84040.134941,957.129040,-38.285162,-10107.282662
84040.137482,363.709035,1512.263883,-9820.143950
84040.140024,1397.408398,-114.855485,-9973.284597
84040.142573,344.566454,937.986459,-9839.286531
84040.145119,650.847747,325.423874,-10241.280728
84040.147665,-555.134843,1397.408398,-9839.286531
84040.150211,210.568389,76.570323,-10011.569758
84040.152757,440.279358,535.992262,-9992.427178
84040.155304,478.564520,631.705166,-10068.997501
84040.157850,382.851616,440.279358,-10164.710405
84040.160396,267.996131,1129.412267,-9973.284597
84040.162942,440.279358,459.421939,-9820.143950
84040.165488,325.423874,708.275490,-10011.569758
84040.168034,478.564520,689.132909,-9973.284597
84040.170580,574.277424,937.986459,-9934.999435
84040.173127,440.279358,210.568389,-10011.569758
84040.175673,-248.853550,1493.121302,-9609.575562
84040.178219,631.705166,784.845813,-9877.571693
84040.180765,114.855485,497.707101,-10049.854920
84040.183311,229.710970,880.558717,-9858.429112
84040.185857,19.142581,1225.125171,-9877.571693
84040.188403,19.142581,746.560651,-9915.856854
84040.190949,880.558717,478.564520,-9781.858789
84040.193496,918.843878,1167.697429,-9801.001370
84040.196042,746.560651,612.562586,-10011.569758
84040.198588,516.849682,1244.267752,-9762.716208
84040.201134,937.986459,861.416136,-9858.429112
84040.203680,823.130974,38.285162,-9954.142016
84040.206226,497.707101,1148.554848,-9877.571693
84040.208772,803.988394,497.707101,-9915.856854
84040.211319,861.416136,344.566454,-9973.284597
84040.213865,459.421939,1263.410333,-9820.143950
84040.216411,574.277424,344.566454,-9954.142016
84040.218957,937.986459,823.130974,-9781.858789
84040.221503,191.425808,1244.267752,-9992.427178
84040.224049,803.988394,0.000000,-9896.714274
84040.226595,842.273555,1129.412267,-9705.288466
84040.229141,880.558717,593.420005,-9915.856854
84040.231688,899.701298,172.283227,-9915.856854
84040.234234,880.558717,1588.834206,-9743.573627
84040.236780,823.130974,-191.425808,-10049.854920
84040.239326,-440.279358,1320.838075,-9858.429112
84040.241872,172.283227,631.705166,-10107.282662
84040.244423,153.140646,899.701298,-9762.716208
84040.246973,267.996131,229.710970,-9858.429112
84040.249524,344.566454,842.273555,-10049.854920
84040.252075,574.277424,746.560651,-9781.858789
84040.254625,57.427742,765.703232,-9992.427178
84040.257176,401.994197,727.418070,-9934.999435
84040.259727,689.132909,1186.840010,-9762.716208
84040.262277,287.138712,363.709035,-10202.995566
84040.264828,535.992262,937.986459,-9820.143950
84040.267379,363.709035,1225.125171,-9801.001370
84040.269929,191.425808,-382.851616,-10413.563955
84040.272480,0.000000,1397.408398,-9667.003304
84040.275030,918.843878,344.566454,-10222.138147
84040.277581,-344.566454,976.271621,-10126.425243
84040.280132,-287.138712,1148.554848,-9686.145885
84040.282682,803.988394,574.277424,-9915.856854
84040.285233,899.701298,689.132909,-9934.999435
84040.287784,765.703232,555.134843,-9839.286531
84040.290334,957.129040,842.273555,-9858.429112
84040.292885,727.418070,114.855485,-10068.997501
84040.295436,210.568389,1148.554848,-9686.145885
84040.297986,976.271621,669.990328,-10030.712339
84040.300537,1129.412267,172.283227,-9820.143950
84040.303088,229.710970,1454.836141,-9839.286531
84040.305638,631.705166,-38.285162,-10107.282662
84040.308189,650.847747,1033.699363,-9686.145885
84040.310739,669.990328,976.271621,-9839.286531
84040.313290,57.427742,555.134843,-9973.284597
84040.315841,1129.412267,421.136778,-9724.431046
84040.318391,516.849682,1493.121302,-9667.003304
84040.320942,1225.125171,325.423874,-10183.852986
84040.323493,669.990328,1205.982590,-9781.858789
84040.326043,1091.127106,306.281293,-9934.999435
84040.328594,574.277424,631.705166,-9992.427178
84040.331145,478.564520,803.988394,-10068.997501
84040.333695,-478.564520,1397.408398,-9839.286531
84040.336246,248.853550,-57.427742,-9973.284597
84040.338796,593.420005,650.847747,-9858.429112
84040.341347,421.136778,899.701298,-10011.569758
84040.343898,325.423874,516.849682,-10145.567824
84040.346452,459.421939,708.275490,-9973.284597
84040.349006,593.420005,689.132909,-9820.143950
84040.351560,-38.285162,516.849682,-10088.140082
84040.354115,689.132909,574.277424,-10068.997501
84040.356669,803.988394,1473.978722,-9839.286531
84040.359223,19.142581,19.142581,-10260.423309
84040.361777,574.277424,535.992262,-9820.143950
84040.364331,593.420005,1359.123237,-9743.573627
84040.366886,574.277424,-229.710970,-10394.421374
84040.369440,-574.277424,1493.121302,-9801.001370
84040.371994,516.849682,382.851616,-10011.569758
84040.374548,-133.998066,823.130974,-10145.567824
84040.377102,957.129040,842.273555,-9896.714274
84040.379657,1014.556782,957.129040,-9820.143950
84040.382211,535.992262,708.275490,-10068.997501
84040.384765,574.277424,784.845813,-9858.429112
84040.387319,976.271621,516.849682,-9877.571693
84040.389874,861.416136,382.851616,-10011.569758
84040.392428,401.994197,1473.978722,-9647.860723
84040.394982,765.703232,593.420005,-9954.142016
84040.397536,612.562586,363.709035,-9992.427178
84040.400090,401.994197,1493.121302,-9686.145885
84040.402645,784.845813,459.421939,-10068.997501
84040.405199,153.140646,765.703232,-9781.858789
84040.407753,746.560651,1014.556782,-9609.575562
84040.410307,803.988394,976.271621,-9858.429112
84040.412861,1282.552914,229.710970,-9954.142016
84040.415416,153.140646,1799.402595,-9628.718142
84040.417970,1244.267752,-57.427742,-10011.569758
84040.420524,861.416136,957.129040,-9667.003304
84040.423078,306.281293,1071.984525,-9973.284597
84040.425632,-440.279358,1091.127106,-9839.286531
84040.428187,497.707101,267.996131,-9877.571693
84040.430741,76.570323,1052.841944,-9743.573627
84040.433295,459.421939,535.992262,-9954.142016
84040.435849,593.420005,746.560651,-10088.140082
84040.438403,459.421939,976.271621,-9973.284597
84040.440958,172.283227,248.853550,-9954.142016
84040.443512,669.990328,957.129040,-9858.429112
84040.446066,593.420005,861.416136,-10030.712339
84040.448604,478.564520,516.849682,-10049.854920
84040.451143,287.138712,669.990328,-9992.427178
84040.453681,516.849682,1014.556782,-9762.716208
84040.456219,191.425808,497.707101,-10107.282662
84040.458758,765.703232,555.134843,-9992.427178
84040.461296,-210.568389,1435.693560,-9781.858789
84040.463834,38.285162,-19.142581,-10394.421374
84040.466373,267.996131,1052.841944,-9877.571693
84040.468911,1186.840010,842.273555,-9628.718142
84040.471450,765.703232,363.709035,-10145.567824
84040.473988,823.130974,976.271621,-9954.142016
84040.476526,708.275490,650.847747,-9781.858789
84040.479065,478.564520,267.996131,-10049.854920
84040.481603,689.132909,880.558717,-9877.571693
84040.484141,765.703232,1129.412267,-9686.145885
84040.486680,535.992262,344.566454,-10145.567824
84040.489218,267.996131,1110.269686,-9781.858789
84040.491756,689.132909,1052.841944,-9781.858789
84040.494295,363.709035,325.423874,-10183.852986
84040.496833,248.853550,1244.267752,-9667.003304
84040.499371,1110.269686,478.564520,-9781.858789
84040.501910,363.709035,880.558717,-10107.282662
84040.504448,976.271621,842.273555,-9801.001370
84040.506986,1129.412267,727.418070,-9820.143950
84040.509525,918.843878,784.845813,-9858.429112
84040.512063,784.845813,650.847747,-9724.431046
84040.514601,382.851616,1263.410333,-9954.142016
84040.517140,-325.423874,650.847747,-10030.712339
84040.519678,57.427742,784.845813,-9686.145885
84040.522216,765.703232,497.707101,-10011.569758
84040.524755,248.853550,535.992262,-10049.854920
84040.527293,363.709035,1454.836141,-9820.143950
84040.529831,574.277424,478.564520,-10030.712339
84040.532370,382.851616,344.566454,-9877.571693
84040.534908,593.420005,1550.549045,-9724.431046
84040.537446,344.566454,497.707101,-10126.425243
84040.539985,784.845813,306.281293,-9820.143950
84040.542523,-210.568389,2009.970984,-9609.575562
84040.545061,631.705166,153.140646,-10107.282662
84040.547600,421.136778,669.990328,-9686.145885
84040.550144,497.707101,1091.127106,-9686.145885
84040.552688,-401.994197,593.420005,-10164.710405
84040.555232,172.283227,995.414202,-9839.286531
84040.557777,937.986459,708.275490,-9743.573627
84040.560321,593.420005,727.418070,-9954.142016
84040.562865,1148.554848,-19.142581,-10241.280728
84040.565409,535.992262,1397.408398,-9705.288466
84040.567953,478.564520,382.851616,-9973.284597
84040.570498,727.418070,689.132909,-9934.999435
84040.573042,1148.554848,823.130974,-9858.429112
84040.575586,516.849682,325.423874,-10164.710405
84040.578130,555.134843,593.420005,-9973.284597
84040.580674,746.560651,1205.982590,-9781.858789
84040.583218,210.568389,344.566454,-10145.567824
84040.585763,459.421939,784.845813,-9896.714274
84040.588307,880.558717,1129.412267,-9781.858789
84040.590851,555.134843,363.709035,-10164.710405
84040.593395,842.273555,803.988394,-9992.427178
84040.595939,325.423874,1531.406464,-9686.145885
84040.598484,1301.695494,-593.420005,-10222.138147
84040.601028,421.136778,1550.549045,-9724.431046
84040.603572,861.416136,-76.570323,-10107.282662
84040.606116,-535.992262,937.986459,-10011.569758
84040.608660,19.142581,899.701298,-10030.712339
84040.611205,133.998066,976.271621,-9781.858789
84040.613749,287.138712,574.277424,-9973.284597
84040.616293,382.851616,899.701298,-10030.712339
84040.618837,325.423874,1148.554848,-9915.856854
84040.621381,229.710970,57.427742,-10049.854920
84040.623926,344.566454,1225.125171,-9552.147819
84040.626470,784.845813,842.273555,-9992.427178
84040.629014,535.992262,-38.285162,-9820.143950
84040.631558,-153.140646,1875.972918,-9667.003304
84040.634102,650.847747,76.570323,-10202.995566
84040.636647,382.851616,555.134843,-9839.286531
84040.639191,555.134843,1052.841944,-9705.288466
84040.641735,-363.709035,784.845813,-10145.567824
84040.644279,248.853550,306.281293,-9954.142016
84040.646823,229.710970,1378.265818,-9647.860723
84040.649367,918.843878,555.134843,-10011.569758
84040.651916,1110.269686,-76.570323,-10279.565890
84040.654465,708.275490,1301.695494,-9724.431046
84040.657015,459.421939,191.425808,-10011.569758
84040.659564,823.130974,765.703232,-10049.854920
84040.662113,803.988394,1301.695494,-9839.286531
84040.664662,344.566454,478.564520,-9973.284597
84040.667211,937.986459,669.990328,-9992.427178
84040.669760,555.134843,1186.840010,-9724.431046
84040.672309,114.855485,727.418070,-9973.284597
84040.674858,267.996131,861.416136,-9915.856854
84040.677407,995.414202,976.271621,-9762.716208
84040.679956,497.707101,516.849682,-10030.712339
84040.682505,784.845813,631.705166,-9954.142016
84040.685054,382.851616,1435.693560,-9590.432981
84040.687603,1091.127106,-478.564520,-10164.710405
84040.690152,669.990328,1473.978722,-9877.571693
84040.692701,880.558717,-19.142581,-10049.854920
84040.695250,-459.421939,937.986459,-9915.856854
84040.697799,95.712904,631.705166,-9801.001370
84040.700348,210.568389,957.129040,-9724.431046
84040.702897,287.138712,401.994197,-10068.997501
84040.705446,287.138712,1014.556782,-9858.429112
84040.707995,382.851616,918.843878,-9762.716208
84040.710544,133.998066,363.709035,-9973.284597
84040.713093,172.283227,1071.984525,-9724.431046
84040.715642,861.416136,842.273555,-9801.001370
84040.718191,421.136778,363.709035,-10107.282662
84040.720740,-133.998066,1837.687757,-9743.573627
84040.723289,669.990328,382.851616,-9973.284597
84040.725838,248.853550,612.562586,-9667.003304
84040.728387,459.421939,976.271621,-9781.858789
84040.730936,-19.142581,1225.125171,-9992.427178
84040.733485,57.427742,459.421939,-10011.569758
84040.736034,191.425808,1110.269686,-9647.860723
84040.738583,976.271621,689.132909,-9915.856854
84040.741132,899.701298,325.423874,-10088.140082
84040.743681,440.279358,1473.978722,-9781.858789
84040.746230,631.705166,574.277424,-9877.571693
84040.748779,1129.412267,593.420005,-9954.142016
84040.751328,363.709035,1416.550979,-9820.143950
84040.753881,382.851616,248.853550,-9858.429112
84040.756434,1014.556782,650.847747,-9992.427178
84040.758988,248.853550,1071.984525,-9839.286531
84040.761541,287.138712,861.416136,-9954.142016
84040.764095,727.418070,516.849682,-9915.856854
84040.766648,1167.697429,727.418070,-9647.860723
84040.769201,267.996131,1033.699363,-9820.143950
84040.771755,1301.695494,401.994197,-10145.567824
84040.774308,153.140646,1741.974853,-9571.290400
84040.776861,1110.269686,-325.423874,-9934.999435
84040.779415,918.843878,1263.410333,-9954.142016
84040.781968,727.418070,593.420005,-10088.140082
84040.784521,-401.994197,1052.841944,-10030.712339
84040.787075,516.849682,593.420005,-10183.852986
84040.789628,95.712904,957.129040,-9705.288466
84040.792181,191.425808,401.994197,-10068.997501
84040.794735,344.566454,861.416136,-10145.567824
84040.797288,516.849682,976.271621,-9973.284597
84040.799841,38.285162,172.283227,-10088.140082
84040.802395,267.996131,1129.412267,-9858.429112
84040.804948,899.701298,363.709035,-9820.143950
84040.807501,287.138712,267.996131,-10011.569758
84040.810055,-38.285162,1071.984525,-10049.854920
84040.812608,478.564520,497.707101,-9954.142016
