#time,accel_x,accel_y,accel_z
6110.087107,612.562586,574.277424,-9801.001370
6110.089652,382.851616,631.705166,-9820.143950
6110.092198,497.707101,899.701298,-9801.001370
6110.094744,497.707101,669.990328,-9801.001370
6110.097289,478.564520,957.129040,-9667.003304
6110.099835,1244.267752,76.570323,-9686.145885
6110.102381,421.136778,1205.982590,-9686.145885
6110.104927,1588.834206,937.986459,-9705.288466
6110.107472,2105.683888,1627.119368,-9686.145885
6110.110018,3407.379382,1607.976787,-9494.720077
6110.112564,1378.265818,1359.123237,-9590.432981
6110.115109,995.414202,3981.656806,-9284.151688
6110.117655,-1205.982590,1205.982590,-9781.858789
6110.120201,2048.256146,6661.618118,-9667.003304
6110.122746,1339.980656,1091.127106,-9341.579430
6110.125292,1263.410333,-4287.938099,-9245.866526
6110.127838,-765.703232,-1531.406464,-9475.577496
6110.130384,325.423874,-2813.959378,-10796.415571
6110.132929,-1741.974853,976.271621,-11179.267187
6110.135475,-3311.666478,1722.832272,-9494.720077
6110.138021,3120.240670,5015.356170,-7848.458128
6110.140566,3598.805190,-114.855485,-9992.427178
6110.143112,-3675.375514,-669.990328,-10930.413637
6110.145658,172.283227,-287.138712,-9820.143950
6110.148203,-1263.410333,-3196.810994,-10413.563955
6110.150749,133.998066,1761.117434,-9265.009107
6110.153295,1665.404530,-689.132909,-9628.718142
6110.155841,-363.709035,1627.119368,-9915.856854
6110.158386,-1339.980656,1512.263883,-9858.429112
6110.160932,401.994197,-784.845813,-10126.425243
6110.163478,440.279358,497.707101,-9456.434915
6110.166023,708.275490,38.285162,-9571.290400
6110.168569,133.998066,478.564520,-10222.138147
6110.171115,-401.994197,727.418070,-9820.143950
6110.173661,478.564520,-459.421939,-9743.573627
6110.176206,-669.990328,-19.142581,-9686.145885
6110.178752,-727.418070,76.570323,-9915.856854
6110.181298,-440.279358,995.414202,-9934.999435
6110.183843,-516.849682,746.560651,-9111.868461
6110.186379,861.416136,-2928.814862,-9781.858789
6110.188929,976.271621,1741.974853,-10030.712339
6110.191479,172.283227,-267.996131,-9801.001370
6110.194028,1052.841944,-153.140646,-9781.858789
6110.196578,-3637.090352,555.134843,-9915.856854
6110.199128,2947.957443,2584.248408,-8997.012976
6110.201678,-1186.840010,-1914.258080,-10126.425243
6110.204227,1531.406464,3273.381317,-8997.012976
6110.206777,1493.121302,-4441.078746,-10202.995566
6110.209327,-3924.229064,-172.283227,-10145.567824
6110.211877,2431.107762,5934.200048,-8001.598774
6110.214427,1856.830338,-4747.360038,-11542.976222
6110.216976,-1875.972918,8518.448456,-9341.579430
6110.219526,5723.631659,-459.421939,-9111.868461
6110.222076,-3273.381317,-2029.113565,-10049.854920
6110.224626,-267.996131,5513.063270,-8346.165229
6110.227176,6393.621987,-2373.680019,-11064.411702
6110.229725,727.418070,1397.408398,-9743.573627
6110.232275,459.421939,4823.930362,-8882.157491
6110.234825,1225.125171,-2048.256146,-10126.425243
6110.237375,-1761.117434,957.129040,-10049.854920
6110.239925,3043.670347,4670.789715,-9513.862658
6110.242474,3522.234867,-172.283227,-10298.708470
6110.245024,-2507.678085,-191.425808,-9820.143950
6110.247574,153.140646,1091.127106,-8729.016845
6110.250124,3866.801322,-95.712904,-10279.565890
6110.252674,727.418070,2277.967115,-10126.425243
6110.255223,-784.845813,2775.674216,-9322.436850
6110.257773,976.271621,363.709035,-9245.866526
6110.260323,325.423874,727.418070,-9552.147819
6110.262873,784.845813,880.558717,-10088.140082
6110.265422,1397.408398,937.986459,-10222.138147
6110.267972,-191.425808,861.416136,-9647.860723
6110.270522,114.855485,401.994197,-9303.294269
6110.273072,2316.252277,1339.980656,-9399.007173
6110.275622,1378.265818,133.998066,-10126.425243
6110.278171,2354.537438,1837.687757,-9781.858789
6110.280721,1301.695494,1703.689691,-9341.579430
6110.283271,-153.140646,593.420005,-9705.288466
6110.285821,746.560651,5436.492947,-9131.011042
6110.288374,2143.969050,5761.916821,-9379.864592
6110.290928,2756.531635,-708.275490,-9973.284597
6110.293481,-861.416136,459.421939,-9226.723946
6110.296035,-287.138712,-3637.090352,-9954.142016
6110.298589,2297.109696,1512.263883,-9494.720077
6110.301142,497.707101,-555.134843,-9915.856854
6110.303696,-631.705166,-38.285162,-10413.563955
6110.306249,3847.658741,9341.579430,-7810.172966
6110.308803,-478.564520,-4402.793584,-10336.993632
6110.311356,-4938.785846,2986.242605,-10068.997501
6110.313910,1780.260014,7676.174901,-7599.604578
6110.316464,3254.238736,-8422.735552,-10892.128475
6110.319017,-3062.812928,1971.685822,-9801.001370
6110.321571,133.998066,-765.703232,-9322.436850
6110.324124,631.705166,-95.712904,-9801.001370
6110.326678,-3005.385186,2584.248408,-9705.288466
6110.329231,4326.223261,3215.953574,-9571.290400
6110.331785,823.130974,57.427742,-9858.429112
6110.334339,-3158.525832,-4287.938099,-10547.562021
6110.336892,210.568389,1091.127106,-9226.723946
6110.339446,1225.125171,2316.252277,-9781.858789
6110.341999,-1550.549045,-1378.265818,-10585.847182
6110.344553,363.709035,2775.674216,-8843.872330
6110.347106,248.853550,-1359.123237,-9915.856854
6110.349660,344.566454,574.277424,-10547.562021
6110.352214,765.703232,1627.119368,-9494.720077
6110.354767,-153.140646,-306.281293,-9858.429112
6110.357321,-976.271621,459.421939,-9896.714274
6110.359874,727.418070,-38.285162,-9494.720077
6110.362428,803.988394,727.418070,-10222.138147
6110.364981,19.142581,593.420005,-10088.140082
6110.367535,-440.279358,-191.425808,-9475.577496
6110.370089,-95.712904,-267.996131,-9705.288466
6110.372642,478.564520,1454.836141,-9724.431046
6110.375196,-1856.830338,-2182.254211,-10451.849117
6110.377749,-2660.818731,-267.996131,-9743.573627
6110.380303,1531.406464,-1378.265818,-9265.009107
6110.382856,1512.263883,-765.703232,-10011.569758
6110.385410,-650.847747,1397.408398,-9781.858789
6110.387964,1531.406464,3924.229064,-8556.733618
6110.390520,-3235.096155,-4460.221326,-11140.982026
6110.393077,631.705166,3847.658741,-8901.300072
6110.395633,976.271621,-2967.100024,-10011.569758
6110.398190,1531.406464,4230.510357,-9245.866526
6110.400746,-382.851616,-4307.080680,-10451.849117
6110.403303,-3943.371645,631.705166,-10049.854920
6110.405859,2220.539373,4058.227130,-8384.450390
6110.408416,1205.982590,-6719.045861,-11657.831707
6110.410972,-2507.678085,2947.957443,-10241.280728
6110.413529,2316.252277,8020.741355,-7733.602643
6110.416085,-497.707101,-5436.492947,-10911.271056
6110.418642,-1512.263883,6699.903280,-8652.446522
6110.421198,4957.928427,-1493.121302,-10566.704602
6110.423755,344.566454,-38.285162,-10049.854920
6110.426312,1339.980656,4594.219392,-8901.300072
6110.428868,382.851616,-2718.246474,-10394.421374
6110.431425,-3101.098090,1837.687757,-9877.571693
6110.433981,4862.215523,5761.916821,-9590.432981
6110.436538,4747.360038,-382.851616,-10260.423309
6110.439094,-1875.972918,689.132909,-9858.429112
6110.441651,-593.420005,1684.547110,-8843.872330
6110.444207,2201.396792,-1416.550979,-10356.136213
6110.446764,612.562586,2756.531635,-9801.001370
6110.449320,2392.822600,2450.250342,-9743.573627
6110.451877,650.847747,401.994197,-9762.716208
6110.454433,-937.986459,229.710970,-9092.725880
6110.456990,1186.840010,1627.119368,-9418.149754
6110.459547,1914.258080,382.851616,-10892.128475
6110.462103,153.140646,784.845813,-9609.575562
6110.464660,1435.693560,1110.269686,-8748.159426
6110.467216,2105.683888,267.996131,-9647.860723
6110.469773,1914.258080,2545.963246,-9781.858789
6110.472329,-133.998066,842.273555,-10260.423309
6110.474886,1856.830338,5072.783912,-9150.153622
6110.477442,3349.951640,2890.529701,-9188.438784
6110.479999,-1569.691626,-2143.969050,-10336.993632
6110.482555,2239.681954,6221.338760,-8365.307810
6110.485112,114.855485,-497.707101,-9667.003304
6110.487668,3292.523898,1416.550979,-9877.571693
6110.490225,-1627.119368,-1990.828403,-10107.282662
6110.492784,3847.658741,4977.071008,-8882.157491
6110.495344,803.988394,-2756.531635,-10451.849117
6110.497903,-3196.810994,5551.348432,-9533.005238
6110.500462,4077.369710,4766.502619,-8824.729749
6110.503021,-2622.533570,-8135.596840,-11887.542677
6110.505581,-918.843878,5742.774240,-8001.598774
6110.508140,4670.789715,2009.970984,-9092.725880
6110.510699,-1091.127106,-5876.772306,-11696.116869
6110.513259,-3101.098090,4517.649069,-8652.446522
6110.515818,3273.381317,-1435.693560,-10049.854920
6110.518377,-2392.822600,-937.986459,-9954.142016
6110.520937,1244.267752,3005.385186,-9131.011042
6110.523496,1435.693560,1091.127106,-9896.714274
6110.526055,-2392.822600,-1512.263883,-9877.571693
6110.528614,-823.130974,-1627.119368,-9762.716208
6110.531174,2105.683888,1761.117434,-9533.005238
6110.533733,-708.275490,-229.710970,-9915.856854
6110.536292,-1129.412267,-1033.699363,-9839.286531
6110.538852,-1052.841944,1244.267752,-9705.288466
6110.541411,1473.978722,574.277424,-9877.571693
6110.543970,784.845813,401.994197,-9839.286531
6110.546530,-478.564520,899.701298,-9399.007173
6110.549089,210.568389,267.996131,-9552.147819
6110.551648,497.707101,650.847747,-10164.710405
6110.554207,689.132909,899.701298,-9781.858789
6110.556767,976.271621,-344.566454,-9992.427178
6110.559326,-2373.680019,803.988394,-9628.718142
6110.561885,-669.990328,-1033.699363,-9628.718142
6110.564445,-1263.410333,-1339.980656,-10298.708470
6110.567004,-76.570323,363.709035,-10298.708470
6110.569563,2029.113565,669.990328,-9322.436850
6110.572123,-1014.556782,-1818.545176,-9513.862658
6110.574682,76.570323,-1301.695494,-9762.716208
6110.577241,-2335.394858,497.707101,-10604.989763
6110.579801,1780.260014,2871.387120,-9360.722011
6110.582360,0.000000,-497.707101,-9399.007173
6110.584919,2124.826469,3522.234867,-8652.446522
6110.587478,-3196.810994,-5187.639397,-10681.560086
6110.590038,-650.847747,4134.797453,-9456.434915
6110.592597,3503.092286,-2967.100024,-10260.423309
6110.595142,-1531.406464,-2928.814862,-11045.269122
6110.597686,4938.785846,11734.402030,-6776.473603
6110.600231,1990.828403,-5283.352301,-11140.982026
6110.602776,-4019.941968,6948.756830,-9437.292334
6110.605320,-191.425808,5838.487144,-8633.303941
6110.607865,6585.047795,-2450.250342,-10681.560086
6110.610410,-1818.545176,421.136778,-9820.143950
6110.612954,3024.527766,1033.699363,-9111.868461
6110.615499,-1225.125171,-1875.972918,-10547.562021
6110.618044,-2258.824534,4479.363907,-9399.007173
6110.620588,5321.637462,1473.978722,-9322.436850
6110.623133,842.273555,2373.680019,-10107.282662
6110.625677,2067.398726,3101.098090,-8863.014910
6110.628222,440.279358,-1148.554848,-9743.573627
6110.630767,-669.990328,363.709035,-10298.708470
6110.633311,957.129040,1263.410333,-9915.856854
6110.635856,3503.092286,1110.269686,-9647.860723
6110.638401,76.570323,631.705166,-9667.003304
6110.640945,-555.134843,1684.547110,-9379.864592
6110.643490,1244.267752,-19.142581,-9934.999435
6110.646035,1110.269686,1741.974853,-9781.858789
6110.648579,1167.697429,555.134843,-10260.423309
6110.651124,1741.974853,957.129040,-9284.151688
6110.653669,1378.265818,1588.834206,-9341.579430
6110.656213,1244.267752,631.705166,-9934.999435
6110.658758,1531.406464,3407.379382,-9877.571693
6110.661303,3177.668413,5359.922624,-9284.151688
6110.663847,-325.423874,-2986.242605,-10279.565890
6110.666392,-57.427742,5072.783912,-8461.020714
6110.668937,172.283227,-306.281293,-9628.718142
6110.671481,3081.955509,-842.273555,-10643.274925
6110.674026,-1627.119368,440.279358,-9973.284597
6110.676570,2124.826469,5015.356170,-8882.157491
6110.679115,1607.976787,-2565.105827,-9839.286531
6110.681660,-3369.094221,3905.086483,-9705.288466
6110.684204,3751.945837,6470.192310,-8843.872330
6110.686749,-1339.980656,-8461.020714,-11868.400096
6110.689294,-2373.680019,5340.780043,-8269.594906
6110.691838,4823.930362,-3541.377448,-9628.718142
6110.694383,-2794.816797,-2277.967115,-11045.269122
6110.696932,-3101.098090,2699.103893,-9035.298138
6110.699481,3464.807125,-1493.121302,-10164.710405
6110.702030,-1225.125171,-1225.125171,-9934.999435
6110.704579,516.849682,4019.941968,-8767.302006
6110.707128,2067.398726,535.992262,-9820.143950
6110.709677,-3445.664544,-2660.818731,-10375.278794
6110.712226,-899.701298,-38.285162,-9571.290400
6110.714775,2928.814862,918.843878,-9571.290400
6110.717324,325.423874,-497.707101,-10222.138147
6110.719873,-3101.098090,1129.412267,-9322.436850
6110.722422,-325.423874,287.138712,-9686.145885
6110.724971,1780.260014,-555.134843,-10164.710405
6110.727520,-267.996131,1205.982590,-9954.142016
6110.730069,669.990328,689.132909,-9801.001370
6110.732618,631.705166,-38.285162,-9207.581365
6110.735167,-191.425808,918.843878,-9322.436850
6110.737716,-784.845813,57.427742,-10585.847182
6110.740265,325.423874,899.701298,-9839.286531
6110.742814,-1167.697429,-1148.554848,-9667.003304
6110.745363,-2239.681954,-593.420005,-9705.288466
6110.747912,2392.822600,727.418070,-9284.151688
6110.750461,-918.843878,-4307.080680,-11140.982026
6110.753010,-2143.969050,1569.691626,-9226.723946
6110.755559,2794.816797,3349.951640,-8518.448456
6110.758109,-2373.680019,-4823.930362,-11236.694930
6110.760658,918.843878,3732.803256,-9016.155557
6110.763207,-593.420005,-2431.107762,-10375.278794
6110.765756,1320.838075,3445.664544,-9437.292334
6110.768305,650.847747,-2507.678085,-9686.145885
6110.770854,-3962.514226,-803.988394,-10241.280728
6110.773403,3177.668413,3866.801322,-8461.020714
6110.775952,1397.408398,-7255.038123,-11810.972354
6110.778501,-1282.552914,8843.872330,-9111.868461
6110.781050,5608.776174,1914.258080,-9073.583299
6110.783599,-2890.529701,-267.996131,-10222.138147
6110.786148,-344.566454,6297.909083,-8805.587168
6110.788697,4900.500685,-574.277424,-10145.567824
6110.791246,95.712904,-1378.265818,-10317.851051
6110.793795,708.275490,3254.238736,-8958.727814
6110.796344,267.996131,-3024.527766,-10222.138147
6110.798897,-2124.826469,3522.234867,-9686.145885
6110.801450,4345.365842,2833.101958,-9188.438784
6110.804003,3369.094221,2373.680019,-10126.425243
6110.806556,153.140646,2852.244539,-9571.290400
6110.809109,153.140646,-1052.841944,-9284.151688
6110.811662,153.140646,38.285162,-10030.712339
6110.814215,1512.263883,746.560651,-10068.997501
6110.816768,1531.406464,-401.994197,-10202.995566
6110.819321,784.845813,3139.383251,-8977.870395
6110.821874,325.423874,-248.853550,-9647.860723
6110.824427,746.560651,555.134843,-9341.579430
6110.826980,1416.550979,1722.832272,-9915.856854
6110.829533,2029.113565,-248.853550,-10758.130410
6110.832086,-535.992262,1454.836141,-9169.296203
6110.834639,2928.814862,3924.229064,-8729.016845
6110.837192,3828.516160,2373.680019,-9533.005238
6110.839745,-1990.828403,1665.404530,-10451.849117
6110.842298,2450.250342,6068.198114,-8633.303941
6110.844851,1512.263883,-2507.678085,-10451.849117
6110.847404,-2373.680019,-2029.113565,-9992.427178
6110.849957,4019.941968,3751.945837,-8461.020714
6110.852510,2163.111630,-2756.531635,-10604.989763
6110.855063,-2201.396792,5091.926493,-9533.005238
6110.857616,3828.516160,3445.664544,-8748.159426
6110.860169,153.140646,-5608.776174,-10968.698798
6110.862722,-4709.074877,4479.363907,-9571.290400
6110.865275,4517.649069,1722.832272,-8939.585234
6110.867828,-440.279358,-7695.317482,-12040.683323
6110.870381,-1052.841944,6680.760699,-8173.882002
6110.872934,-172.283227,-5436.492947,-10624.132344
6110.875487,-1301.695494,2469.392923,-9533.005238
6110.878040,440.279358,153.140646,-9954.142016
6110.880593,1780.260014,-2163.111630,-10413.563955
6110.883146,-363.709035,306.281293,-10183.852986
6110.885699,-3311.666478,880.558717,-9647.860723
6110.888252,1110.269686,76.570323,-9188.438784
6110.890805,-1263.410333,-1607.976787,-10451.849117
6110.893358,1588.834206,669.990328,-10011.569758
6110.895911,1033.699363,-478.564520,-10030.712339
6110.898464,-2048.256146,1875.972918,-9111.868461
6110.901003,-937.986459,-172.283227,-9360.722011
6110.903543,727.418070,-1033.699363,-10088.140082
6110.906082,363.709035,784.845813,-9801.001370
6110.908621,267.996131,1244.267752,-9896.714274
6110.911161,-153.140646,-478.564520,-9609.575562
6110.913700,-516.849682,957.129040,-8767.302006
6110.916239,-267.996131,-497.707101,-10183.852986
6110.918779,-918.843878,-57.427742,-10336.993632
6110.921318,-593.420005,497.707101,-9877.571693
6110.923858,-267.996131,440.279358,-9571.290400
6110.926397,-440.279358,-1493.121302,-9418.149754
6110.928936,-153.140646,-3407.379382,-10183.852986
6110.931476,-631.705166,-2220.539373,-11523.833642
6110.934015,-19.142581,4192.225195,-8748.159426
6110.936554,2584.248408,1952.543242,-9054.440718
6110.939094,-574.277424,-1148.554848,-10068.997501
6110.941633,-1741.974853,-133.998066,-9877.571693
6110.944173,1454.836141,1493.121302,-9341.579430
6110.946712,-2775.674216,-7580.461997,-11715.259450
6110.949251,1091.127106,6565.905214,-8499.305875
6110.951791,6623.332957,-1320.838075,-9265.009107
6110.954330,-2526.820666,-1722.832272,-11332.407834
6110.956869,-1550.549045,10470.991698,-8384.450390
6110.959409,2852.244539,-1875.972918,-10164.710405
6110.961948,2411.965181,842.273555,-9781.858789
6110.964487,76.570323,1454.836141,-9150.153622
6110.967027,2775.674216,-1454.836141,-9839.286531
6110.969566,-1033.699363,4326.223261,-9494.720077
6110.972106,727.418070,-1493.121302,-10375.278794
6110.974645,-842.273555,918.843878,-9934.999435
6110.977184,2507.678085,4498.506488,-8767.302006
6110.979724,4996.213589,2392.822600,-9801.001370
6110.982263,306.281293,1722.832272,-9743.573627
6110.984802,-1167.697429,650.847747,-9226.723946
6110.987342,1091.127106,440.279358,-9896.714274
6110.989881,1148.554848,-248.853550,-10317.851051
6110.992421,1091.127106,1856.830338,-9781.858789
6110.994960,2009.970984,1531.406464,-9360.722011
6110.997499,-516.849682,-229.710970,-9647.860723
6111.000039,765.703232,1301.695494,-9456.434915
6111.002566,612.562586,535.992262,-10183.852986
6111.005094,3235.096155,3139.383251,-9494.720077
6111.007622,3847.658741,1818.545176,-9513.862658
6111.010150,306.281293,2928.814862,-9360.722011
6111.012678,-1129.412267,631.705166,-9801.001370
6111.015206,2143.969050,3656.232933,-9647.860723
6111.017733,0.000000,1895.115499,-9839.286531
6111.020261,3062.812928,-210.568389,-9399.007173
6111.022789,-1416.550979,-784.845813,-9858.429112
6111.025317,3656.232933,2641.676150,-9341.579430
6111.027845,133.998066,-4326.223261,-10987.841379
6111.030373,-2833.101958,5111.069074,-9437.292334
6111.032900,4766.502619,4498.506488,-8422.735552
6111.035428,-2220.539373,-7542.176835,-11715.259450
6111.037956,-708.275490,6948.756830,-7867.600709
6111.040484,3541.377448,-5915.057467,-10585.847182
6111.043012,-3215.953574,19.142581,-10585.847182
6111.045539,-2009.970984,-363.709035,-9360.722011
6111.048067,3101.098090,-516.849682,-9303.294269
6111.050595,-3349.951640,2105.683888,-9743.573627
6111.053123,1225.125171,4766.502619,-9092.725880
6111.055651,2584.248408,-440.279358,-9992.427178
6111.058179,-5398.207786,-1933.400661,-10241.280728
6111.060706,803.988394,1282.552914,-8595.018779
6111.063234,1244.267752,-3598.805190,-10700.702667
6111.065762,-306.281293,1110.269686,-10356.136213
6111.068290,1397.408398,918.843878,-9647.860723
6111.070818,-1186.840010,287.138712,-9724.431046
6111.073346,-1397.408398,38.285162,-9360.722011
6111.075873,727.418070,19.142581,-9877.571693
6111.078401,478.564520,1110.269686,-10279.565890
6111.080929,478.564520,803.988394,-9934.999435
6111.083457,-248.853550,19.142581,-9533.005238
6111.085985,-823.130974,172.283227,-9131.011042
6111.088512,-401.994197,-708.275490,-10088.140082
6111.091040,803.988394,2431.107762,-10088.140082
6111.093568,-1454.836141,-2909.672282,-10624.132344
6111.096096,-3139.383251,-1780.260014,-9667.003304
6111.098624,3062.812928,2488.535504,-8307.880067
6111.101152,784.845813,-3866.801322,-11026.126541
6111.103686,574.277424,2354.537438,-10356.136213
6111.106221,-1875.972918,1301.695494,-9647.860723
6111.108756,2756.531635,3254.238736,-8805.587168
6111.111291,-3675.375514,-3981.656806,-10068.997501
6111.113826,-306.281293,4364.508422,-8958.727814
6111.116361,4134.797453,-4287.938099,-10470.991698
6111.118896,-1761.117434,-4058.227130,-11313.265253
6111.121431,3885.943902,11083.554283,-7216.752962
6111.123966,5130.211654,1818.545176,-9016.155557
6111.126500,-2507.678085,1627.119368,-10126.425243
6111.129035,803.988394,5895.914886,-8461.020714
6111.131570,6106.483275,-1933.400661,-10585.847182
6111.134105,-1952.543242,-1914.258080,-10183.852986
6111.136640,669.990328,516.849682,-9418.149754
6111.139175,-19.142581,-1780.260014,-10298.708470
6111.141710,210.568389,5819.344563,-9131.011042
6111.144245,2737.389054,823.130974,-9724.431046
6111.146780,2297.109696,2335.394858,-9628.718142
6111.149314,803.988394,3235.096155,-9475.577496
6111.151849,2105.683888,-880.558717,-9858.429112
6111.154384,-1282.552914,1378.265818,-9379.864592
6111.156919,650.847747,995.414202,-10126.425243
6111.159454,1493.121302,746.560651,-10049.854920
6111.161989,1607.976787,612.562586,-9245.866526
6111.164524,-2009.970984,95.712904,-9762.716208
6111.167059,535.992262,1033.699363,-9762.716208
6111.169594,3120.240670,1818.545176,-9992.427178
6111.172129,2239.681954,1052.841944,-10049.854920
6111.174663,2603.390989,3101.098090,-8977.870395
6111.177198,-1741.974853,937.986459,-9437.292334
6111.179733,2526.820666,4287.938099,-9226.723946
6111.182268,1684.547110,880.558717,-10719.845248
6111.184803,-995.414202,-2450.250342,-10470.991698
6111.187338,1856.830338,2679.961312,-8556.733618
6111.189873,1933.400661,-2143.969050,-9418.149754
6111.192408,-1703.689691,2871.387120,-9954.142016
6111.194943,3445.664544,4766.502619,-9111.868461
6111.197477,-497.707101,-5283.352301,-11791.829773
6111.200012,-727.418070,8958.727814,-7848.458128
6111.202547,4077.369710,-3675.375514,-9379.864592
6111.205087,-4249.652938,-593.420005,-12040.683323
6111.207628,-1435.693560,6374.479406,-8939.585234
6111.210169,-95.712904,-5264.209720,-10853.843314
6111.212711,-727.418070,823.130974,-9265.009107
6111.215252,76.570323,248.853550,-9552.147819
6111.217794,1320.838075,-2871.387120,-10509.276859
6111.220335,-555.134843,5302.494882,-9399.007173
6111.222876,1875.972918,1971.685822,-9418.149754
6111.225418,-3235.096155,-2967.100024,-10279.565890
6111.227959,-1875.972918,2124.826469,-8671.589102
6111.230500,2679.961312,-842.273555,-9858.429112
6111.233042,957.129040,-459.421939,-10815.558152
6111.235583,-1588.834206,2086.541307,-9399.007173
6111.238124,-344.566454,248.853550,-9379.864592
6111.240666,612.562586,-38.285162,-9456.434915
6111.243207,0.000000,631.705166,-9896.714274
6111.245748,765.703232,401.994197,-10241.280728
6111.248290,-803.988394,727.418070,-10068.997501
6111.250831,-669.990328,-363.709035,-9494.720077
6111.253372,899.701298,114.855485,-9245.866526
6111.255914,-2488.535504,-2143.969050,-10547.562021
6111.258455,-1952.543242,535.992262,-9896.714274
6111.260996,2067.398726,-2220.539373,-9456.434915
6111.263538,-2105.683888,-2163.111630,-10317.851051
6111.266079,153.140646,2411.965181,-9111.868461
6111.268620,3005.385186,2794.816797,-9360.722011
6111.271162,-2852.244539,-1588.834206,-10930.413637
6111.273703,19.142581,4115.654872,-9169.296203
6111.276245,2756.531635,-2373.680019,-9533.005238
6111.278786,-4115.654872,-8346.165229,-11676.974288
6111.281327,765.703232,6029.912952,-8843.872330
6111.283869,6814.758765,-1148.554848,-9513.862658
6111.286415,-2392.822600,-1225.125171,-11217.552349
6111.288962,918.843878,10260.423309,-7369.893608
6111.291508,1378.265818,-2833.101958,-10432.706536
6111.294055,-555.134843,5723.631659,-9035.298138
6111.296601,5053.641331,574.277424,-9667.003304
6111.299148,-95.712904,-2220.539373,-10394.421374
6111.301694,-57.427742,57.427742,-9686.145885
6111.304241,-421.136778,-3177.668413,-10509.276859
6111.306787,555.134843,4000.799387,-9265.009107
6111.309334,2699.103893,3369.094221,-9111.868461
6111.311880,2488.535504,1186.840010,-9954.142016
6111.314427,746.560651,3349.951640,-9360.722011
6111.316973,1531.406464,-823.130974,-9934.999435
6111.319520,-708.275490,689.132909,-9475.577496
6111.322067,-38.285162,1665.404530,-9781.858789
6111.324613,1971.685822,-229.710970,-10394.421374
6111.327160,1148.554848,1397.408398,-9092.725880
6111.329706,-19.142581,344.566454,-9647.860723
6111.332253,1512.263883,1531.406464,-9743.573627
6111.334799,3101.098090,2373.680019,-9934.999435
6111.337346,2258.824534,2182.254211,-9686.145885
6111.339892,0.000000,-727.418070,-9934.999435
6111.342439,2029.113565,6814.758765,-8671.589102
6111.344985,2928.814862,2354.537438,-9781.858789
6111.347532,-1033.699363,-2603.390989,-10624.132344
6111.350078,861.416136,229.710970,-9743.573627
6111.352625,3235.096155,210.568389,-9399.007173
6111.355171,-650.847747,-2277.967115,-10853.843314
6111.357718,2354.537438,9150.153622,-8212.167163
6111.360264,229.710970,-4613.361973,-11083.554283
6111.362811,-4498.506488,4287.938099,-9609.575562
6111.365358,3943.371645,2909.672282,-8327.022648
6111.367904,-229.710970,-7599.604578,-11715.259450
6111.370451,-1263.410333,6049.055533,-8633.303941
6111.372997,-38.285162,-5455.635528,-10700.702667
6111.375544,1761.117434,-210.568389,-9513.862658
6111.378090,-2009.970984,1646.261949,-9705.288466
6111.380637,2297.109696,-2258.824534,-10356.136213
6111.383183,-38.285162,2469.392923,-9647.860723
6111.385730,95.712904,2660.818731,-9284.151688
6111.388281,-2411.965181,-2565.105827,-10107.282662
6111.390832,-1971.685822,1895.115499,-8977.870395
6111.393384,2584.248408,-3483.949706,-10451.849117
6111.395935,516.849682,1071.984525,-10260.423309
6111.398486,-267.996131,976.271621,-9743.573627
6111.401037,-133.998066,344.566454,-9131.011042
6111.403589,497.707101,784.845813,-9379.864592
6111.406140,133.998066,-133.998066,-10356.136213
6111.408691,1091.127106,1435.693560,-10145.567824
6111.411242,-459.421939,-612.562586,-9590.432981
6111.413794,38.285162,937.986459,-9111.868461
6111.416345,-2143.969050,-1971.685822,-10260.423309
6111.418896,-2431.107762,-248.853550,-10183.852986
6111.421448,1588.834206,-1741.974853,-10011.569758
6111.423999,-1301.695494,-4019.941968,-10394.421374
6111.426550,-1320.838075,2852.244539,-8824.729749
6111.429101,2469.392923,3503.092286,-9035.298138
6111.431653,-1473.978722,-2029.113565,-11179.267187
6111.434204,-1244.267752,3503.092286,-9513.862658
6111.436755,3062.812928,-1397.408398,-9399.007173
6111.439306,-2986.242605,-5206.781978,-10643.274925
6111.441858,2507.678085,6661.618118,-7867.600709
6111.444409,4651.647134,-5876.772306,-11083.554283
6111.446960,-2967.100024,3713.660675,-10528.419440
6111.449512,363.709035,10719.845248,-7657.032320
6111.452063,2297.109696,-2641.676150,-10145.567824
6111.454614,-382.851616,4977.071008,-8767.302006
6111.457165,3579.662610,2124.826469,-9647.860723
6111.459717,899.701298,-2660.818731,-10987.841379
6111.462268,-784.845813,114.855485,-9858.429112
6111.464819,880.558717,421.136778,-9628.718142
6111.467370,1646.261949,4843.072942,-8958.727814
6111.469922,1244.267752,976.271621,-9686.145885
6111.472473,1741.974853,1493.121302,-10088.140082
6111.475024,861.416136,2048.256146,-9647.860723
6111.477575,1550.549045,153.140646,-9552.147819
6111.480127,172.283227,765.703232,-9590.432981
6111.482678,-57.427742,1052.841944,-9781.858789
6111.485229,1091.127106,210.568389,-10241.280728
6111.487781,1263.410333,1607.976787,-9322.436850
6111.490336,1014.556782,401.994197,-9667.003304
6111.492892,1933.400661,1741.974853,-9399.007173
6111.495447,2545.963246,2182.254211,-9686.145885
6111.498002,-287.138712,-1052.841944,-10336.993632
6111.500558,2584.248408,6163.911018,-8729.016845
6111.503113,3503.092286,3177.668413,-9360.722011
6111.505669,-1416.550979,-3139.383251,-10643.274925
6111.508224,823.130974,3962.514226,-8575.876198
6111.510780,2067.398726,-2794.816797,-10126.425243
6111.513335,593.420005,3024.527766,-9839.286531
6111.515891,2182.254211,2277.967115,-8748.159426
6111.518446,-976.271621,-2928.814862,-11064.411702
6111.521002,-3273.381317,6814.758765,-8901.300072
6111.523557,4307.080680,-401.994197,-9092.725880
6111.526113,-1875.972918,-4613.361973,-11485.548480
6111.528668,306.281293,5915.057467,-8116.454259
6111.531224,612.562586,-6642.475538,-11064.411702
6111.533779,-3541.377448,765.703232,-9533.005238
6111.536335,1531.406464,0.000000,-9781.858789
6111.538890,76.570323,-1607.976787,-10451.849117
6111.541446,344.566454,6412.764568,-8748.159426
6111.544001,2354.537438,-612.562586,-9092.725880
6111.546557,-1761.117434,-1110.269686,-10126.425243
6111.549112,-3215.953574,-1397.408398,-9801.001370
6111.551668,1033.699363,-2392.822600,-10088.140082
6111.554223,1531.406464,1454.836141,-10068.997501
6111.556779,535.992262,880.558717,-9743.573627
6111.559334,-880.558717,-306.281293,-9379.864592
6111.561890,-459.421939,1703.689691,-8920.442653
6111.564445,1091.127106,38.285162,-10624.132344
6111.567000,114.855485,861.416136,-10604.989763
6111.569556,497.707101,1320.838075,-9131.011042
6111.572111,-1856.830338,-2411.965181,-9801.001370
6111.574667,-3445.664544,172.283227,-9686.145885
6111.577222,-153.140646,-1110.269686,-10164.710405
6111.579778,1167.697429,-1990.828403,-10949.556218
6111.582333,-899.701298,516.849682,-9245.866526
6111.584889,1244.267752,976.271621,-8901.300072
6111.587444,-2909.672282,-2737.389054,-10949.556218
6111.590000,1301.695494,6393.621987,-8901.300072
6111.592559,325.423874,-3579.662610,-10470.991698
6111.595118,-2507.678085,1473.978722,-9820.143950
6111.597677,2679.961312,478.564520,-8575.876198
6111.600235,-937.986459,-8059.026517,-11351.550414
6111.602794,1263.410333,10011.569758,-8461.020714
6111.605353,3637.090352,5551.348432,-8556.733618
6111.607912,650.847747,133.998066,-10011.569758
6111.610471,-803.988394,5685.346498,-8288.737486
6111.613030,5991.627790,-1071.984525,-9628.718142
6111.615589,-1359.123237,-1627.119368,-10662.417506
6111.618148,-1416.550979,76.570323,-10241.280728
6111.620707,4192.225195,4728.217458,-8384.450390
6111.623266,-344.566454,-784.845813,-10298.708470
6111.625825,153.140646,1454.836141,-10049.854920
6111.628384,2488.535504,3139.383251,-9265.009107
6111.630943,1741.974853,57.427742,-10509.276859
6111.633501,555.134843,1818.545176,-9513.862658
6111.636060,535.992262,153.140646,-9245.866526
6111.638619,823.130974,1282.552914,-9896.714274
6111.641178,555.134843,535.992262,-9954.142016
6111.643737,803.988394,1167.697429,-9705.288466
6111.646296,1837.687757,1416.550979,-9973.284597
6111.648855,1875.972918,1416.550979,-9552.147819
6111.651414,248.853550,2431.107762,-9399.007173
6111.653973,3828.516160,4689.932296,-8805.587168
6111.656532,2890.529701,535.992262,-10394.421374
6111.659091,-2067.398726,1837.687757,-10528.419440
6111.661650,3617.947771,5417.350366,-7982.456194
6111.664209,-937.986459,-2737.389054,-10241.280728
6111.666767,2163.111630,2086.541307,-9494.720077
6111.669326,38.285162,-5168.496816,-11370.692995
6111.671885,1971.685822,6833.901346,-8901.300072
6111.674444,1225.125171,-1531.406464,-9820.143950
6111.677003,-2660.818731,-5187.639397,-11236.694930
6111.679562,823.130974,8403.592971,-7695.317482
6111.682121,3120.240670,-6183.053598,-10777.272990
6111.684680,-2718.246474,19.142581,-10509.276859
6111.687239,-2660.818731,-1282.552914,-9571.290400
6111.689798,2469.392923,-516.849682,-9437.292334
6111.692357,-1282.552914,2411.965181,-9533.005238
6111.694919,1378.265818,-1971.685822,-10528.419440
6111.697481,-76.570323,2488.535504,-9667.003304
6111.700043,555.134843,2526.820666,-9513.862658
6111.702605,-918.843878,-2316.252277,-9781.858789
6111.705167,-1569.691626,-1780.260014,-9820.143950
6111.707729,0.000000,555.134843,-9762.716208
6111.710291,2124.826469,1741.974853,-10279.565890
6111.712853,-133.998066,325.423874,-10030.712339
6111.715415,-229.710970,229.710970,-8556.733618
6111.717978,325.423874,1110.269686,-9341.579430
6111.720540,478.564520,153.140646,-10892.128475
6111.723102,287.138712,1914.258080,-9954.142016
6111.725664,-669.990328,-957.129040,-9207.581365
6111.728226,-3024.527766,-2124.826469,-9628.718142
6111.730788,497.707101,-401.994197,-9992.427178
6111.733350,-497.707101,-689.132909,-10413.563955
6111.735912,-153.140646,-421.136778,-9858.429112
6111.738474,1607.976787,1033.699363,-9188.438784
6111.741036,-3177.668413,-3177.668413,-10930.413637
6111.743598,1473.978722,5551.348432,-8690.731683
6111.746160,-229.710970,-2871.387120,-10336.993632
6111.748722,-2450.250342,3139.383251,-10030.712339
6111.751285,2450.250342,6757.331022,-7503.891674
6111.753847,3254.238736,-7695.317482,-11121.839445
6111.756409,-2603.390989,4594.219392,-10107.282662
6111.758971,3483.949706,3905.086483,-9054.440718
6111.761533,382.851616,1359.123237,-10107.282662
6111.764095,-593.420005,5359.922624,-8556.733618
6111.766657,5742.774240,-1569.691626,-9954.142016
6111.769219,-1512.263883,-1110.269686,-10356.136213
6111.771781,-1014.556782,38.285162,-9954.142016
6111.774343,4575.076811,4096.512291,-8843.872330
6111.776905,1129.412267,-191.425808,-10490.134278
6111.779467,-631.705166,1914.258080,-9552.147819
6111.782030,2163.111630,3330.809059,-8709.874264
6111.784592,1263.410333,-248.853550,-10470.991698
6111.787154,-287.138712,1665.404530,-9647.860723
6111.789716,2048.256146,612.562586,-9322.436850
6111.792278,842.273555,593.420005,-9781.858789
6111.794840,287.138712,823.130974,-9686.145885
6111.797405,1569.691626,1952.543242,-9188.438784
6111.799970,2775.674216,1397.408398,-9915.856854
6111.802535,-497.707101,2029.113565,-9839.286531
6111.805100,2909.672282,2086.541307,-8863.014910
6111.807664,2086.541307,1378.265818,-9934.999435
6111.810229,-210.568389,5704.489078,-9418.149754
6111.812794,3388.236802,1780.260014,-9418.149754
6111.815359,-612.562586,382.851616,-10088.140082
6111.817924,229.710970,-995.414202,-9686.145885
6111.820489,1052.841944,401.994197,-9877.571693
6111.823054,3522.234867,6259.623922,-8863.014910
6111.825619,-574.277424,-2737.389054,-10432.706536
6111.828184,-3656.232933,5168.496816,-9399.007173
6111.830749,3330.809059,3311.666478,-8729.016845
6111.833314,-440.279358,-7695.317482,-11772.687192
6111.835878,-842.273555,5627.918755,-8518.448456
6111.838443,229.710970,-5283.352301,-10796.415571
6111.841008,-1837.687757,19.142581,-9801.001370
6111.843573,306.281293,689.132909,-9781.858789
6111.846138,-76.570323,-3254.238736,-10700.702667
6111.848703,-153.140646,4441.078746,-8882.157491
6111.851268,1186.840010,1607.976787,-9475.577496
6111.853833,-1110.269686,-1512.263883,-10413.563955
6111.856398,-3560.520029,880.558717,-9226.723946
6111.858963,2297.109696,-3637.090352,-10145.567824
6111.861527,842.273555,1569.691626,-9781.858789
6111.864092,-1875.972918,1244.267752,-10107.282662
6111.866657,1416.550979,535.992262,-9399.007173
6111.869222,1071.984525,114.855485,-9092.725880
6111.871787,-1761.117434,57.427742,-10528.419440
6111.874352,344.566454,784.845813,-9992.427178
6111.876917,-784.845813,-1129.412267,-9686.145885
6111.879482,-2603.390989,-1091.127106,-9571.290400
6111.882047,842.273555,765.703232,-9207.581365
6111.884612,-1952.543242,-5436.492947,-10892.128475
6111.887177,-1588.834206,689.132909,-9820.143950
6111.889741,2545.963246,4096.512291,-9035.298138
6111.892306,306.281293,-1301.695494,-10145.567824
6111.894871,-1837.687757,2316.252277,-9418.149754
6111.897436,555.134843,4785.645200,-8346.165229
6111.899986,-401.994197,-8346.165229,-11466.405899
6111.902537,-1550.549045,3158.525832,-9820.143950
6111.905087,6451.049730,2584.248408,-8441.878133
6111.907637,-823.130974,-4115.654872,-11255.837510
6111.910188,-459.421939,9456.434915,-8116.454259
6111.912738,1856.830338,-1473.978722,-10317.851051
6111.915288,-306.281293,5302.494882,-8997.012976
6111.917838,4364.508422,2890.529701,-9399.007173
6111.920389,2756.531635,-1588.834206,-9667.003304
6111.922939,-1378.265818,-363.709035,-9839.286531
6111.925489,995.414202,2488.535504,-9781.858789
6111.928039,3426.521963,1531.406464,-9820.143950
6111.930590,-267.996131,1665.404530,-9896.714274
6111.933140,937.986459,3158.525832,-9150.153622
6111.935690,1895.115499,-287.138712,-10068.997501
6111.938241,555.134843,1263.410333,-9858.429112
6111.940791,899.701298,708.275490,-9973.284597
6111.943341,1454.836141,650.847747,-9781.858789
6111.945891,114.855485,669.990328,-9724.431046
6111.948442,2239.681954,2009.970984,-9303.294269
6111.950992,76.570323,937.986459,-10279.565890
6111.953542,3847.658741,3694.518094,-9265.009107
6111.956092,2584.248408,1129.412267,-9820.143950
6111.958643,-1837.687757,4039.084549,-9494.720077
6111.961193,3598.805190,4862.215523,-8556.733618
6111.963743,765.703232,-899.701298,-10719.845248
6111.966294,1397.408398,57.427742,-9992.427178
6111.968844,-803.988394,-3139.383251,-10279.565890
6111.971394,3771.088418,5417.350366,-8633.303941
6111.973944,-574.277424,-2986.242605,-10624.132344
6111.976495,-3751.945837,4977.071008,-9628.718142
6111.979045,3694.518094,4689.932296,-8307.880067
6111.981595,2009.970984,-7274.180704,-10796.415571
6111.984146,-2890.529701,689.132909,-9839.286531
6111.986696,-2067.398726,-2009.970984,-9647.860723
6111.989246,1875.972918,-784.845813,-10049.854920
6111.991796,-612.562586,1818.545176,-9724.431046
6111.994347,248.853550,-3120.240670,-10509.276859
6111.996897,57.427742,4594.219392,-8652.446522
6111.999447,765.703232,574.277424,-9533.005238
6112.002002,-784.845813,-1588.834206,-10662.417506
6112.004556,-2335.394858,1244.267752,-9552.147819
6112.007111,0.000000,-2277.967115,-9934.999435
6112.009665,2086.541307,1320.838075,-9552.147819
6112.012220,-708.275490,784.845813,-10222.138147
6112.014774,593.420005,0.000000,-9762.716208
6112.017329,287.138712,1033.699363,-9131.011042
6112.019884,-880.558717,-650.847747,-10413.563955
6112.022438,-1110.269686,-535.992262,-10202.995566
6112.024993,-1550.549045,-267.996131,-9801.001370
6112.027547,1952.543242,-593.420005,-9552.147819
6112.030102,-2469.392923,-5493.920690,-10719.845248
6112.032656,-2775.674216,765.703232,-9475.577496
6112.035211,2737.389054,4019.941968,-9341.579430
6112.037765,497.707101,-2737.389054,-10872.985894
6112.040320,-1837.687757,3771.088418,-9226.723946
6112.042875,2488.535504,-1397.408398,-9494.720077
6112.045429,-3579.662610,-4268.795518,-11006.983960
6112.047984,2277.967115,8173.882002,-7752.745224
6112.050538,4938.785846,-6240.481341,-11274.980091
6112.053093,-1129.412267,-2431.107762,-10700.702667
6112.055647,-248.853550,8441.878133,-7676.174901
6112.058202,2143.969050,-1722.832272,-10451.849117
6112.060756,-1014.556782,5991.627790,-8920.442653
6112.063311,5302.494882,2852.244539,-9456.434915
6112.065865,1052.841944,-3483.949706,-10930.413637
6112.068420,-2775.674216,287.138712,-9379.864592
6112.070975,4862.215523,2641.676150,-8652.446522
6112.073529,325.423874,-727.418070,-11026.126541
6112.076084,-344.566454,5225.924558,-9188.438784
6112.078638,1895.115499,2737.389054,-8882.157491
6112.081193,1971.685822,-555.134843,-9992.427178
6112.083747,-555.134843,1071.984525,-9571.290400
6112.086302,1397.408398,1282.552914,-9820.143950
6112.088856,976.271621,1052.841944,-10049.854920
6112.091411,19.142581,478.564520,-9399.007173
6112.093966,1588.834206,2775.674216,-8920.442653
6112.096520,2316.252277,-1282.552914,-10222.138147
6112.099075,2507.678085,4766.502619,-9418.149754
6112.101629,3541.377448,4307.080680,-9303.294269
6112.104188,363.709035,-2029.113565,-10164.710405
6112.106746,210.568389,4728.217458,-8882.157491
6112.109305,669.990328,823.130974,-9571.290400
6112.111863,4134.797453,2584.248408,-9858.429112
6112.114422,-899.701298,-3809.373579,-10336.993632
6112.116980,-1186.840010,3330.809059,-9437.292334
6112.119539,3407.379382,1378.265818,-9226.723946
6112.122097,-3598.805190,-3675.375514,-11313.265253
6112.124656,2507.678085,5245.067139,-9265.009107
6112.127214,3866.801322,-401.994197,-9399.007173
6112.129773,-1435.693560,-3885.943902,-10834.700733
6112.132331,-4077.369710,95.712904,-9226.723946
6112.134890,2813.959378,-880.558717,-9858.429112
6112.137448,401.994197,1780.260014,-9858.429112
6112.140007,-995.414202,-1952.543242,-10413.563955
6112.142565,19.142581,2258.824534,-9016.155557
6112.145124,-38.285162,1818.545176,-9188.438784
6112.147682,-133.998066,-2392.822600,-10375.278794
6112.150241,-669.990328,-38.285162,-9705.288466
6112.152799,-727.418070,-440.279358,-9743.573627
6112.155358,1186.840010,1301.695494,-9915.856854
6112.157916,325.423874,-421.136778,-9877.571693
6112.160475,-535.992262,746.560651,-9169.296203
6112.163033,459.421939,421.136778,-9628.718142
6112.165592,-1282.552914,-1550.549045,-10432.706536
6112.168150,-1722.832272,497.707101,-9839.286531
6112.170709,1761.117434,-421.136778,-9590.432981
6112.173267,-2086.541307,-4039.084549,-10624.132344
6112.175826,-2871.387120,57.427742,-9494.720077
6112.178384,2526.820666,4728.217458,-8786.444587
6112.180943,-555.134843,-3254.238736,-11485.548480
6112.183501,-210.568389,4421.936165,-9245.866526
6112.186060,1761.117434,-2852.244539,-9801.001370
6112.188618,-3771.088418,-1952.543242,-10451.849117
6112.191177,2373.680019,7006.184573,-7618.747158
6112.193735,1933.400661,-8039.883936,-11772.687192
6112.196294,-1301.695494,6355.336826,-9743.573627
6112.198852,861.416136,7618.747158,-7771.887805
6112.201411,2737.389054,-976.271621,-10183.852986
6112.203969,-1703.689691,5647.061336,-8901.300072
6112.206529,5340.780043,1244.267752,-9590.432981
6112.209091,114.855485,-2622.533570,-11045.269122
6112.211653,-2067.398726,1320.838075,-9628.718142
6112.214214,5072.783912,1588.834206,-8556.733618
6112.216776,0.000000,2029.113565,-10298.708470
6112.219337,1627.119368,3981.656806,-9379.864592
6112.221899,1588.834206,803.988394,-9360.722011
6112.224461,-918.843878,-248.853550,-10145.567824
6112.227022,765.703232,1129.412267,-9379.864592
6112.229584,2335.394858,287.138712,-10049.854920
6112.232146,-1282.552914,1186.840010,-9992.427178
6112.234707,1512.263883,1320.838075,-9265.009107
6112.237269,248.853550,0.000000,-9801.001370
6112.239830,3407.379382,3962.514226,-9475.577496
6112.242392,4402.793584,899.701298,-9915.856854
6112.244954,-1014.556782,3560.520029,-9858.429112
6112.247515,1780.260014,7350.751027,-8116.454259
6112.250077,2603.390989,-957.129040,-10126.425243
6112.252638,-229.710970,-1339.980656,-10394.421374
6112.255200,-267.996131,1684.547110,-9399.007173
6112.257762,4421.936165,2603.390989,-9092.725880
6112.260323,-2699.103893,-3694.518094,-11140.982026
6112.262885,-1646.261949,8020.741355,-8518.448456
6112.265446,4460.221326,-2699.103893,-9609.575562
6112.268008,-3426.521963,-2143.969050,-11083.554283
6112.270570,-1550.549045,4077.369710,-8977.870395
6112.273131,421.136778,-3981.656806,-10164.710405
6112.275693,-1588.834206,-746.560651,-9762.716208
6112.278255,363.709035,1244.267752,-9820.143950
6112.280816,114.855485,-267.996131,-10432.706536
6112.283378,-133.998066,3464.807125,-8748.159426
6112.285939,0.000000,-2086.541307,-10088.140082
6112.288501,-593.420005,1091.127106,-10202.995566
6112.291063,-650.847747,-976.271621,-9973.284597
6112.293624,114.855485,-842.273555,-10336.993632
6112.296186,-842.273555,765.703232,-9399.007173
6112.298747,0.000000,1435.693560,-9743.573627
6112.301309,1091.127106,-267.996131,-9992.427178
6112.303871,-344.566454,1397.408398,-9265.009107
6112.306432,-1129.412267,-1454.836141,-10260.423309
6112.308997,-1627.119368,-76.570323,-9934.999435
6112.311561,1646.261949,1071.984525,-9437.292334
6112.314126,-2143.969050,-4919.643266,-10738.987829
6112.316690,-2641.676150,746.560651,-9207.581365
6112.319255,1454.836141,4249.652938,-8958.727814
6112.321819,746.560651,-2737.389054,-11006.983960
6112.324383,-861.416136,4115.654872,-9552.147819
6112.326948,1780.260014,-1397.408398,-9571.290400
6112.329512,-3158.525832,-3560.520029,-10815.558152
6112.332077,2105.683888,7676.174901,-7542.176835
6112.334641,3751.945837,-6833.901346,-11332.407834
6112.337206,-1799.402595,4555.934230,-10183.852986
6112.339770,2679.961312,2277.967115,-8958.727814
6112.342335,1052.841944,2239.681954,-9513.862658
6112.344899,-1167.697429,4977.071008,-9016.155557
6112.347464,4670.789715,1933.400661,-9456.434915
6112.350028,784.845813,-2813.959378,-10968.698798
6112.352593,-2067.398726,1339.980656,-9552.147819
6112.355157,3771.088418,1014.556782,-8748.159426
6112.357721,1033.699363,3522.234867,-9954.142016
6112.360286,1684.547110,2545.963246,-9743.573627
6112.362850,593.420005,650.847747,-9801.001370
6112.365415,-421.136778,1397.408398,-9418.149754
6112.367979,1493.121302,6604.190376,-9647.860723
6112.370544,2277.967115,0.000000,-10470.991698
6112.373108,-1473.978722,1971.685822,-9743.573627
6112.375673,555.134843,669.990328,-9437.292334
6112.378237,4039.084549,1588.834206,-9494.720077
6112.380802,2450.250342,2182.254211,-9896.714274
6112.383366,172.283227,4000.799387,-9686.145885
6112.385931,1033.699363,1588.834206,-9456.434915
6112.388495,1033.699363,1722.832272,-9743.573627
6112.391059,-459.421939,459.421939,-9743.573627
6112.393624,4230.510357,4900.500685,-8824.729749
6112.396188,1014.556782,-4096.512291,-10509.276859
6112.398753,-3177.668413,1875.972918,-9934.999435
6112.401317,3235.096155,4173.082614,-8977.870395
6112.403882,-2450.250342,-5704.489078,-10336.993632
6112.406446,-3292.523898,1646.261949,-9954.142016
6112.409011,2163.111630,1703.689691,-8690.731683
6112.411577,-114.855485,-4153.940034,-11121.839445
6112.414144,-4115.654872,497.707101,-9705.288466
6112.416711,2775.674216,191.425808,-9513.862658
6112.419277,1129.412267,995.414202,-9667.003304
6112.421844,-2622.533570,-2450.250342,-10509.276859
6112.424410,38.285162,3120.240670,-8920.442653
6112.426977,612.562586,1435.693560,-9399.007173
6112.429544,-287.138712,-1359.123237,-10279.565890
6112.432110,-765.703232,248.853550,-9322.436850
6112.434677,593.420005,38.285162,-9590.432981
6112.437243,555.134843,57.427742,-10241.280728
6112.439810,-497.707101,421.136778,-9934.999435
6112.442377,1110.269686,746.560651,-9571.290400
6112.444943,-363.709035,-861.416136,-9858.429112
6112.447510,-2622.533570,-440.279358,-9801.001370
6112.450076,669.990328,2182.254211,-9341.579430
6112.452643,-421.136778,-2105.683888,-10107.282662
6112.455210,-689.132909,-3560.520029,-10241.280728
6112.457776,-957.129040,1378.265818,-9973.284597
6112.460343,2143.969050,459.421939,-9494.720077
6112.462910,-765.703232,2163.111630,-9877.571693
6112.465476,1129.412267,1359.123237,-9207.581365
6112.468043,-3024.527766,-6470.192310,-11121.839445
6112.470609,2335.394858,7063.612315,-8020.741355
6112.473176,6317.051664,-3962.514226,-10222.138147
6112.475743,-2029.113565,1741.974853,-11447.263318
6112.478309,-765.703232,9226.723946,-7867.600709
6112.480876,1799.402595,-918.843878,-10049.854920
6112.483442,-76.570323,4804.787781,-8958.727814
6112.486009,3981.656806,3273.381317,-9513.862658
6112.488576,1646.261949,-3675.375514,-10892.128475
6112.491142,-2603.390989,842.273555,-9628.718142
6112.493709,2813.959378,1148.554848,-9169.296203
6112.496275,2488.535504,3637.090352,-9839.286531
6112.498842,803.988394,2354.537438,-9858.429112
6112.501409,459.421939,172.283227,-9647.860723
6112.503975,114.855485,172.283227,-9437.292334
6112.506542,899.701298,1722.832272,-9667.003304
6112.509109,2105.683888,0.000000,-10681.560086
6112.511675,-1014.556782,1569.691626,-9379.864592
6112.514244,3024.527766,1627.119368,-8977.870395
6112.516812,2354.537438,1435.693560,-9934.999435
6112.519381,2565.105827,3713.660675,-9590.432981
6112.521949,-229.710970,1244.267752,-9628.718142
6112.524518,2584.248408,4900.500685,-9284.151688
6112.527086,-516.849682,2373.680019,-9341.579430
6112.529655,3464.807125,1473.978722,-9418.149754
6112.532223,-1225.125171,-4517.649069,-11083.554283
6112.534792,2679.961312,6087.340694,-8805.587168
6112.537360,1167.697429,-3292.523898,-10509.276859
6112.539929,-3866.801322,2239.681954,-10107.282662
6112.542497,3311.666478,4977.071008,-7963.313613
6112.545066,-344.566454,-8633.303941,-11715.259450
6112.547634,-2297.109696,4421.936165,-9111.868461
6112.550203,1263.410333,-229.710970,-9628.718142
6112.552771,2565.105827,-1780.260014,-10068.997501
6112.555340,-1225.125171,1550.549045,-9647.860723
6112.557908,-1186.840010,-516.849682,-9992.427178
6112.560477,631.705166,3273.381317,-8805.587168
6112.563045,-1167.697429,-1971.685822,-10700.702667
6112.565614,-114.855485,669.990328,-10202.995566
6112.568182,669.990328,-382.851616,-9418.149754
6112.570751,-1110.269686,-918.843878,-9954.142016
6112.573319,-57.427742,1627.119368,-9169.296203
6112.575888,363.709035,880.558717,-9858.429112
6112.578456,1225.125171,-153.140646,-9705.288466
6112.581025,-899.701298,861.416136,-9437.292334
6112.583593,-842.273555,-1320.838075,-10241.280728
6112.586162,-1818.545176,861.416136,-9705.288466
6112.588730,-1014.556782,-1244.267752,-9628.718142
6112.591299,-95.712904,-4766.502619,-10413.563955
6112.593867,-1052.841944,1493.121302,-9781.858789
6112.596437,1665.404530,-287.138712,-9609.575562
6112.599007,-555.134843,19.142581,-9915.856854
6112.601577,-19.142581,5283.352301,-8729.016845
6112.604147,-2182.254211,-6374.479406,-11198.409768
6112.606717,382.851616,4192.225195,-9265.009107
6112.609287,7101.897477,-133.998066,-9456.434915
6112.611857,-1186.840010,-2794.816797,-11351.550414
6112.614427,-555.134843,8403.592971,-8154.739421
6112.616997,2335.394858,-114.855485,-10260.423309
6112.619567,-650.847747,4689.932296,-9188.438784
6112.622137,4479.363907,2335.394858,-9073.583299
6112.624707,2297.109696,-3464.807125,-10796.415571
6112.627276,-2526.820666,19.142581,-9915.856854
6112.629846,1473.978722,1244.267752,-9284.151688
6112.632416,4383.651003,2852.244539,-9609.575562
6112.634986,-133.998066,2239.681954,-9781.858789
6112.637556,-19.142581,1588.834206,-9284.151688
6112.640126,1225.125171,-459.421939,-9475.577496
6112.642696,669.990328,1186.840010,-9494.720077
6112.645266,172.283227,784.845813,-10413.563955
6112.647836,2794.816797,1722.832272,-9073.583299
6112.650406,1397.408398,1339.980656,-9188.438784
6112.652976,2392.822600,2258.824534,-9513.862658
6112.655546,516.849682,2105.683888,-9743.573627
6112.658116,2890.529701,3158.525832,-9743.573627
6112.660686,2316.252277,1837.687757,-10049.854920
6112.663256,-937.986459,-842.273555,-9781.858789
6112.665826,2335.394858,5513.063270,-8001.598774
6112.668396,1627.119368,-2258.824534,-10030.712339
6112.670966,-2871.387120,497.707101,-10853.843314
6112.673536,133.998066,8154.739421,-8480.163294
6112.676106,3522.234867,-5379.065205,-9647.860723
6112.678675,-4441.078746,-765.703232,-10183.852986
6112.681245,823.130974,3445.664544,-8614.161360
6112.683815,1014.556782,-4115.654872,-11351.550414
6112.686385,-3924.229064,1071.984525,-9839.286531
6112.688955,2622.533570,382.851616,-9399.007173
6112.691525,1780.260014,306.281293,-9437.292334
6112.694095,-4785.645200,-2277.967115,-10451.849117
6112.696665,784.845813,1780.260014,-9360.722011
6112.699220,2450.250342,1282.552914,-9877.571693
6112.701774,-689.132909,-2048.256146,-10604.989763
6112.704328,-248.853550,2067.398726,-8671.589102
6112.706883,401.994197,-1148.554848,-9954.142016
6112.709437,-459.421939,1282.552914,-10241.280728
6112.711992,650.847747,574.277424,-9877.571693
6112.714546,153.140646,-516.849682,-9954.142016
6112.717100,-976.271621,95.712904,-9513.862658
6112.719655,-3866.801322,-1512.263883,-10164.710405
6112.722209,-1320.838075,-287.138712,-9877.571693
6112.724764,1914.258080,-2699.103893,-9858.429112
6112.727318,-2067.398726,-2277.967115,-10700.702667
6112.729872,1703.689691,2009.970984,-8939.585234
6112.732427,-19.142581,1780.260014,-9341.579430
6112.734981,229.710970,2526.820666,-9437.292334
6112.737536,-3273.381317,-5379.065205,-11294.122672
6112.740090,2756.531635,6833.901346,-8173.882002
6112.742644,6757.331022,-4039.084549,-9896.714274
6112.745199,-38.285162,-5493.920690,-11562.118803
6112.747753,-880.558717,8575.876198,-8384.450390
6112.750308,1320.838075,-19.142581,-10107.282662
6112.752862,746.560651,5111.069074,-8748.159426
6112.755416,4096.512291,3790.230998,-8997.012976
6112.757971,1990.828403,-4153.940034,-10892.128475
6112.760525,-2699.103893,1091.127106,-9590.432981
6112.763080,1818.545176,1416.550979,-9245.866526
6112.765634,3292.523898,2201.396792,-9992.427178
6112.768188,861.416136,3656.232933,-9743.573627
6112.770743,-957.129040,421.136778,-9533.005238
6112.773297,1722.832272,-669.990328,-9265.009107
6112.775852,-95.712904,1129.412267,-10183.852986
6112.778406,669.990328,497.707101,-10949.556218
6112.780961,2641.676150,2239.681954,-9418.149754
6112.783515,2354.537438,1818.545176,-8786.444587
6112.786069,1895.115499,2048.256146,-9418.149754
6112.788624,-210.568389,382.851616,-10260.423309
6112.791178,3598.805190,6661.618118,-9360.722011
6112.793733,344.566454,2067.398726,-9820.143950
6112.796287,3043.670347,2718.246474,-8480.163294
6112.798841,-2067.398726,-4077.369710,-10336.993632
6112.801399,2029.113565,5225.924558,-9150.153622
6112.803957,2641.676150,-2258.824534,-10796.415571
6112.806515,-2737.389054,-6833.901346,-11772.687192
6112.809073,459.421939,7752.745224,-7063.612315
6112.811631,1550.549045,-4900.500685,-9667.003304
6112.814189,-2775.674216,631.705166,-10451.849117
6112.816747,-2067.398726,421.136778,-10049.854920
6112.819304,2928.814862,-1665.404530,-10298.708470
6112.821862,-765.703232,1033.699363,-9571.290400
6112.824420,-899.701298,19.142581,-9590.432981
6112.826978,-823.130974,593.420005,-9245.866526
6112.829536,-1722.832272,-803.988394,-10853.843314
6112.832094,267.996131,-516.849682,-10604.989763
6112.834652,1263.410333,593.420005,-9092.725880
6112.837210,-899.701298,-421.136778,-9590.432981
6112.839768,-918.843878,1339.980656,-9552.147819
6112.842325,1186.840010,689.132909,-10088.140082
6112.844883,-57.427742,440.279358,-9954.142016
6112.847441,708.275490,-133.998066,-9533.005238
6112.849999,-3541.377448,-823.130974,-9896.714274
6112.852557,-2220.539373,-229.710970,-9418.149754
6112.855115,2431.107762,-1550.549045,-9647.860723
6112.857673,-1722.832272,-4441.078746,-11236.694930
6112.860231,1320.838075,2737.389054,-8748.159426
6112.862789,421.136778,1091.127106,-9284.151688
6112.865346,-287.138712,3943.371645,-8882.157491
6112.867904,-3388.236802,-5589.633594,-11160.124606
6112.870462,2182.254211,5857.629725,-8997.012976
6112.873020,7255.038123,-2411.965181,-9628.718142
6112.875578,-1722.832272,-2201.396792,-10681.560086
6112.878136,-172.283227,7963.313613,-7791.030386
6112.880694,1167.697429,631.705166,-9820.143950
6112.883252,1186.840010,4307.080680,-9284.151688
6112.885810,4039.084549,5091.926493,-8977.870395
6112.888367,2431.107762,-4728.217458,-10853.843314
6112.890925,-2507.678085,1359.123237,-9609.575562
6112.893483,1186.840010,1225.125171,-9571.290400
6112.896041,2258.824534,1875.972918,-10011.569758
6112.898599,1933.400661,4709.074877,-9533.005238
6112.901157,2143.969050,267.996131,-9781.858789
6112.903718,1359.123237,19.142581,-9284.151688
6112.906279,76.570323,1416.550979,-9954.142016
6112.908840,1110.269686,861.416136,-10834.700733
6112.911401,2986.242605,2163.111630,-9667.003304
6112.913962,2450.250342,2354.537438,-8882.157491
6112.916523,-229.710970,2067.398726,-9188.438784
6112.919084,2545.963246,2067.398726,-9762.716208
6112.921645,2431.107762,2029.113565,-10777.272990
6112.924206,-363.709035,516.849682,-10336.993632
6112.926767,421.136778,4498.506488,-7829.315547
6112.929327,2565.105827,114.855485,-8843.872330
6112.931888,-1856.830338,-1493.121302,-11006.983960
6112.934449,2967.100024,7810.172966,-8958.727814
6112.937010,861.416136,-8365.307810,-11332.407834
6112.939571,-3637.090352,2584.248408,-8882.157491
6112.942132,1473.978722,210.568389,-8307.880067
6112.944693,-612.562586,-2182.254211,-10834.700733
6112.947254,-3062.812928,2009.970984,-9858.429112
6112.949815,3522.234867,-210.568389,-10030.712339
6112.952376,2431.107762,-344.566454,-9284.151688
6112.954937,-5742.774240,-1837.687757,-10145.567824
6112.957498,746.560651,2813.959378,-8748.159426
6112.960059,1282.552914,-1627.119368,-10700.702667
6112.962620,-784.845813,-382.851616,-10892.128475
6112.965181,1780.260014,1761.117434,-8939.585234
6112.967742,-421.136778,-765.703232,-9609.575562
6112.970303,-1110.269686,1071.984525,-9762.716208
6112.972864,1129.412267,1110.269686,-10145.567824
6112.975425,803.988394,-363.709035,-10643.274925
6112.977986,-4039.084549,-401.994197,-9915.856854
6112.980547,-2545.963246,-229.710970,-8863.014910
6112.983108,229.710970,-4192.225195,-10068.997501
6112.985669,-1339.980656,784.845813,-10528.419440
6112.988230,1339.980656,172.283227,-9915.856854
6112.990791,1933.400661,1665.404530,-9724.431046
6112.993352,-1550.549045,-1703.689691,-9820.143950
6112.995913,-3828.516160,-535.992262,-10222.138147
6112.998474,3177.668413,5723.631659,-8327.022648
6113.001035,7063.612315,-3062.812928,-10317.851051
6113.003595,-2048.256146,306.281293,-10470.991698
6113.006159,440.279358,5819.344563,-7848.458128
6113.008722,2277.967115,535.992262,-10279.565890
6113.011286,-1550.549045,4000.799387,-9552.147819
6113.013849,5704.489078,-114.855485,-10030.712339
6113.016412,1339.980656,-344.566454,-10049.854920
6113.018976,-95.712904,3273.381317,-8882.157491
6113.021539,937.986459,-57.427742,-9207.581365
6113.024103,-440.279358,1856.830338,-10126.425243
6113.026666,2163.111630,3292.523898,-9667.003304
6113.029230,2756.531635,1416.550979,-9801.001370
6113.031793,-1186.840010,-535.992262,-9456.434915
6113.034356,401.994197,1339.980656,-8863.014910
6113.036920,2048.256146,478.564520,-10279.565890
6113.039483,2201.396792,2335.394858,-10183.852986
6113.042047,2813.959378,1933.400661,-9054.440718
6113.044610,-1186.840010,1722.832272,-8882.157491
6113.047173,3024.527766,4096.512291,-8767.302006
6113.049737,3694.518094,1550.549045,-10547.562021
6113.052300,-57.427742,-1761.117434,-10872.985894
6113.054864,-1665.404530,2392.822600,-8786.444587
6113.057427,3196.810994,1627.119368,-8537.591037
6113.059990,-1512.263883,-3407.379382,-11006.983960
6113.062554,937.986459,8441.878133,-8843.872330
6113.065117,3464.807125,-5723.631659,-10872.985894
6113.067681,-4211.367776,-382.851616,-10451.849117
6113.070244,114.855485,1741.974853,-8422.735552
6113.072807,2201.396792,-3656.232933,-10700.702667
6113.075371,-3196.810994,229.710970,-10547.562021
6113.077934,1531.406464,2967.100024,-9379.864592
6113.080498,2699.103893,555.134843,-9667.003304
6113.083061,-5474.778109,-1359.123237,-10107.282662
6113.085624,57.427742,1646.261949,-8690.731683
6113.088188,1167.697429,-1588.834206,-10528.419440
6113.090751,-478.564520,325.423874,-10796.415571
6113.093315,1856.830338,1473.978722,-9207.581365
6113.095878,-210.568389,-535.992262,-9628.718142
6113.098441,-899.701298,114.855485,-9686.145885
6113.101005,842.273555,1282.552914,-9839.286531
6113.103568,784.845813,153.140646,-10336.993632
6113.106132,-2679.961312,-1952.543242,-9934.999435
6113.108697,-3809.373579,-2143.969050,-9418.149754
6113.111262,1665.404530,1646.261949,-9073.583299
6113.113828,-689.132909,-5991.627790,-11236.694930
6113.116393,1952.543242,2297.109696,-9705.288466
6113.118958,-1722.832272,-382.851616,-9839.286531
6113.121524,784.845813,5627.918755,-9035.298138
6113.124089,2124.826469,861.416136,-9111.868461
6113.126655,-306.281293,-4153.940034,-11026.126541
6113.129220,4919.643266,8212.167163,-8422.735552
6113.131785,1167.697429,-4479.363907,-11006.983960
6113.134351,-1263.410333,5493.920690,-9016.155557
6113.136916,-612.562586,689.132909,-9437.292334
6113.139481,2201.396792,2565.105827,-9743.573627
6113.142047,3828.516160,6297.909083,-8748.159426
6113.144612,2986.242605,-3158.525832,-10719.845248
6113.147178,-1531.406464,-1588.834206,-9896.714274
6113.149743,-1205.982590,1416.550979,-9628.718142
6113.152308,3273.381317,248.853550,-10260.423309
6113.154874,2316.252277,3215.953574,-9724.431046
6113.157439,-995.414202,363.709035,-9877.571693
6113.160004,2048.256146,229.710970,-9360.722011
6113.162570,0.000000,1473.978722,-9360.722011
6113.165135,2469.392923,1741.974853,-10202.995566
6113.167701,3273.381317,2220.539373,-10145.567824
6113.170266,-823.130974,765.703232,-9188.438784
6113.172831,2699.103893,5915.057467,-8480.163294
6113.175397,4096.512291,1531.406464,-10241.280728
6113.177962,-382.851616,-1378.265818,-10662.417506
6113.180528,-210.568389,3771.088418,-9131.011042
6113.183093,2526.820666,631.705166,-8882.157491
6113.185658,-1588.834206,-2354.537438,-10509.276859
6113.188224,2143.969050,7542.176835,-8767.302006
6113.190789,1780.260014,-7523.034254,-11313.265253
6113.193354,-3445.664544,2316.252277,-9590.432981
6113.195920,-1914.258080,3598.805190,-8212.167163
6113.198485,2029.113565,-3694.518094,-10336.993632
6113.201051,-3713.660675,344.566454,-10222.138147
6113.203616,1856.830338,2545.963246,-9379.864592
6113.206181,2488.535504,-287.138712,-9743.573627
6113.208747,-5072.783912,-478.564520,-10222.138147
6113.211315,0.000000,-325.423874,-9073.583299
6113.213882,-76.570323,-1359.123237,-10164.710405
6113.216450,-229.710970,1397.408398,-10279.565890
6113.219017,440.279358,1550.549045,-9169.296203
6113.221584,765.703232,555.134843,-9379.864592
6113.224151,-1569.691626,-76.570323,-9628.718142
6113.226718,1627.119368,1741.974853,-9590.432981
6113.229285,-1416.550979,-2335.394858,-10834.700733
6113.231853,-3292.523898,-19.142581,-9552.147819
6113.234420,114.855485,-1052.841944,-9188.438784
6113.236987,-1416.550979,-3905.086483,-10853.843314
6113.239554,-497.707101,1665.404530,-9169.296203
6113.242121,3158.525832,2163.111630,-9667.003304
6113.244689,287.138712,-1493.121302,-10738.987829
6113.247256,-4441.078746,-746.560651,-9801.001370
6113.249823,3560.520029,5781.059402,-7886.743290
6113.252390,2967.100024,-5302.494882,-11140.982026
6113.254957,-1780.260014,-478.564520,-10987.841379
6113.257525,363.709035,7006.184573,-8193.024582
6113.260092,2431.107762,-133.998066,-10011.569758
6113.262659,-1473.978722,3177.668413,-9169.296203
6113.265226,5206.781978,-95.712904,-9992.427178
6113.267793,1473.978722,-325.423874,-10394.421374
6113.270361,555.134843,3828.516160,-8939.585234
6113.272928,918.843878,-114.855485,-9513.862658
6113.275495,-1129.412267,2009.970984,-9571.290400
6113.278062,2526.820666,210.568389,-9992.427178
6113.280629,2143.969050,937.986459,-10049.854920
6113.283197,-669.990328,172.283227,-9647.860723
6113.285764,784.845813,1895.115499,-8863.014910
6113.288331,2450.250342,803.988394,-9820.143950
6113.290898,2565.105827,2316.252277,-9839.286531
6113.293465,-38.285162,1761.117434,-9513.862658
6113.296033,2909.672282,3560.520029,-8709.874264
6113.298600,2928.814862,1473.978722,-10145.567824
6113.301167,-325.423874,287.138712,-10509.276859
6113.303734,459.421939,4938.785846,-8595.018779
6113.306301,2622.533570,-38.285162,-9284.151688
6113.308869,-2086.541307,-1665.404530,-10490.134278
6113.311436,3062.812928,7235.895542,-8365.307810
6113.314005,612.562586,-8786.444587,-11676.974288
6113.316573,-3024.527766,3330.809059,-9418.149754
6113.319142,1052.841944,-153.140646,-8805.587168
6113.321711,-344.566454,-440.279358,-10107.282662
6113.324280,-3483.949706,2105.683888,-9475.577496
6113.326849,2986.242605,-1493.121302,-10164.710405
6113.329418,2277.967115,-1186.840010,-9915.856854
6113.331987,-4096.512291,-421.136778,-10068.997501
6113.334556,-650.847747,-1952.543242,-9513.862658
6113.337124,-38.285162,708.275490,-9724.431046
6113.339693,727.418070,497.707101,-10145.567824
6113.342262,1550.549045,1071.984525,-9820.143950
6113.344831,-784.845813,-57.427742,-9647.860723
6113.347400,-535.992262,153.140646,-9475.577496
6113.349969,880.558717,1741.974853,-9896.714274
6113.352538,-823.130974,-2067.398726,-10719.845248
6113.355107,-2833.101958,-516.849682,-9973.284597
6113.357676,746.560651,-114.855485,-9265.009107
6113.360244,-2143.969050,-4230.510357,-10547.562021
6113.362813,-765.703232,1320.838075,-9360.722011
6113.365382,1952.543242,1990.828403,-9781.858789
6113.367951,1741.974853,-669.990328,-10719.845248
6113.370520,-3943.371645,-1990.828403,-10126.425243
6113.373089,3349.951640,6355.336826,-7599.604578
6113.375658,7235.895542,267.996131,-9341.579430
6113.378227,-1320.838075,-2354.537438,-11179.267187
6113.380795,-153.140646,7676.174901,-8173.882002
6113.383364,2967.100024,114.855485,-9858.429112
6113.385933,-1129.412267,2947.957443,-8958.727814
6113.388502,4938.785846,38.285162,-9533.005238
6113.391071,1512.263883,-1205.982590,-10566.704602
6113.393640,0.000000,4249.652938,-8882.157491
6113.396209,1052.841944,76.570323,-9456.434915
6113.398778,-153.140646,2163.111630,-9360.722011
6113.401346,1990.828403,2411.965181,-9437.292334
6113.403915,1397.408398,-57.427742,-10317.851051
6113.406484,210.568389,937.986459,-9533.005238
6113.409053,765.703232,1397.408398,-9111.868461
6113.411622,2699.103893,1493.121302,-9762.716208
6113.414191,2277.967115,2086.541307,-9762.716208
6113.416761,1129.412267,-574.277424,-9954.142016
6113.419331,1971.685822,5627.918755,-8767.302006
6113.421900,2871.387120,4364.508422,-9399.007173
6113.424470,1914.258080,-344.566454,-9073.583299
6113.427040,-2411.965181,-2967.100024,-10758.130410
6113.429610,1569.691626,5015.356170,-8671.589102
6113.432180,1397.408398,-5168.496816,-10758.130410
6113.434750,-3790.230998,2679.961312,-10107.282662
6113.437319,3694.518094,4039.084549,-8327.022648
6113.439889,-1167.697429,-6929.614250,-11562.118803
6113.442459,-2813.959378,3694.518094,-8977.870395
6113.445029,2699.103893,-3541.377448,-10681.560086
6113.447599,-3062.812928,-708.275490,-10336.993632
6113.450169,-1186.840010,2565.105827,-9341.579430
6113.452739,2086.541307,842.273555,-9571.290400
6113.455308,-2871.387120,631.705166,-9609.575562
6113.457878,-2048.256146,-784.845813,-9762.716208
6113.460448,1454.836141,-899.701298,-10202.995566
6113.463018,421.136778,1607.976787,-9820.143950
6113.465588,842.273555,631.705166,-9590.432981
6113.468158,-535.992262,-516.849682,-9820.143950
6113.470727,-114.855485,1933.400661,-8977.870395
6113.473297,-133.998066,-2201.396792,-10643.274925
6113.475867,-1703.689691,-708.275490,-10088.140082
6113.478437,-995.414202,-880.558717,-9686.145885
6113.481007,-1244.267752,-1914.258080,-9992.427178
6113.483577,-2163.111630,-1186.840010,-9475.577496
6113.486147,2029.113565,1761.117434,-9418.149754
6113.488716,612.562586,-3330.809059,-11255.837510
6113.491286,-2871.387120,1799.402595,-9839.286531
6113.493856,2354.537438,4498.506488,-7810.172966
6113.496426,76.570323,-5493.920690,-10853.843314
6113.498996,-2411.965181,3081.955509,-10470.991698
6113.501566,2048.256146,4211.367776,-8786.444587
6113.504135,2373.680019,478.564520,-10260.423309
6113.506705,-1837.687757,1895.115499,-9245.866526
6113.509275,4039.084549,-1148.554848,-9858.429112
6113.511845,2067.398726,4211.367776,-9322.436850
6113.514415,2316.252277,2718.246474,-9494.720077
6113.516985,19.142581,-1129.412267,-10030.712339
6113.519555,-976.271621,2009.970984,-9456.434915
6113.522126,2373.680019,478.564520,-9839.286531
6113.524697,2163.111630,937.986459,-10202.995566
6113.527268,-669.990328,1550.549045,-9647.860723
6113.529839,1110.269686,1263.410333,-9360.722011
6113.532410,2316.252277,1837.687757,-9686.145885
6113.534980,1818.545176,1627.119368,-9973.284597
6113.537551,2105.683888,401.994197,-9877.571693
6113.540122,2086.541307,4307.080680,-9226.723946
6113.542693,746.560651,4977.071008,-9628.718142
6113.545264,3675.375514,2794.816797,-9437.292334
6113.547834,-1397.408398,-4058.227130,-10853.843314
6113.550405,-401.994197,3924.229064,-9360.722011
6113.552976,3541.377448,-3081.955509,-9820.143950
6113.555547,-2718.246474,-2565.105827,-11102.696864
6113.558118,2201.396792,7427.321350,-7791.030386
6113.560688,-229.710970,-6412.764568,-10930.413637
6113.563259,-2737.389054,3101.098090,-9456.434915
6113.565830,1722.832272,-2928.814862,-10470.991698
6113.568401,-1531.406464,-2986.242605,-10317.851051
6113.570972,-306.281293,957.129040,-9743.573627
6113.573543,899.701298,803.988394,-9494.720077
6113.576113,-1493.121302,631.705166,-9494.720077
6113.578684,-1837.687757,-803.988394,-9896.714274
6113.581255,1339.980656,-95.712904,-9801.001370
6113.583826,842.273555,689.132909,-9915.856854
6113.586397,-114.855485,1225.125171,-9494.720077
6113.588967,1799.402595,-114.855485,-9054.440718
6113.591538,-2201.396792,-19.142581,-9513.862658
6113.594109,-708.275490,344.566454,-10088.140082
6113.596680,-1129.412267,-1646.261949,-10126.425243
6113.599251,784.845813,-133.998066,-9647.860723
6113.601821,-3311.666478,-4460.221326,-10126.425243
6113.604392,669.990328,-229.710970,-9360.722011
6113.606963,-976.271621,153.140646,-10260.423309
6113.609534,2163.111630,5398.207786,-9207.581365
6113.612105,-1722.832272,-4996.213589,-10719.845248
6113.614676,-803.988394,3828.516160,-9073.583299
6113.617246,6661.618118,1799.402595,-8652.446522
6113.619817,-1186.840010,-3120.240670,-11964.113000
6113.622389,-555.134843,6029.912952,-9303.294269
6113.624961,689.132909,976.271621,-9245.866526
6113.627532,1895.115499,2335.394858,-9111.868461
6113.630104,3560.520029,3503.092286,-9092.725880
6113.632676,2316.252277,-2813.959378,-11102.696864
6113.635248,-1665.404530,4077.369710,-9590.432981
6113.637819,344.566454,2009.970984,-9054.440718
6113.640391,2947.957443,-19.142581,-9743.573627
6113.642963,746.560651,3101.098090,-9571.290400
6113.645534,1359.123237,306.281293,-10030.712339
6113.648106,1359.123237,1550.549045,-9533.005238
6113.650678,976.271621,1454.836141,-9552.147819
6113.653250,2431.107762,1895.115499,-9628.718142
6113.655821,3503.092286,1473.978722,-9533.005238
6113.658393,2297.109696,2947.957443,-9571.290400
6113.660965,172.283227,5091.926493,-9724.431046
6113.663536,4192.225195,4728.217458,-8997.012976
6113.666108,-2794.816797,-2526.820666,-10547.562021
6113.668680,1780.260014,4402.793584,-8901.300072
6113.671252,899.701298,-5857.629725,-10738.987829
6113.673823,-3445.664544,3273.381317,-9724.431046
6113.676395,3522.234867,2258.824534,-8729.016845
6113.678967,-1703.689691,-6508.477472,-11389.835576
6113.681539,-2411.965181,2890.529701,-9533.005238
6113.684110,918.843878,-2297.109696,-10509.276859
6113.686682,-440.279358,-3560.520029,-10394.421374
6113.689254,-976.271621,3254.238736,-8977.870395
6113.691825,2182.254211,344.566454,-9533.005238
6113.694397,-1933.400661,-344.566454,-9667.003304
6113.696969,-3005.385186,-1244.267752,-9877.571693
6113.699541,2565.105827,248.853550,-9705.288466
6113.702112,478.564520,803.988394,-10030.712339
6113.704685,-1091.127106,76.570323,-9954.142016
6113.707258,-459.421939,1282.552914,-8805.587168
6113.709830,267.996131,-765.703232,-9667.003304
6113.712403,-2392.822600,-708.275490,-10681.560086
6113.714975,-1799.402595,-765.703232,-9973.284597
6113.717548,1339.980656,842.273555,-9399.007173
6113.720121,-2411.965181,-4823.930362,-10413.563955
6113.722693,114.855485,-287.138712,-9475.577496
6113.725266,-1665.404530,-1588.834206,-10470.991698
6113.727839,95.712904,4421.936165,-10049.854920
6113.730411,2584.248408,2297.109696,-8805.587168
6113.732984,-1263.410333,-3962.514226,-10624.132344
6113.735557,3349.951640,9092.725880,-8135.596840
6113.738129,2124.826469,-4096.512291,-11102.696864
6113.740702,-325.423874,4134.797453,-10107.282662
6113.743275,-229.710970,1263.410333,-9456.434915
6113.745847,2890.529701,2086.541307,-9111.868461
6113.748420,3675.375514,5302.494882,-8652.446522
6113.750992,1799.402595,-3503.092286,-11294.122672
6113.753565,-1454.836141,746.560651,-10222.138147
6113.756138,-918.843878,2124.826469,-9341.579430
6113.758710,3273.381317,-114.855485,-9743.573627
6113.761283,784.845813,2220.539373,-9399.007173
6113.763856,114.855485,459.421939,-9801.001370
6113.766428,918.843878,1263.410333,-9705.288466
6113.769001,1914.258080,1703.689691,-9456.434915
6113.771574,191.425808,1110.269686,-9820.143950
6113.774146,4632.504554,3751.945837,-8901.300072
6113.776719,3445.664544,1665.404530,-8939.585234
6113.779291,95.712904,-1378.265818,-11064.411702
6113.781864,995.414202,8173.882002,-8403.592971
6113.784437,1339.980656,-1512.263883,-9456.434915
6113.787009,-2737.389054,133.998066,-10222.138147
6113.789582,4345.365842,4421.936165,-8403.592971
6113.792155,-1895.115499,-10547.562021,-12519.247843
6113.794727,-1244.267752,5857.629725,-8595.018779
6113.797300,803.988394,-2009.970984,-9571.290400
6113.799873,-1014.556782,2182.254211,-9552.147819
6113.802445,-3560.520029,3445.664544,-9188.438784
6113.805018,3081.955509,-133.998066,-9877.571693
6113.807591,-38.285162,-2909.672282,-10681.560086
6113.810164,-2641.676150,0.000000,-10107.282662
6113.812736,76.570323,-191.425808,-9552.147819
6113.815309,-1627.119368,-555.134843,-9954.142016
6113.817882,-267.996131,191.425808,-9781.858789
6113.820455,2220.539373,1531.406464,-10126.425243
6113.823028,-842.273555,-689.132909,-10145.567824
6113.825601,-401.994197,535.992262,-8882.157491
6113.828174,-2182.254211,-1339.980656,-10202.995566
6113.830747,-2086.541307,-995.414202,-10241.280728
6113.833319,1263.410333,995.414202,-9475.577496
6113.835892,-2813.959378,-5436.492947,-10547.562021
6113.838465,-535.992262,0.000000,-9016.155557
6113.841038,-823.130974,306.281293,-9724.431046
6113.843611,2297.109696,4019.941968,-9360.722011
6113.846184,-2507.678085,-5111.069074,-11294.122672
6113.848757,650.847747,5647.061336,-8805.587168
6113.851330,5187.639397,6259.623922,-7599.604578
6113.853902,287.138712,-5493.920690,-11810.972354
6113.856475,-1205.982590,7331.608446,-8977.870395
6113.859048,2201.396792,1205.982590,-9552.147819
6113.861621,1627.119368,2392.822600,-9226.723946
6113.864194,3560.520029,1378.265818,-9207.581365
6113.866767,1895.115499,-1416.550979,-10585.847182
6113.869340,-421.136778,4709.074877,-9284.151688
6113.871913,727.418070,784.845813,-9647.860723
6113.874485,1895.115499,957.129040,-9801.001370
6113.877058,1856.830338,1569.691626,-9399.007173
6113.879631,1052.841944,899.701298,-9839.286531
6113.882204,689.132909,803.988394,-9973.284597
6113.884777,1875.972918,1512.263883,-9475.577496
6113.887350,95.712904,1378.265818,-9915.856854
6113.889923,4345.365842,3847.658741,-9341.579430
6113.892495,4517.649069,1665.404530,-9667.003304
6113.895068,-918.843878,1052.841944,-10222.138147
6113.897641,2354.537438,7925.028451,-8307.880067
6113.900214,1761.117434,172.283227,-9322.436850
6113.902787,-1493.121302,-1110.269686,-10528.419440
6113.905360,3617.947771,6163.911018,-8384.450390
6113.907933,-612.562586,-10681.560086,-11791.829773
6113.910506,-2967.100024,3579.662610,-9131.011042
6113.913079,669.990328,-842.273555,-9456.434915
6113.915652,-267.996131,1665.404530,-9877.571693
6113.918225,-3081.955509,2565.105827,-9399.007173
6113.920798,3120.240670,-3713.660675,-10241.280728
6113.923371,-1531.406464,-899.701298,-10528.419440
6113.925944,-3005.385186,-153.140646,-10241.280728
6113.928517,459.421939,-669.990328,-9743.573627
6113.931091,-1014.556782,287.138712,-9686.145885
6113.933664,-248.853550,0.000000,-9781.858789
6113.936237,2354.537438,1493.121302,-9877.571693
6113.938810,-899.701298,-1091.127106,-10145.567824
6113.941383,-612.562586,1225.125171,-9054.440718
6113.943956,-976.271621,-1895.115499,-10011.569758
6113.946529,-2469.392923,-976.271621,-10222.138147
6113.949102,-516.849682,1454.836141,-9667.003304
6113.951675,-1569.691626,-2431.107762,-9628.718142
6113.954248,689.132909,0.000000,-9475.577496
6113.956821,-1875.972918,-4613.361973,-10853.843314
6113.959394,593.420005,5359.922624,-9226.723946
6113.961968,3483.949706,555.134843,-9494.720077
6113.964541,-1359.123237,-2584.248408,-10528.419440
6113.967114,3866.801322,9207.581365,-7599.604578
6113.969687,1569.691626,-5245.067139,-11198.409768
6113.972260,-95.712904,995.414202,-10547.562021
6113.974833,-1052.841944,1110.269686,-9571.290400
6113.977406,3177.668413,976.271621,-9609.575562
6113.979979,4517.649069,6546.762634,-8250.452325
6113.982552,1110.269686,-2373.680019,-10547.562021
6113.985125,-1531.406464,2737.389054,-9647.860723
6113.987698,497.707101,1722.832272,-9494.720077
6113.990272,2182.254211,-593.420005,-10030.712339
6113.992845,650.847747,2488.535504,-9418.149754
6113.995418,1550.549045,1110.269686,-9667.003304
6113.997991,1971.685822,38.285162,-9743.573627
6114.000564,-937.986459,3158.525832,-9609.575562
6114.003137,5340.780043,2373.680019,-9513.862658
6114.005710,3809.373579,880.558717,-10145.567824
6114.008283,-1014.556782,5723.631659,-9265.009107
6114.010856,5206.781978,6106.483275,-8307.880067
6114.013430,-2182.254211,-2890.529701,-11160.124606
6114.016003,306.281293,5647.061336,-8977.870395
6114.018577,2143.969050,-5627.918755,-10796.415571
6114.021150,-1397.408398,-6010.770371,-11600.403965
6114.023723,574.277424,7465.606512,-7618.747158
6114.026297,133.998066,-4977.071008,-10432.706536
6114.028870,-2105.683888,2641.676150,-10030.712339
6114.031444,631.705166,-2182.254211,-10624.132344
6114.034017,-803.988394,-3866.801322,-10356.136213
6114.036591,-669.990328,4364.508422,-8403.592971
6114.039164,2660.818731,363.709035,-9590.432981
6114.041738,-2163.111630,-708.275490,-10222.138147
6114.044311,-2009.970984,-535.992262,-9877.571693
6114.046885,1588.834206,-1378.265818,-9801.001370
6114.049458,2124.826469,133.998066,-9915.856854
6114.052032,-2545.963246,306.281293,-10164.710405
6114.054605,957.129040,880.558717,-9284.151688
6114.057178,-1359.123237,-1780.260014,-9820.143950
6114.059752,-1875.972918,-1320.838075,-10222.138147
6114.062325,-937.986459,669.990328,-9647.860723
6114.064899,-1435.693560,-2833.101958,-10260.423309
6114.067472,669.990328,0.000000,-9647.860723
6114.070046,-2220.539373,-4555.934230,-10834.700733
6114.072619,459.421939,5704.489078,-9150.153622
6114.075193,4000.799387,421.136778,-9399.007173
6114.077766,-1875.972918,-2947.957443,-10624.132344
6114.080340,3847.658741,9418.149754,-7503.891674
6114.082913,3101.098090,-861.416136,-9743.573627
6114.085486,459.421939,1167.697429,-10279.565890
6114.088060,-1186.840010,1205.982590,-9552.147819
6114.090633,3464.807125,1033.699363,-9513.862658
6114.093207,4843.072942,5800.201982,-8422.735552
6114.095780,861.416136,-1914.258080,-10738.987829
6114.098354,-1225.125171,3158.525832,-9303.294269
6114.100927,516.849682,1339.980656,-9207.581365
6114.103501,2488.535504,325.423874,-10030.712339
6114.106074,784.845813,1205.982590,-9992.427178
6114.108648,727.418070,1416.550979,-9628.718142
6114.111221,2067.398726,421.136778,-9647.860723
6114.113795,-57.427742,1339.980656,-9896.714274
6114.116368,4077.369710,4364.508422,-9284.151688
6114.118941,5379.065205,1607.976787,-9992.427178
6114.121515,-1110.269686,727.418070,-10451.849117
6114.124088,2603.390989,9226.723946,-7848.458128
6114.126662,555.134843,-2986.242605,-10528.419440
6114.129235,-2373.680019,3905.086483,-9724.431046
6114.131808,4632.504554,-1167.697429,-8652.446522
6114.134382,-1722.832272,-11006.983960,-12174.681389
6114.136955,-2048.256146,4326.223261,-8595.018779
6114.139529,535.992262,-1722.832272,-9284.151688
6114.142102,-382.851616,2258.824534,-9877.571693
6114.144675,-2488.535504,2182.254211,-9686.145885
6114.147249,1933.400661,-4517.649069,-10356.136213
6114.149822,-1493.121302,57.427742,-9781.858789
6114.152396,478.564520,1722.832272,-9092.725880
6114.154969,-133.998066,76.570323,-9628.718142
6114.157542,-1052.841944,765.703232,-9647.860723
6114.160116,-248.853550,-191.425808,-9628.718142
6114.162689,1320.838075,1186.840010,-9705.288466
6114.165263,-229.710970,-631.705166,-9839.286531
6114.167836,-861.416136,229.710970,-9341.579430
6114.170410,-1722.832272,-842.273555,-9934.999435
6114.172983,918.843878,-708.275490,-10202.995566
6114.175556,-2565.105827,-3464.807125,-10413.563955
6114.178130,-2239.681954,153.140646,-9092.725880
6114.180703,-593.420005,1033.699363,-9437.292334
6114.183277,3024.527766,1971.685822,-9667.003304
6114.185850,-3311.666478,-4211.367776,-10968.698798
6114.188423,2009.970984,6795.616184,-8633.303941
6114.190997,6757.331022,-2009.970984,-9571.290400
6114.193570,-2813.959378,593.420005,-10470.991698
6114.196144,669.990328,6202.196179,-8307.880067
6114.198717,3905.086483,363.709035,-10241.280728
6114.201290,-1895.115499,612.562586,-10107.282662
6114.203864,2239.681954,-1033.699363,-9954.142016
6114.206437,3503.092286,2871.387120,-9724.431046
6114.209011,574.277424,1799.402595,-9801.001370
6114.211584,-1225.125171,210.568389,-10011.569758
6114.214158,784.845813,1875.972918,-9150.153622
6114.216731,1971.685822,-114.855485,-10011.569758
6114.219303,1263.410333,689.132909,-10126.425243
6114.221876,-918.843878,1665.404530,-9399.007173
6114.224450,1167.697429,727.418070,-9399.007173
6114.227023,4153.940034,2124.826469,-9475.577496
6114.229597,4000.799387,2488.535504,-9820.143950
6114.232170,-803.988394,2201.396792,-9781.858789
6114.234743,4479.363907,8441.878133,-8173.882002
6114.237317,-1799.402595,-2986.242605,-10796.415571
6114.239890,593.420005,4804.787781,-9188.438784
6114.242464,1339.980656,-4230.510357,-10241.280728
6114.245037,-1512.263883,-172.283227,-10356.136213
6114.247611,2124.826469,4364.508422,-8135.596840
6114.250184,-1473.978722,-6393.621987,-11217.552349
6114.252757,-2258.824534,2699.103893,-9341.579430
6114.255331,306.281293,-1033.699363,-10451.849117
6114.257904,-784.845813,-4498.506488,-10566.704602
6114.260478,-746.560651,4058.227130,-8518.448456
6114.263051,2641.676150,1263.410333,-9456.434915
6114.265625,-1263.410333,-497.707101,-10011.569758
6114.268198,-2239.681954,-210.568389,-9992.427178
6114.270771,1359.123237,-689.132909,-9973.284597
6114.273345,-133.998066,1339.980656,-9533.005238
6114.275918,-133.998066,899.701298,-9628.718142
6114.278492,-401.994197,-248.853550,-9456.434915
6114.281065,-1875.972918,-172.283227,-9667.003304
6114.283639,555.134843,-210.568389,-10011.569758
6114.286212,-2431.107762,-4670.789715,-10834.700733
6114.288785,-2411.965181,19.142581,-8901.300072
6114.291359,1301.695494,2086.541307,-9379.864592
6114.293932,2105.683888,-1454.836141,-10547.562021
6114.296506,-3101.098090,-1435.693560,-10413.563955
6114.299079,3694.518094,6604.190376,-8327.022648
6114.301653,2928.814862,-57.427742,-9073.583299
6114.304226,-2258.824534,-1148.554848,-10930.413637
6114.306799,-267.996131,7178.467800,-8269.594906
6114.309373,4728.217458,746.560651,-9820.143950
6114.311946,-918.843878,823.130974,-10049.854920
6114.314520,1818.545176,-1167.697429,-9954.142016
6114.317093,4632.504554,5053.641331,-8709.874264
6114.319667,535.992262,516.849682,-10317.851051
6114.322223,-1205.982590,1359.123237,-9820.143950
6114.324779,-516.849682,765.703232,-9265.009107
6114.327335,2201.396792,1397.408398,-9820.143950
6114.329891,2526.820666,-153.140646,-10260.423309
6114.332447,-1244.267752,1397.408398,-9379.864592
6114.335004,1493.121302,401.994197,-9360.722011
6114.337560,3579.662610,3101.098090,-9533.005238
6114.340116,4364.508422,2890.529701,-9839.286531
6114.342672,-267.996131,-440.279358,-10164.710405
6114.345228,2871.387120,9322.436850,-7886.743290
6114.347784,38.285162,-2297.109696,-10222.138147
6114.350341,-746.560651,4268.795518,-9590.432981
6114.352897,4019.941968,3254.238736,-8805.587168
6114.355453,-2124.826469,-10892.128475,-12500.105262
6114.358009,-306.281293,5321.637462,-8173.882002
6114.360565,-229.710970,-2641.676150,-9533.005238
6114.363122,-746.560651,2967.100024,-9877.571693
6114.365678,-1033.699363,612.562586,-10030.712339
6114.368234,363.709035,-5589.633594,-10853.843314
6114.370790,-1473.978722,2277.967115,-9226.723946
6114.373346,1895.115499,2105.683888,-9092.725880
6114.375902,1129.412267,95.712904,-9877.571693
6114.378459,-2316.252277,1225.125171,-9839.286531
6114.381015,382.851616,287.138712,-9513.862658
6114.383571,2086.541307,631.705166,-10049.854920
6114.386127,-1110.269686,-574.277424,-10145.567824
6114.388683,-1167.697429,459.421939,-9092.725880
6114.391239,-976.271621,-803.988394,-10126.425243
6114.393796,-631.705166,401.994197,-10183.852986
6114.396352,-1837.687757,-2756.531635,-9973.284597
6114.398908,344.566454,-2373.680019,-9839.286531
6114.401464,-2220.539373,-5340.780043,-11160.124606
6114.404020,516.849682,5742.774240,-9379.864592
6114.406577,4115.654872,440.279358,-9475.577496
6114.409133,-1895.115499,-2220.539373,-10624.132344
6114.411689,4096.512291,10643.274925,-7350.751027
6114.414245,1416.550979,-5187.639397,-11236.694930
6114.416801,-899.701298,3675.375514,-9724.431046
6114.419357,1167.697429,2297.109696,-9475.577496
6114.421914,3120.240670,1569.691626,-9533.005238
6114.424472,3866.801322,4268.795518,-8595.018779
6114.427030,918.843878,669.990328,-10375.278794
6114.429588,535.992262,2986.242605,-9360.722011
6114.432146,76.570323,-440.279358,-9896.714274
6114.434705,727.418070,976.271621,-9647.860723
6114.437263,2029.113565,1205.982590,-9686.145885
6114.439821,497.707101,-210.568389,-10451.849117
6114.442379,-861.416136,1569.691626,-9150.153622
6114.444937,4517.649069,2526.820666,-9150.153622
6114.447496,4287.938099,899.701298,-10164.710405
6114.450054,-880.558717,1531.406464,-9973.284597
6114.452612,3771.088418,9226.723946,-7829.315547
6114.455170,-325.423874,-2603.390989,-10719.845248
6114.457728,-57.427742,4287.938099,-9418.149754
6114.460286,344.566454,-4575.076811,-10470.991698
6114.462845,-1837.687757,-210.568389,-10528.419440
6114.465403,2124.826469,4173.082614,-8020.741355
6114.467961,-976.271621,-6393.621987,-11313.265253
6114.470519,-2756.531635,1588.834206,-9399.007173
6114.473077,-287.138712,-1703.689691,-10624.132344
6114.475636,-1435.693560,-5225.924558,-10930.413637
6114.478194,-1416.550979,4536.791650,-8422.735552
6114.480752,3330.809059,1263.410333,-9284.151688
6114.483310,-803.988394,-1531.406464,-10375.278794
6114.485868,-2354.537438,440.279358,-10068.997501
6114.488427,57.427742,-153.140646,-9647.860723
6114.490985,1301.695494,267.996131,-9934.999435
6114.493543,-689.132909,19.142581,-9915.856854
6114.496101,-1531.406464,-210.568389,-9552.147819
6114.498659,-1129.412267,-669.990328,-9762.716208
6114.501218,-1244.267752,-1014.556782,-10394.421374
6114.503776,-2009.970984,-1780.260014,-9934.999435
6114.506334,382.851616,-1607.976787,-9399.007173
6114.508892,-478.564520,-4938.785846,-11160.124606
6114.511450,-1129.412267,3656.232933,-9781.858789
6114.514009,3541.377448,3330.809059,-8633.303941
6114.516567,-1052.841944,-4402.793584,-11064.411702
6114.519125,2411.965181,10968.698798,-7637.889739
6114.521683,2947.957443,-3120.240670,-10432.706536
6114.524241,114.855485,1646.261949,-10279.565890
6114.526801,-95.712904,1646.261949,-9360.722011
6114.529362,4173.082614,1607.976787,-9322.436850
6114.531922,1895.115499,3483.949706,-8499.305875
6114.534482,459.421939,1550.549045,-10126.425243
6114.537042,631.705166,2469.392923,-9475.577496
6114.539602,1263.410333,-172.283227,-9571.290400
6114.542162,823.130974,382.851616,-9628.718142
6114.544722,1052.841944,1473.978722,-9973.284597
6114.547282,746.560651,593.420005,-10088.140082
6114.549842,1914.258080,727.418070,-8958.727814
6114.552403,2163.111630,3828.516160,-9188.438784
6114.554963,4881.358104,2718.246474,-9954.142016
6114.557523,2086.541307,-76.570323,-9954.142016
6114.560083,1339.980656,5321.637462,-9494.720077
6114.562643,478.564520,1512.263883,-9609.575562
6114.565203,-1741.974853,2565.105827,-9609.575562
6114.567763,3407.379382,2488.535504,-8863.014910
6114.570323,-2718.246474,-10796.415571,-12729.816232
6114.572883,114.855485,5264.209720,-8365.307810
6114.575444,-95.712904,-3369.094221,-9858.429112
6114.578004,-574.277424,2718.246474,-9513.862658
6114.580564,-1148.554848,497.707101,-9839.286531
6114.583124,1301.695494,-3081.955509,-10413.563955
6114.585684,-1110.269686,-2584.248408,-10375.278794
6114.588244,191.425808,1684.547110,-9226.723946
6114.590804,1244.267752,-650.847747,-9801.001370
6114.593364,-2641.676150,1282.552914,-9628.718142
6114.595925,306.281293,95.712904,-9533.005238
6114.598485,1301.695494,-612.562586,-10336.993632
6114.601045,-1320.838075,555.134843,-9820.143950
6114.603605,-1091.127106,-1722.832272,-9494.720077
6114.606165,459.421939,708.275490,-9858.429112
6114.608725,-2584.248408,-3847.658741,-10528.419440
6114.611285,-1033.699363,-2794.816797,-9820.143950
6114.613845,-1167.697429,1435.693560,-9475.577496
6114.616405,2986.242605,1071.984525,-9399.007173
6114.618966,-2584.248408,-3828.516160,-10892.128475
6114.621526,2392.822600,8135.596840,-8231.309744
6114.624086,6125.625856,-2431.107762,-10011.569758
6114.626646,-2852.244539,2641.676150,-10107.282662
6114.629191,-2143.969050,7350.751027,-8307.880067
6114.631735,5704.489078,2182.254211,-9322.436850
6114.634280,555.134843,574.277424,-10126.425243
6114.636825,937.986459,-325.423874,-9858.429112
6114.639369,5130.211654,3522.234867,-9169.296203
6114.641914,-535.992262,976.271621,-10413.563955
6114.644459,-976.271621,2163.111630,-9284.151688
6114.647004,1397.408398,114.855485,-9150.153622
6114.649548,689.132909,1186.840010,-10049.854920
6114.652093,1435.693560,1397.408398,-10126.425243
6114.654638,1914.258080,823.130974,-9245.866526
6114.657182,2258.824534,3790.230998,-8901.300072
6114.659727,4632.504554,2163.111630,-9590.432981
6114.662272,-669.990328,-38.285162,-10356.136213
6114.664817,4039.084549,10068.997501,-8231.309744
6114.667361,-76.570323,-1473.978722,-10413.563955
6114.669906,842.273555,3847.658741,-9284.151688
6114.672451,-1052.841944,-3981.656806,-10260.423309
6114.674995,-1435.693560,727.418070,-10049.854920
6114.677540,2335.394858,2565.105827,-8212.167163
6114.680085,-803.988394,-4536.791650,-10336.993632
6114.682630,-1014.556782,2526.820666,-9686.145885
6114.685174,-19.142581,-2029.113565,-10413.563955
6114.687719,-2507.678085,-4153.940034,-10987.841379
6114.690264,-727.418070,5455.635528,-8537.591037
6114.692808,3311.666478,19.142581,-9552.147819
6114.695353,-784.845813,-1244.267752,-10279.565890
6114.697898,-2890.529701,-1473.978722,-10030.712339
6114.700443,1665.404530,937.986459,-9533.005238
6114.702987,-38.285162,38.285162,-10394.421374
6114.705532,-95.712904,19.142581,-9934.999435
6114.708077,-1914.258080,-669.990328,-9322.436850
6114.710622,76.570323,957.129040,-9456.434915
6114.713166,-2890.529701,-5455.635528,-10968.698798
6114.715711,-3311.666478,-957.129040,-9839.286531
6114.718256,899.701298,1837.687757,-9111.868461
6114.720800,3196.810994,-2967.100024,-10375.278794
6114.723345,-3388.236802,-19.142581,-10088.140082
6114.725890,4019.941968,6853.043926,-7963.313613
6114.728435,7331.608446,-1339.980656,-9667.003304
6114.730983,-3024.527766,-516.849682,-10624.132344
6114.733531,133.998066,6910.471669,-8059.026517
6114.736080,5264.209720,995.414202,-9552.147819
6114.738628,-995.414202,229.710970,-10183.852986
6114.741177,1416.550979,-574.277424,-10241.280728
6114.743725,4785.645200,3503.092286,-9054.440718
6114.746274,-612.562586,2526.820666,-9934.999435
6114.748822,976.271621,976.271621,-9705.288466
6114.751371,1435.693560,1014.556782,-9016.155557
6114.753919,708.275490,899.701298,-10011.569758
6114.756468,57.427742,1378.265818,-10451.849117
6114.759016,2526.820666,1052.841944,-9437.292334
6114.761565,2507.678085,2622.533570,-9188.438784
6114.764113,3847.658741,3388.236802,-9494.720077
6114.766662,401.994197,-287.138712,-10126.425243
6114.769210,3407.379382,8729.016845,-8958.727814
6114.771759,421.136778,-267.996131,-10068.997501
6114.774307,-1110.269686,3311.666478,-9150.153622
6114.776855,2890.529701,248.853550,-9111.868461
6114.779404,-2909.672282,-8729.016845,-12232.109131
6114.781952,1550.549045,6336.194245,-8154.739421
6114.784501,-248.853550,-4077.369710,-10202.995566
6114.787049,-842.273555,2392.822600,-9571.290400
6114.789598,-631.705166,-1033.699363,-9858.429112
6114.792146,-2354.537438,-5225.924558,-11121.839445
6114.794695,-1014.556782,4670.789715,-8729.016845
6114.797243,3503.092286,861.416136,-9533.005238
6114.799792,957.129040,-440.279358,-9724.431046
6114.802340,-2469.392923,1531.406464,-9590.432981
6114.804889,1167.697429,-803.988394,-9705.288466
6114.807437,-95.712904,-172.283227,-10222.138147
6114.809986,-803.988394,803.988394,-9877.571693
6114.812534,-937.986459,-1531.406464,-9801.001370
6114.815083,-1282.552914,1263.410333,-9360.722011
6114.817631,-2603.390989,-3235.096155,-10107.282662
6114.820180,114.855485,-4173.082614,-10432.706536
6114.822728,-2909.672282,-4747.360038,-11294.122672
6114.825276,2354.537438,6757.331022,-8690.731683
6114.827825,3656.232933,-2947.957443,-10202.995566
6114.830373,-3254.238736,2679.961312,-9762.716208
6114.832908,5225.924558,8786.444587,-7618.747158
6114.835443,363.709035,-6853.043926,-12098.111066
6114.837978,-3005.385186,4862.215523,-9360.722011
6114.840513,5187.639397,2967.100024,-8863.014910
6114.843047,1684.547110,937.986459,-9571.290400
6114.845582,287.138712,1110.269686,-9628.718142
6114.848117,3196.810994,3388.236802,-9552.147819
6114.850652,516.849682,-382.851616,-10164.710405
6114.853186,-1071.984525,1033.699363,-9360.722011
6114.855721,2297.109696,1359.123237,-9073.583299
6114.858256,2182.254211,-210.568389,-10317.851051
6114.860791,-2124.826469,1071.984525,-10222.138147
6114.863326,4230.510357,3790.230998,-8652.446522
6114.865860,4000.799387,-191.425808,-9781.858789
6114.868395,-995.414202,4594.219392,-9207.581365
6114.870930,3751.945837,9322.436850,-8116.454259
6114.873465,1454.836141,-1627.119368,-11217.552349
6114.875999,153.140646,4039.084549,-9303.294269
6114.878534,-1895.115499,-3560.520029,-10145.567824
6114.881069,-516.849682,4421.936165,-9150.153622
6114.883604,2947.957443,-2660.818731,-9839.286531
6114.886139,-1761.117434,-4096.512291,-11408.978157
6114.888673,-1990.828403,-803.988394,-9609.575562
6114.891208,38.285162,-3024.527766,-10356.136213
6114.893743,-3656.232933,708.275490,-9915.856854
6114.896278,689.132909,5570.491013,-8537.591037
6114.898812,3081.955509,-2718.246474,-10451.849117
6114.901347,-2067.398726,-1052.841944,-10528.419440
6114.903882,-937.986459,-1167.697429,-9877.571693
6114.906417,1493.121302,1569.691626,-9150.153622
6114.908952,-114.855485,-57.427742,-10011.569758
6114.911486,-38.285162,727.418070,-9954.142016
6114.914021,-899.701298,-899.701298,-9494.720077
6114.916556,-1780.260014,612.562586,-9705.288466
6114.919091,-2239.681954,-3292.523898,-10202.995566
6114.921625,-153.140646,-3598.805190,-10241.280728
6114.924160,-2947.957443,-1129.412267,-10145.567824
6114.926695,4153.940034,3445.664544,-8824.729749
6114.929230,-1780.260014,-3885.943902,-10853.843314
6114.931765,-3388.236802,2526.820666,-9915.856854
6114.934305,5398.207786,8958.727814,-7599.604578
6114.936845,325.423874,-6259.623922,-11906.685258
6114.939385,-2890.529701,5302.494882,-9284.151688
6114.941925,5302.494882,2967.100024,-8843.872330
6114.944465,1665.404530,535.992262,-9762.716208
6114.947005,95.712904,1033.699363,-9915.856854
6114.949545,4134.797453,2009.970984,-9781.858789
6114.952085,114.855485,2297.109696,-10183.852986
6114.954624,-899.701298,612.562586,-9341.579430
6114.957164,1741.974853,1722.832272,-8824.729749
6114.959704,306.281293,957.129040,-10490.134278
6114.962244,1416.550979,650.847747,-10126.425243
6114.964784,1435.693560,3215.953574,-8958.727814
6114.967324,4326.223261,1990.828403,-9188.438784
6114.969864,-746.560651,957.129040,-9781.858789
6114.972404,4536.791650,7886.743290,-8614.161360
6114.974944,497.707101,-172.283227,-10815.558152
6114.977484,1339.980656,3790.230998,-9169.296203
6114.980024,-1435.693560,-4039.084549,-9934.999435
6114.982564,-2163.111630,-421.136778,-9954.142016
6114.985104,2699.103893,3330.809059,-8786.444587
6114.987644,-803.988394,-5915.057467,-11466.405899
6114.990184,-2086.541307,631.705166,-9571.290400
6114.992724,325.423874,-2871.387120,-10088.140082
6114.995264,-4096.512291,2469.392923,-9628.718142
6114.997804,1263.410333,4345.365842,-8537.591037
6115.000344,2124.826469,-3407.379382,-10068.997501
6115.002884,-1588.834206,-1225.125171,-10183.852986
6115.005424,-957.129040,-95.712904,-9628.718142
6115.007964,555.134843,-306.281293,-9992.427178
6115.010504,-1607.976787,1282.552914,-9858.429112
6115.013044,899.701298,-133.998066,-9954.142016
6115.015584,-210.568389,-746.560651,-9973.284597
6115.018124,-3579.662610,-153.140646,-9820.143950
6115.020664,-1741.974853,-2392.822600,-9781.858789
6115.023204,363.709035,-2277.967115,-10011.569758
6115.025744,-1971.685822,-5551.348432,-11447.263318
6115.028284,555.134843,5015.356170,-9399.007173
6115.030824,4153.940034,823.130974,-9284.151688
6115.033364,-2220.539373,-1588.834206,-10413.563955
6115.035909,3675.375514,12634.103328,-7350.751027
6115.038453,1933.400661,-4900.500685,-11313.265253
6115.040998,-1244.267752,1971.685822,-10030.712339
6115.043542,2277.967115,2565.105827,-9054.440718
6115.046087,3771.088418,708.275490,-9360.722011
6115.048631,-57.427742,2411.965181,-9265.009107
6115.051176,2354.537438,3158.525832,-9762.716208
6115.053720,1282.552914,38.285162,-9992.427178
6115.056264,-1588.834206,229.710970,-9494.720077
6115.058809,1914.258080,1569.691626,-8920.442653
6115.061353,823.130974,459.421939,-10413.563955
6115.063898,708.275490,1799.402595,-10107.282662
6115.066442,3847.658741,2679.961312,-8843.872330
6115.068987,3771.088418,1952.543242,-9533.005238
6115.071531,-382.851616,555.134843,-9858.429112
6115.074076,3751.945837,5474.778109,-9418.149754
6115.076620,803.988394,1052.841944,-10298.708470
6115.079164,-2067.398726,3292.523898,-9092.725880
6115.081709,2871.387120,2239.681954,-8729.016845
6115.084253,-3235.096155,-9877.571693,-12136.396227
6115.086798,421.136778,3981.656806,-8997.012976
6115.089342,133.998066,-3235.096155,-9934.999435
6115.091887,-746.560651,2335.394858,-9858.429112
6115.094431,-1320.838075,172.283227,-9456.434915
6115.096976,0.000000,-4402.793584,-10470.991698
6115.099520,-1129.412267,-593.420005,-10317.851051
6115.102064,1320.838075,2067.398726,-9418.149754
6115.104609,1339.980656,-555.134843,-9934.999435
6115.107153,-2526.820666,248.853550,-9609.575562
6115.109698,-38.285162,1014.556782,-9456.434915
6115.112242,1531.406464,-937.986459,-10413.563955
6115.114787,-1588.834206,248.853550,-9954.142016
6115.117331,-229.710970,1301.695494,-9226.723946
6115.119876,-3062.812928,-4804.787781,-10470.991698
6115.122420,-95.712904,-4173.082614,-10164.710405
6115.124965,-3120.240670,-1895.115499,-10183.852986
6115.127509,3483.949706,3866.801322,-9016.155557
6115.130053,-880.558717,-4249.652938,-10930.413637
6115.132598,-287.138712,7331.608446,-8709.874264
6115.135142,6412.764568,746.560651,-9054.440718
6115.137691,-2450.250342,-1569.691626,-11064.411702
6115.140239,57.427742,7293.323285,-8307.880067
6115.142787,5800.201982,784.845813,-9762.716208
6115.145335,-574.277424,574.277424,-9877.571693
6115.147884,-133.998066,1263.410333,-9686.145885
6115.150432,3081.955509,1378.265818,-9781.858789
6115.152980,899.701298,4077.369710,-9781.858789
6115.155528,1167.697429,-803.988394,-10107.282662
6115.158077,574.277424,1263.410333,-8614.161360
6115.160625,-669.990328,1378.265818,-9801.001370
6115.163173,3005.385186,784.845813,-10566.704602
6115.165722,1550.549045,2488.535504,-9418.149754
6115.168270,3751.945837,3809.373579,-8786.444587
6115.170818,1167.697429,76.570323,-9781.858789
6115.173366,3158.525832,6699.903280,-9111.868461
6115.175915,880.558717,1359.123237,-10030.712339
6115.178463,287.138712,3751.945837,-9322.436850
6115.181011,1416.550979,-1971.685822,-9379.864592
6115.183559,-2392.822600,-5302.494882,-11140.982026
6115.186108,2239.681954,5781.059402,-8173.882002
6115.188656,-114.855485,-4785.645200,-10700.702667
6115.191204,-1339.980656,1339.980656,-10068.997501
6115.193752,-784.845813,-2737.389054,-10451.849117
6115.196301,-2316.252277,-5551.348432,-11006.983960
6115.198849,-976.271621,3445.664544,-9188.438784
6115.201397,2986.242605,689.132909,-9628.718142
6115.203945,-38.285162,-1435.693560,-10336.993632
6115.206494,-2316.252277,1263.410333,-9609.575562
6115.209042,1627.119368,-306.281293,-9533.005238
6115.211590,-1416.550979,-267.996131,-10049.854920
6115.214139,-497.707101,765.703232,-9743.573627
6115.216687,574.277424,287.138712,-9590.432981
6115.219235,-2737.389054,-3101.098090,-10336.993632
6115.221783,-708.275490,-3177.668413,-9705.288466
6115.224332,-3043.670347,-3254.238736,-10509.276859
6115.226880,3369.094221,4115.654872,-8997.012976
6115.229428,-325.423874,-4479.363907,-10987.841379
6115.231976,19.142581,7006.184573,-8882.157491
6115.234525,5857.629725,191.425808,-9150.153622
6115.237073,-2163.111630,-765.703232,-10815.558152
6115.239616,-478.564520,6738.188442,-8346.165229
6115.242167,6202.196179,3349.951640,-8786.444587
6115.244719,2124.826469,-593.420005,-9915.856854
6115.247271,-765.703232,976.271621,-9628.718142
6115.249823,3101.098090,1914.258080,-9456.434915
6115.252374,1703.689691,3369.094221,-9896.714274
6115.254926,114.855485,497.707101,-10030.712339
6115.257478,861.416136,708.275490,-8671.589102
6115.260030,382.851616,1397.408398,-9667.003304
6115.262581,1263.410333,1033.699363,-10624.132344
6115.265133,3062.812928,3081.955509,-9437.292334
6115.267685,3388.236802,1952.543242,-9399.007173
6115.270237,1148.554848,631.705166,-9552.147819
6115.272788,2622.533570,5513.063270,-9341.579430
6115.275340,574.277424,1646.261949,-10145.567824
6115.277892,-1741.974853,3541.377448,-9322.436850
6115.280444,2833.101958,1761.117434,-8824.729749
6115.282995,-3101.098090,-9360.722011,-11944.970419
6115.285547,957.129040,3943.371645,-8595.018779
6115.288099,114.855485,-2947.957443,-10049.854920
6115.290651,-191.425808,1588.834206,-9896.714274
6115.293202,-2048.256146,3828.516160,-8499.305875
6115.295754,-918.843878,-5130.211654,-10681.560086
6115.298306,-957.129040,497.707101,-9762.716208
6115.300858,1473.978722,1378.265818,-9609.575562
6115.303410,1244.267752,210.568389,-10126.425243
6115.305961,-1052.841944,1091.127106,-9322.436850
6115.308513,-555.134843,727.418070,-9552.147819
6115.311065,880.558717,133.998066,-10011.569758
6115.313617,497.707101,153.140646,-9877.571693
6115.316168,-3732.803256,-2756.531635,-10279.565890
6115.318720,-3483.949706,-1263.410333,-9533.005238
6115.321272,976.271621,-38.285162,-8901.300072
6115.323824,-1875.972918,-6336.194245,-11332.407834
6115.326375,535.992262,5015.356170,-9475.577496
6115.328927,3177.668413,5857.629725,-8288.737486
6115.331479,248.853550,-4938.785846,-10949.556218
6115.334031,-287.138712,9954.142016,-8059.026517
6115.336582,3254.238736,-114.855485,-9801.001370
6115.339134,2067.398726,-1071.984525,-10681.560086
6115.341689,-421.136778,2163.111630,-9322.436850
6115.344244,4555.934230,191.425808,-9341.579430
6115.346799,-114.855485,2794.816797,-9207.581365
6115.349354,1033.699363,2239.681954,-9743.573627
6115.351909,2833.101958,2067.398726,-10011.569758
6115.354464,19.142581,-1244.267752,-10030.712339
6115.357019,95.712904,1397.408398,-8805.587168
6115.359574,1971.685822,650.847747,-10164.710405
6115.362129,1627.119368,2105.683888,-9954.142016
6115.364684,3962.514226,3579.662610,-8939.585234
6115.367239,899.701298,440.279358,-9896.714274
6115.369794,3732.803256,7063.612315,-8805.587168
6115.372349,612.562586,535.992262,-10107.282662
6115.374904,1473.978722,3694.518094,-9609.575562
6115.377460,1627.119368,-1282.552914,-9418.149754
6115.380015,-2737.389054,-5436.492947,-11236.694930
6115.382570,2163.111630,5627.918755,-8116.454259
6115.385125,267.996131,-4613.361973,-10432.706536
6115.387680,-1378.265818,1627.119368,-9858.429112
6115.390235,-1282.552914,-3330.809059,-10911.271056
6115.392790,-3292.523898,-19.142581,-9954.142016
6115.395345,842.273555,5091.926493,-8078.169098
6115.397900,2794.816797,-3043.670347,-10681.560086
6115.400455,-1684.547110,-593.420005,-10413.563955
6115.403010,-2603.390989,1607.976787,-9533.005238
6115.405565,2297.109696,-229.710970,-9513.862658
6115.408120,-1148.554848,-593.420005,-10164.710405
6115.410675,459.421939,1627.119368,-9513.862658
6115.413230,-2086.541307,-2737.389054,-10241.280728
6115.415785,-3751.945837,-1588.834206,-9801.001370
6115.418340,172.283227,-976.271621,-9322.436850
6115.420895,-3713.660675,-6814.758765,-11428.120738
6115.423453,2431.107762,6144.768437,-8499.305875
6115.426010,5072.783912,727.418070,-9265.009107
6115.428568,-1071.984525,-1646.261949,-10662.417506
6115.431126,2067.398726,12289.536874,-7063.612315
6115.433684,2086.541307,-4307.080680,-11006.983960
6115.436241,-2297.109696,2565.105827,-9973.284597
6115.438799,3790.230998,3483.949706,-9035.298138
6115.441357,3981.656806,-880.558717,-9743.573627
6115.443915,-1301.695494,2086.541307,-9456.434915
6115.446472,1990.828403,1703.689691,-9667.003304
6115.449030,2794.816797,1416.550979,-9724.431046
6115.451588,-191.425808,0.000000,-9954.142016
6115.454146,459.421939,1091.127106,-8901.300072
6115.456703,1397.408398,1531.406464,-9839.286531
6115.459261,1799.402595,1684.547110,-10260.423309
6115.461819,3809.373579,3215.953574,-9265.009107
6115.464377,363.709035,1129.412267,-9513.862658
6115.466934,4326.223261,6661.618118,-8690.731683
6115.469492,823.130974,267.996131,-10604.989763
6115.472050,1052.841944,4019.941968,-9571.290400
6115.474608,708.275490,-2411.965181,-9705.288466
6115.477165,-2431.107762,-3962.514226,-10834.700733
6115.479723,2411.965181,5111.069074,-8039.883936
6115.482281,133.998066,-5570.491013,-10930.413637
6115.484839,-1722.832272,1167.697429,-9973.284597
6115.487396,-1378.265818,-3005.385186,-10815.558152
6115.489954,-3503.092286,1339.980656,-9839.286531
6115.492512,1205.982590,3962.514226,-8059.026517
6115.495070,2450.250342,-3101.098090,-10585.847182
6115.497627,-1512.263883,191.425808,-10394.421374
6115.500185,-1741.974853,861.416136,-9820.143950
6115.502743,344.566454,421.136778,-9609.575562
6115.505301,-382.851616,-57.427742,-9954.142016
6115.507858,1244.267752,382.851616,-9781.858789
6115.510416,-3196.810994,-2488.535504,-10260.423309
6115.512974,-4058.227130,-1359.123237,-9801.001370
6115.515532,1167.697429,-287.138712,-9226.723946
6115.518089,-3292.523898,-6680.760699,-11179.267187
6115.520647,1531.406464,5379.065205,-8767.302006
6115.523205,3924.229064,3541.377448,-8671.589102
6115.525765,-689.132909,-3445.664544,-10930.413637
6115.528325,1531.406464,12461.820101,-7637.889739
6115.530885,2794.816797,-2048.256146,-10260.423309
6115.533445,95.712904,76.570323,-10336.993632
6115.536005,1244.267752,2813.959378,-9322.436850
6115.538565,5072.783912,95.712904,-9494.720077
6115.541125,-727.418070,1971.685822,-9533.005238
6115.543685,746.560651,2009.970984,-9743.573627
6115.546245,2297.109696,1416.550979,-9705.288466
6115.548805,612.562586,153.140646,-9896.714274
6115.551365,669.990328,1416.550979,-9131.011042
6115.553925,1531.406464,823.130974,-9973.284597
6115.556485,1875.972918,3215.953574,-9839.286531
6115.559045,4134.797453,2392.822600,-9284.151688
6115.561605,1435.693560,-210.568389,-9762.716208
6115.564165,2143.969050,6202.196179,-9054.440718
6115.566725,2009.970984,1837.687757,-9877.571693
6115.569284,-287.138712,4383.651003,-9513.862658
6115.571844,2488.535504,3503.092286,-8901.300072
6115.574404,-3445.664544,-10375.278794,-11849.257515
6115.576964,459.421939,2928.814862,-8920.442653
6115.579524,382.851616,-3081.955509,-9973.284597
6115.582084,-401.994197,2928.814862,-9743.573627
6115.584644,-2258.824534,325.423874,-9628.718142
6115.587204,-2947.957443,-4766.502619,-11064.411702
6115.589764,95.712904,4019.941968,-8652.446522
6115.592324,3560.520029,-1339.980656,-10011.569758
6115.594884,1799.402595,-535.992262,-10279.565890
6115.597444,-2718.246474,784.845813,-9513.862658
6115.600004,-114.855485,861.416136,-9552.147819
6115.602564,1416.550979,-727.418070,-10049.854920
6115.605124,-2163.111630,650.847747,-9858.429112
6115.607684,-2565.105827,-2029.113565,-10107.282662
6115.610244,-1416.550979,-4441.078746,-10279.565890
6115.612804,-2718.246474,57.427742,-9609.575562
6115.615364,2794.816797,-1301.695494,-9590.432981
6115.617924,-1263.410333,-2239.681954,-10796.415571
6115.620484,459.421939,6872.186507,-9073.583299
6115.623044,5915.057467,1263.410333,-9360.722011
6115.625604,-2143.969050,-248.853550,-10528.419440
6115.628166,-823.130974,7255.038123,-8154.739421
6115.630727,6087.340694,382.851616,-9686.145885
6115.633289,-344.566454,-1110.269686,-10394.421374
6115.635851,1225.125171,937.986459,-9667.003304
6115.638413,3235.096155,1665.404530,-9379.864592
6115.640975,-669.990328,3598.805190,-9647.860723
6115.643536,1933.400661,1895.115499,-9705.288466
6115.646098,1741.974853,-76.570323,-9188.438784
6115.648660,669.990328,1741.974853,-9667.003304
6115.651222,2182.254211,1397.408398,-10413.563955
6115.653784,3196.810994,3101.098090,-9552.147819
6115.656345,918.843878,1378.265818,-9418.149754
6115.658907,4670.789715,6010.770371,-8824.729749
6115.661469,650.847747,1378.265818,-10088.140082
6115.664031,1205.982590,3732.803256,-9609.575562
6115.666592,-2584.248408,-3503.092286,-10738.987829
6115.669154,-2699.103893,-3043.670347,-10624.132344
6115.671716,3024.527766,4326.223261,-8154.739421
6115.674278,363.709035,-5819.344563,-10968.698798
6115.676840,-2220.539373,746.560651,-9877.571693
6115.679401,-1129.412267,-2622.533570,-10777.272990
6115.681963,-3541.377448,2431.107762,-9743.573627
6115.684525,880.558717,2029.113565,-8556.733618
6115.687087,1263.410333,-2545.963246,-10394.421374
6115.689649,-1263.410333,650.847747,-9992.427178
6115.692210,-957.129040,1033.699363,-9877.571693
6115.694772,1071.984525,172.283227,-9609.575562
6115.697334,-1588.834206,95.712904,-9896.714274
6115.699896,-57.427742,784.845813,-9667.003304
6115.702458,-2029.113565,-2813.959378,-10107.282662
6115.705019,-4230.510357,-3675.375514,-10317.851051
6115.707581,-497.707101,1914.258080,-9418.149754
6115.710143,1186.840010,-4307.080680,-10547.562021
6115.712705,-2009.970984,-57.427742,-10336.993632
6115.715266,3617.947771,5513.063270,-8154.739421
6115.717828,4555.934230,-2354.537438,-10279.565890
6115.720390,-2794.816797,4287.938099,-10088.140082
6115.722952,1167.697429,5340.780043,-8307.880067
6115.725514,4766.502619,-1569.691626,-10107.282662
6115.728075,267.996131,-2048.256146,-10624.132344
6115.730639,248.853550,1435.693560,-9552.147819
6115.733202,3713.660675,1512.263883,-9494.720077
6115.735766,-1205.982590,2871.387120,-9992.427178
6115.738329,2163.111630,2679.961312,-9207.581365
6115.740893,2277.967115,-727.418070,-9590.432981
6115.743456,-1359.123237,1722.832272,-9590.432981
6115.746020,3215.953574,1282.552914,-9915.856854
6115.748583,3235.096155,2603.390989,-9724.431046
6115.751147,382.851616,976.271621,-9628.718142
6115.753710,4019.941968,6910.471669,-8461.020714
6115.756274,1799.402595,784.845813,-10317.851051
6115.758837,133.998066,5838.487144,-9226.723946
6115.761401,-57.427742,-2584.248408,-9820.143950
6115.763964,-2354.537438,-3388.236802,-10585.847182
6115.766528,2584.248408,3943.371645,-8173.882002
6115.769091,535.992262,-5398.207786,-10853.843314
6115.771655,-2048.256146,631.705166,-10049.854920
6115.774218,-1186.840010,-1971.685822,-10700.702667
6115.776782,-2967.100024,-2431.107762,-10470.991698
6115.779345,535.992262,3541.377448,-8595.018779
6115.781909,2775.674216,-2201.396792,-10183.852986
6115.784472,-497.707101,38.285162,-10222.138147
6115.787036,-1244.267752,631.705166,-9992.427178
6115.789599,172.283227,306.281293,-9552.147819
6115.792163,-191.425808,382.851616,-9609.575562
6115.794726,-1531.406464,-382.851616,-10164.710405
6115.797290,-2431.107762,-1416.550979,-9801.001370
6115.799853,-1282.552914,-2699.103893,-9915.856854
6115.802417,-4498.506488,-5455.635528,-11179.267187
6115.804980,1282.552914,5264.209720,-8135.596840
6115.807544,1339.980656,-4383.651003,-10509.276859
6115.810107,191.425808,6508.477472,-9360.722011
6115.812671,5857.629725,2718.246474,-9016.155557
6115.815234,-1895.115499,-1014.556782,-11045.269122
6115.817798,-1378.265818,7293.323285,-8059.026517
6115.820361,6221.338760,344.566454,-9341.579430
6115.822925,-133.998066,-1703.689691,-10566.704602
6115.825488,-803.988394,1875.972918,-9571.290400
6115.828052,3101.098090,1244.267752,-9475.577496
6115.830615,153.140646,2469.392923,-10030.712339
6115.833180,1282.552914,1703.689691,-9341.579430
6115.835745,1416.550979,-650.847747,-9188.438784
6115.838310,497.707101,3235.096155,-9571.290400
6115.840875,3081.955509,-133.998066,-10336.993632
6115.843440,1990.828403,3732.803256,-9284.151688
6115.846005,1971.685822,2124.826469,-9131.011042
6115.848570,4383.651003,3215.953574,-9686.145885
6115.851136,-421.136778,2641.676150,-9915.856854
6115.853701,-2373.680019,4249.652938,-8709.874264
6115.856266,2737.389054,2201.396792,-9341.579430
6115.858831,-3771.088418,-9762.716208,-11734.402030
6115.861396,1359.123237,2507.678085,-8882.157491
6115.863961,631.705166,-4115.654872,-9896.714274
6115.866526,-1320.838075,3196.810994,-9820.143950
6115.869091,-2163.111630,555.134843,-9609.575562
6115.871656,-2986.242605,-3828.516160,-10892.128475
6115.874221,-114.855485,1914.258080,-9207.581365
6115.876786,2277.967115,76.570323,-9552.147819
6115.879351,650.847747,-1244.267752,-10738.987829
6115.881916,-2488.535504,2182.254211,-9475.577496
6115.884481,1416.550979,133.998066,-9628.718142
6115.887046,478.564520,382.851616,-9992.427178
6115.889611,-3656.232933,-1703.689691,-9934.999435
6115.892176,-3388.236802,-2277.967115,-10030.712339
6115.894742,1129.412267,1531.406464,-9418.149754
6115.897307,-478.564520,-5053.641331,-10509.276859
6115.899872,-1818.545176,574.277424,-10202.995566
6115.902437,3809.373579,4077.369710,-8441.878133
6115.905002,1014.556782,-3866.801322,-11064.411702
6115.907567,689.132909,11638.689126,-8250.452325
6115.910132,2622.533570,-880.558717,-10011.569758
6115.912697,114.855485,-191.425808,-10107.282662
6115.915262,1148.554848,3656.232933,-9054.440718
6115.917827,5570.491013,-1339.980656,-9762.716208
6115.920392,-1014.556782,1837.687757,-9628.718142
6115.922957,-1607.976787,3617.947771,-9552.147819
6115.925522,3369.094221,1627.119368,-9590.432981
6115.928087,784.845813,-38.285162,-9934.999435
6115.930652,497.707101,1895.115499,-9016.155557
6115.933217,3005.385186,918.843878,-9839.286531
6115.935767,2354.537438,3215.953574,-10049.854920
6115.938316,918.843878,689.132909,-9686.145885
6115.940865,4804.787781,6661.618118,-8499.305875
6115.943415,1186.840010,2009.970984,-9858.429112
6115.945964,-382.851616,5149.354235,-9073.583299
6115.948513,-344.566454,-2277.967115,-10049.854920
6115.951062,-3120.240670,-4211.367776,-10930.413637
6115.953612,3062.812928,4268.795518,-8173.882002
6115.956161,497.707101,-5627.918755,-10662.417506
6115.958710,-2124.826469,401.994197,-10049.854920
6115.961260,-1607.976787,-2067.398726,-10470.991698
6115.963809,-2507.678085,2450.250342,-10068.997501
6115.966358,267.996131,1282.552914,-8901.300072
6115.968907,880.558717,-1569.691626,-10068.997501
6115.971457,-1205.982590,114.855485,-10241.280728
6115.974006,-650.847747,976.271621,-10049.854920
6115.976555,937.986459,-650.847747,-9915.856854
6115.979105,-1033.699363,1244.267752,-9647.860723
6115.981654,-2220.539373,-2354.537438,-10279.565890
6115.984203,-2871.387120,-1339.980656,-9705.288466
6115.986752,133.998066,-746.560651,-9571.290400
6115.989302,-3503.092286,-6929.614250,-11332.407834
6115.991851,267.996131,5034.498750,-8384.450390
6115.994400,2718.246474,-3962.514226,-9590.432981
6115.996950,133.998066,-918.843878,-10604.989763
6115.999499,2833.101958,12040.683323,-7369.893608
6116.002048,1033.699363,-4077.369710,-11274.980091
6116.004597,-2679.961312,3522.234867,-9399.007173
6116.007147,4651.647134,4096.512291,-8575.876198
6116.009696,3713.660675,-2584.248408,-10566.704602
6116.012245,-1167.697429,2239.681954,-9647.860723
6116.014795,1799.402595,1914.258080,-9322.436850
6116.017344,516.849682,229.710970,-9934.999435
6116.019893,57.427742,2431.107762,-9265.009107
6116.022442,2431.107762,803.988394,-9284.151688
6116.024992,1301.695494,1569.691626,-10049.854920
6116.027541,2431.107762,3407.379382,-9590.432981
6116.030090,1780.260014,-689.132909,-10030.712339
6116.032639,4077.369710,8212.167163,-8441.878133
6116.035189,2316.252277,2392.822600,-9609.575562
6116.037741,1895.115499,3081.955509,-9877.571693
6116.040294,-4000.799387,-1952.543242,-10394.421374
6116.042846,-3177.668413,-3445.664544,-10834.700733
6116.045399,3694.518094,3656.232933,-8441.878133
6116.047951,114.855485,-5972.485210,-10796.415571
6116.050504,-2373.680019,382.851616,-10030.712339
6116.053056,-1607.976787,-1933.400661,-10566.704602
6116.055609,-2584.248408,2756.531635,-9954.142016
6116.058161,363.709035,727.418070,-9131.011042
6116.060714,1129.412267,-899.701298,-9858.429112
6116.063266,-497.707101,-574.277424,-9954.142016
6116.065819,823.130974,344.566454,-9915.856854
6116.068371,765.703232,-880.558717,-10107.282662
6116.070924,-1665.404530,1646.261949,-9265.009107
6116.073476,-612.562586,-2450.250342,-10011.569758
6116.076029,-4345.365842,-2584.248408,-10049.854920
6116.078581,38.285162,2699.103893,-9054.440718
6116.081134,-2813.959378,-8307.880067,-11485.548480
6116.083686,-612.562586,3924.229064,-9016.155557
6116.086239,5340.780043,-2316.252277,-9686.145885
6116.088791,267.996131,1129.412267,-10222.138147
6116.091344,1071.984525,12021.540742,-8078.169098
6116.093896,2067.398726,-1033.699363,-10298.708470
6116.096449,-191.425808,1014.556782,-9724.431046
6116.099001,1971.685822,3675.375514,-8958.727814
6116.101554,5513.063270,-2507.678085,-10279.565890
6116.104106,-746.560651,2354.537438,-9513.862658
6116.106659,248.853550,2450.250342,-9475.577496
6116.109211,2718.246474,1473.978722,-9973.284597
6116.111764,-363.709035,1014.556782,-9762.716208
6116.114316,2067.398726,1550.549045,-8805.587168
6116.116869,3120.240670,1148.554848,-10068.997501
6116.119421,1665.404530,3024.527766,-10011.569758
6116.121974,2507.678085,1397.408398,-9341.579430
6116.124526,3598.805190,4364.508422,-9322.436850
6116.127079,1607.976787,3771.088418,-9552.147819
6116.129631,1110.269686,5072.783912,-9188.438784
6116.132184,-823.130974,-1665.404530,-9992.427178
6116.134736,-3407.379382,-4843.072942,-10987.841379
6116.137289,3924.229064,3732.803256,-8154.739421
6116.139844,287.138712,-4421.936165,-9896.714274
6116.142400,-1473.978722,2909.672282,-9954.142016
6116.144955,-2373.680019,363.709035,-9781.858789
6116.147511,-2392.822600,-2201.396792,-10815.558152
6116.150066,363.709035,1837.687757,-8997.012976
6116.152622,2067.398726,-1052.841944,-9552.147819
6116.155177,0.000000,-1186.840010,-10738.987829
6116.157733,-2756.531635,2258.824534,-9628.718142
6116.160288,2986.242605,421.136778,-9475.577496
6116.162844,-2450.250342,-2048.256146,-10145.567824
6116.165399,-3043.670347,363.709035,-9475.577496
6116.167955,-248.853550,-4173.082614,-10049.854920
6116.170510,-3388.236802,-1761.117434,-10681.560086
6116.173066,95.712904,344.566454,-9073.583299
6116.175621,-861.416136,-3196.810994,-10356.136213
6116.178177,2584.248408,6317.051664,-9035.298138
6116.180732,5417.350366,1895.115499,-9245.866526
6116.183288,-1722.832272,880.558717,-10853.843314
6116.185843,-1110.269686,7178.467800,-8231.309744
6116.188399,5953.342629,-153.140646,-9437.292334
6116.190954,-612.562586,-1110.269686,-10222.138147
6116.193510,2143.969050,1627.119368,-9724.431046
6116.196065,2775.674216,1091.127106,-9705.288466
6116.198621,-2029.113565,3177.668413,-9839.286531
6116.201176,421.136778,2603.390989,-9207.581365
6116.203732,3713.660675,95.712904,-9150.153622
6116.206287,-210.568389,918.843878,-10030.712339
6116.208843,2603.390989,3120.240670,-9743.573627
6116.211398,1244.267752,-267.996131,-10088.140082
6116.213954,4498.506488,8231.309744,-8365.307810
6116.216509,2699.103893,1512.263883,-9801.001370
6116.219065,1837.687757,3330.809059,-9609.575562
6116.221620,-3828.516160,-1397.408398,-10528.419440
6116.224176,-3503.092286,-937.986459,-10241.280728
6116.226731,3579.662610,1703.689691,-8671.589102
6116.229287,746.560651,-6661.618118,-11160.124606
6116.231842,-3177.668413,-995.414202,-9801.001370
6116.234398,-1397.408398,-1263.410333,-10336.993632
6116.236953,-2029.113565,4192.225195,-9801.001370
6116.239509,-478.564520,-478.564520,-9533.005238
6116.242068,669.990328,727.418070,-9418.149754
6116.244626,1301.695494,-784.845813,-9954.142016
6116.247184,133.998066,-248.853550,-10298.708470
6116.249743,555.134843,76.570323,-9954.142016
6116.252301,-2067.398726,497.707101,-9494.720077
6116.254859,-440.279358,-2163.111630,-9915.856854
6116.257417,-3598.805190,-3349.951640,-10107.282662
6116.259976,-1569.691626,2411.965181,-9399.007173
6116.262534,-803.988394,-5627.918755,-10738.987829
6116.265092,-1339.980656,593.420005,-10183.852986
6116.267651,3828.516160,1933.400661,-8958.727814
6116.270209,1799.402595,-2584.248408,-10758.130410
6116.272767,1914.258080,12308.679454,-9245.866526
6116.275325,1837.687757,3196.810994,-9035.298138
6116.277884,3101.098090,-1397.408398,-10241.280728
6116.280442,-650.847747,2392.822600,-9379.864592
6116.283000,5895.914886,-727.418070,-9686.145885
6116.285558,191.425808,1033.699363,-9667.003304
6116.288117,-957.129040,3273.381317,-9686.145885
6116.290675,3024.527766,248.853550,-9992.427178
6116.293233,-153.140646,842.273555,-9667.003304
6116.295791,1990.828403,2813.959378,-8671.589102
6116.298350,3847.658741,631.705166,-10145.567824
6116.300908,-803.988394,1205.982590,-10088.140082
