#time,accel_x,accel_y,accel_z
3211.531107,497.707101,1627.119368,-9839.286531
3211.533686,229.710970,593.420005,-9705.288466
3211.536264,325.423874,172.283227,-9820.143950
3211.538843,784.845813,1435.693560,-9896.714274
3211.541422,669.990328,842.273555,-10241.280728
3211.544001,1933.400661,421.136778,-9839.286531
3211.546580,-229.710970,191.425808,-9667.003304
3211.549158,-363.709035,1071.984525,-9781.858789
3211.551737,1014.556782,1052.841944,-10049.854920
3211.554316,2029.113565,1454.836141,-9552.147819
3211.556895,-574.277424,1148.554848,-9533.005238
3211.559473,1665.404530,1569.691626,-9475.577496
3211.562052,2603.390989,2048.256146,-9686.145885
3211.564631,2143.969050,2622.533570,-9801.001370
3211.567210,-114.855485,2067.398726,-9762.716208
3211.569789,-1186.840010,-708.275490,-9954.142016
3211.572367,-306.281293,-1971.685822,-10279.565890
3211.574946,918.843878,842.273555,-9781.858789
3211.577525,1952.543242,-210.568389,-9609.575562
3211.580104,-3311.666478,-1875.972918,-10164.710405
3211.582683,-459.421939,2277.967115,-9379.864592
3211.585261,2220.539373,-650.847747,-10356.136213
3211.587840,937.986459,2124.826469,-9934.999435
3211.590419,1454.836141,1397.408398,-9111.868461
3211.592998,-555.134843,-57.427742,-9858.429112
3211.595576,-1665.404530,593.420005,-10317.851051
3211.598155,937.986459,-267.996131,-10030.712339
3211.600734,899.701298,-153.140646,-10049.854920
3211.603313,746.560651,1033.699363,-9322.436850
3211.605892,267.996131,172.283227,-9954.142016
3211.608470,-306.281293,669.990328,-10164.710405
3211.611049,516.849682,1091.127106,-9858.429112
3211.613628,803.988394,306.281293,-10030.712339
3211.616207,248.853550,631.705166,-9628.718142
3211.618786,-153.140646,1052.841944,-9724.431046
3211.621364,248.853550,976.271621,-10107.282662
3211.623943,784.845813,0.000000,-10279.565890
3211.626522,-1091.127106,727.418070,-9992.427178
3211.629100,-382.851616,459.421939,-9781.858789
3211.631679,708.275490,-133.998066,-9877.571693
3211.634257,2067.398726,765.703232,-10011.569758
3211.636835,-114.855485,880.558717,-10394.421374
3211.639414,-267.996131,1914.258080,-9705.288466
3211.641992,-1856.830338,-1741.974853,-9839.286531
3211.644570,191.425808,153.140646,-10030.712339
3211.647149,3292.523898,3790.230998,-9667.003304
3211.649727,746.560651,-1416.550979,-10509.276859
3211.652305,-3885.943902,-708.275490,-10126.425243
3211.654883,2488.535504,3407.379382,-8671.589102
3211.657462,497.707101,-3866.801322,-11313.265253
3211.660040,401.994197,4594.219392,-8997.012976
3211.662618,4900.500685,708.275490,-9399.007173
3211.665197,-2316.252277,-1588.834206,-11274.980091
3211.667775,-3215.953574,4938.785846,-8537.591037
3211.670353,2622.533570,-306.281293,-9456.434915
3211.672932,3541.377448,1703.689691,-10336.993632
3211.675510,401.994197,-114.855485,-10049.854920
3211.678088,-823.130974,612.562586,-9934.999435
3211.680667,-401.994197,1282.552914,-9016.155557
3211.683245,153.140646,-1129.412267,-10279.565890
3211.685823,3273.381317,3483.949706,-9839.286531
3211.688402,2507.678085,1512.263883,-10183.852986
3211.690980,-727.418070,1052.841944,-9762.716208
3211.693558,-746.560651,478.564520,-8901.300072
3211.696137,172.283227,-363.709035,-10068.997501
3211.698715,1607.976787,401.994197,-10758.130410
3211.701293,2450.250342,1665.404530,-10030.712339
3211.703872,-650.847747,1244.267752,-9781.858789
3211.706450,689.132909,1722.832272,-8958.727814
3211.709028,516.849682,363.709035,-9781.858789
3211.711606,727.418070,459.421939,-10662.417506
3211.714184,612.562586,1531.406464,-10126.425243
3211.716762,-344.566454,574.277424,-9954.142016
3211.719340,1607.976787,650.847747,-9150.153622
3211.721919,555.134843,880.558717,-9571.290400
3211.724497,918.843878,1378.265818,-10470.991698
3211.727075,1416.550979,1225.125171,-9992.427178
3211.729653,114.855485,-976.271621,-9954.142016
3211.732231,708.275490,2928.814862,-9073.583299
3211.734809,3062.812928,1684.547110,-9609.575562
3211.737387,1588.834206,1186.840010,-10356.136213
3211.739965,-593.420005,2469.392923,-9801.001370
3211.742543,-1339.980656,-2986.242605,-10068.997501
3211.745121,1320.838075,2565.105827,-9341.579430
3211.747699,4307.080680,1033.699363,-9762.716208
3211.750277,-229.710970,-133.998066,-10624.132344
3211.752855,-1665.404530,1646.261949,-9513.862658
3211.755433,1186.840010,306.281293,-9609.575562
3211.758011,1110.269686,4019.941968,-9341.579430
3211.760589,95.712904,-2756.531635,-9207.581365
3211.763167,325.423874,-1282.552914,-10432.706536
3211.765745,784.845813,3043.670347,-9781.858789
3211.768323,-1741.974853,-3675.375514,-10375.278794
3211.770901,-957.129040,3503.092286,-8901.300072
3211.773479,2411.965181,-287.138712,-10145.567824
3211.776057,1493.121302,382.851616,-10624.132344
3211.778636,76.570323,3043.670347,-9016.155557
3211.781214,-2239.681954,-3043.670347,-10528.419440
3211.783792,-1014.556782,2335.394858,-9188.438784
3211.786370,2469.392923,2297.109696,-9207.581365
3211.788948,2354.537438,-516.849682,-10566.704602
3211.791526,-976.271621,2086.541307,-9781.858789
3211.794104,-1339.980656,-267.996131,-9973.284597
3211.796682,-325.423874,497.707101,-9590.432981
3211.799260,593.420005,746.560651,-9781.858789
3211.801838,1971.685822,-344.566454,-10451.849117
3211.804416,-325.423874,803.988394,-9896.714274
3211.806994,-516.849682,689.132909,-9667.003304
3211.809572,1014.556782,842.273555,-9513.862658
3211.812150,823.130974,306.281293,-9992.427178
3211.814727,133.998066,497.707101,-10202.995566
3211.817304,-248.853550,1225.125171,-9820.143950
3211.819882,516.849682,440.279358,-9820.143950
3211.822459,-746.560651,19.142581,-9839.286531
3211.825036,-401.994197,765.703232,-9781.858789
3211.827613,172.283227,19.142581,-10241.280728
3211.830190,2220.539373,593.420005,-10107.282662
3211.832767,-1320.838075,-1895.115499,-10298.708470
3211.835344,-2009.970984,1588.834206,-9533.005238
3211.837922,-421.136778,-918.843878,-9667.003304
3211.840499,95.712904,-382.851616,-10356.136213
3211.843076,2775.674216,4192.225195,-9533.005238
3211.845653,1033.699363,899.701298,-9609.575562
3211.848230,-2947.957443,-2316.252277,-10068.997501
3211.850807,1607.976787,3637.090352,-9073.583299
3211.853384,1033.699363,-4804.787781,-11313.265253
3211.855962,-133.998066,3369.094221,-9360.722011
3211.858539,4728.217458,3503.092286,-8537.591037
3211.861116,-1435.693560,-3426.521963,-11102.696864
3211.863693,-2756.531635,5895.914886,-8518.448456
3211.866270,2277.967115,-612.562586,-9839.286531
3211.868847,4402.793584,1071.984525,-10528.419440
3211.871425,-153.140646,803.988394,-9418.149754
3211.874002,-1186.840010,57.427742,-9667.003304
3211.876579,-133.998066,1531.406464,-9628.718142
3211.879156,478.564520,-210.568389,-10279.565890
3211.881733,2928.814862,3464.807125,-9437.292334
3211.884310,2622.533570,3330.809059,-9284.151688
3211.886887,459.421939,-267.996131,-10202.995566
3211.889465,-1895.115499,1397.408398,-9647.860723
3211.892042,210.568389,861.416136,-10049.854920
3211.894619,2584.248408,-784.845813,-10451.849117
3211.897196,1359.123237,1148.554848,-9475.577496
3211.899773,-210.568389,2124.826469,-9533.005238
3211.902350,593.420005,574.277424,-10317.851051
3211.904927,784.845813,1225.125171,-9801.001370
3211.907505,689.132909,1129.412267,-9456.434915
3211.910082,153.140646,937.986459,-10088.140082
3211.912659,172.283227,344.566454,-10107.282662
3211.915236,555.134843,2086.541307,-9743.573627
3211.917814,976.271621,555.134843,-10222.138147
3211.920390,-76.570323,-1052.841944,-10030.712339
3211.922967,1339.980656,3158.525832,-9284.151688
3211.925543,2507.678085,1148.554848,-10107.282662
3211.928119,1186.840010,1091.127106,-10317.851051
3211.930696,287.138712,3177.668413,-9360.722011
3211.933272,-1378.265818,-382.851616,-9915.856854
3211.935848,267.996131,-803.988394,-9877.571693
3211.938425,2507.678085,-1052.841944,-10202.995566
3211.941001,1378.265818,1703.689691,-10413.563955
3211.943577,-1225.125171,-842.273555,-10126.425243
3211.946154,267.996131,4728.217458,-8537.591037
3211.948730,2182.254211,459.421939,-9858.429112
3211.951306,-2143.969050,-2545.963246,-11121.839445
3211.953883,2545.963246,5379.065205,-8480.163294
3211.956459,1914.258080,-3464.807125,-10470.991698
3211.959035,-2124.826469,440.279358,-10356.136213
3211.961612,0.000000,-937.986459,-8403.592971
3211.964188,1473.978722,-2699.103893,-10528.419440
3211.966764,1531.406464,3043.670347,-10222.138147
3211.969340,1780.260014,1799.402595,-9188.438784
3211.971917,-2775.674216,937.986459,-9705.288466
3211.974493,-918.843878,-1052.841944,-10011.569758
3211.977069,650.847747,-1856.830338,-10260.423309
3211.979646,1895.115499,2297.109696,-9475.577496
3211.982222,1875.972918,-516.849682,-10738.987829
3211.984798,-555.134843,2048.256146,-9494.720077
3211.987375,-1569.691626,1244.267752,-9245.866526
3211.989951,459.421939,-1186.840010,-10413.563955
3211.992527,1033.699363,1722.832272,-9896.714274
3211.995104,1033.699363,-133.998066,-10183.852986
3211.997680,-497.707101,1052.841944,-9954.142016
3212.000256,-516.849682,1091.127106,-9513.862658
3212.002833,1378.265818,133.998066,-10202.995566
3212.005409,325.423874,880.558717,-10336.993632
3212.007985,-1186.840010,1665.404530,-10145.567824
3212.010562,-172.283227,497.707101,-9781.858789
3212.013138,248.853550,363.709035,-9437.292334
3212.015714,-344.566454,459.421939,-10336.993632
3212.018291,1837.687757,1359.123237,-10394.421374
3212.020866,-899.701298,-669.990328,-10202.995566
3212.023442,-1205.982590,1454.836141,-9379.864592
3212.026018,-478.564520,-1799.402595,-9801.001370
3212.028593,-650.847747,248.853550,-9992.427178
3212.031169,3981.656806,3081.955509,-9839.286531
3212.033744,899.701298,-1799.402595,-10432.706536
3212.036320,-3751.945837,76.570323,-9762.716208
3212.038896,2029.113565,1914.258080,-8748.159426
3212.041471,803.988394,-2526.820666,-11006.983960
3212.044047,1091.127106,4019.941968,-9131.011042
3212.046623,3081.955509,-2124.826469,-10107.282662
3212.049198,-1627.119368,1607.976787,-10298.708470
3212.051774,1282.552914,3426.521963,-8652.446522
3212.054350,-918.843878,-1416.550979,-10030.712339
3212.056925,1512.263883,2967.100024,-10183.852986
3212.059501,1416.550979,-191.425808,-10049.854920
3212.062077,497.707101,880.558717,-9341.579430
3212.064652,-1875.972918,-133.998066,-9628.718142
3212.067228,0.000000,-306.281293,-10241.280728
3212.069804,2584.248408,2603.390989,-9513.862658
3212.072379,3828.516160,2086.541307,-9934.999435
3212.074955,-669.990328,976.271621,-10298.708470
3212.077531,-861.416136,1110.269686,-9131.011042
3212.080106,1033.699363,708.275490,-9552.147819
3212.082682,1205.982590,-306.281293,-10987.841379
3212.085258,1167.697429,1531.406464,-10011.569758
3212.087833,593.420005,669.990328,-9705.288466
3212.090409,-421.136778,823.130974,-9801.001370
3212.092985,937.986459,421.136778,-9954.142016
3212.095560,861.416136,1397.408398,-9896.714274
3212.098136,210.568389,1818.545176,-10164.710405
3212.100712,1148.554848,-325.423874,-10202.995566
3212.103287,1493.121302,516.849682,-9379.864592
3212.105863,421.136778,248.853550,-10068.997501
3212.108439,1990.828403,1320.838075,-10279.565890
3212.111014,2354.537438,2392.822600,-9781.858789
3212.113590,459.421939,1837.687757,-9513.862658
3212.116166,421.136778,1684.547110,-9686.145885
3212.118741,-1205.982590,401.994197,-9743.573627
3212.121317,1397.408398,708.275490,-9609.575562
3212.123892,1761.117434,-1014.556782,-10585.847182
3212.126467,2603.390989,3522.234867,-9360.722011
3212.129042,-1473.978722,-114.855485,-9475.577496
3212.131617,287.138712,3349.951640,-9475.577496
3212.134192,2794.816797,1378.265818,-9781.858789
3212.136767,-2277.967115,-2392.822600,-10949.556218
3212.139342,2507.678085,4594.219392,-8805.587168
3212.141917,1895.115499,-2928.814862,-10011.569758
3212.144492,-2431.107762,957.129040,-10241.280728
3212.147067,-19.142581,-803.988394,-9686.145885
3212.149642,555.134843,612.562586,-10317.851051
3212.152217,1071.984525,2450.250342,-10049.854920
3212.154792,1205.982590,1435.693560,-9016.155557
3212.157367,-2009.970984,1703.689691,-9322.436850
3212.159942,-1493.121302,-1971.685822,-10681.560086
3212.162517,459.421939,19.142581,-10490.134278
3212.165092,2545.963246,2086.541307,-9322.436850
3212.167667,1454.836141,-937.986459,-10432.706536
3212.170242,-593.420005,1837.687757,-9475.577496
3212.172817,-1148.554848,976.271621,-9226.723946
3212.175392,-248.853550,-229.710970,-10566.704602
3212.177967,2009.970984,842.273555,-9781.858789
3212.180542,516.849682,287.138712,-9839.286531
3212.183117,-1244.267752,-459.421939,-10145.567824
3212.185692,555.134843,2163.111630,-9207.581365
3212.188267,803.988394,57.427742,-10241.280728
3212.190842,95.712904,287.138712,-10088.140082
3212.193417,-267.996131,650.847747,-9762.716208
3212.195992,-478.564520,421.136778,-9973.284597
3212.198567,-19.142581,344.566454,-10030.712339
3212.201142,1741.974853,2258.824534,-9705.288466
3212.203717,-708.275490,-2297.109696,-10509.276859
3212.206293,-2124.826469,-516.849682,-9705.288466
3212.208868,-287.138712,133.998066,-9571.290400
3212.211443,631.705166,-918.843878,-10413.563955
3212.214018,2431.107762,4517.649069,-9609.575562
3212.216593,861.416136,-765.703232,-10241.280728
3212.219168,-3732.803256,-363.709035,-10011.569758
3212.221743,2239.681954,1914.258080,-8939.585234
3212.224318,937.986459,-4153.940034,-11064.411702
3212.226875,0.000000,3139.383251,-9360.722011
3212.229432,4287.938099,2239.681954,-9054.440718
3212.231989,-1875.972918,-2009.970984,-11083.554283
3212.234547,-1339.980656,5513.063270,-8556.733618
3212.237104,1875.972918,-976.271621,-9877.571693
3212.239661,2622.533570,2297.109696,-9934.999435
3212.242218,1531.406464,-19.142581,-10049.854920
3212.244775,708.275490,1052.841944,-9762.716208
3212.247333,-689.132909,631.705166,-9513.862658
3212.249890,-248.853550,-287.138712,-10241.280728
3212.252447,2794.816797,2794.816797,-9379.864592
3212.255004,4077.369710,2373.680019,-9418.149754
3212.257561,-1205.982590,1244.267752,-10432.706536
3212.260119,-899.701298,1493.121302,-9245.866526
3212.262676,689.132909,1071.984525,-9303.294269
3212.265233,1110.269686,-267.996131,-10949.556218
3212.267790,976.271621,1263.410333,-9915.856854
3212.270347,38.285162,1493.121302,-9379.864592
3212.272905,401.994197,-306.281293,-10298.708470
3212.275462,1454.836141,1512.263883,-9762.716208
3212.278019,-76.570323,746.560651,-10068.997501
3212.280576,-497.707101,918.843878,-10049.854920
3212.283134,1014.556782,784.845813,-9456.434915
3212.285691,1531.406464,1741.974853,-9724.431046
3212.288248,1895.115499,1014.556782,-10260.423309
3212.290805,899.701298,1588.834206,-9858.429112
3212.293362,1033.699363,2679.961312,-9513.862658
3212.295920,727.418070,555.134843,-10088.140082
3212.298477,-1971.685822,-1607.976787,-10279.565890
3212.301034,2545.963246,4421.936165,-8901.300072
3212.303591,3905.086483,1914.258080,-9973.284597
3212.306148,-459.421939,-76.570323,-10202.995566
3212.308706,-2641.676150,842.273555,-9169.296203
3212.311263,1320.838075,459.421939,-9934.999435
3212.313820,2201.396792,3330.809059,-10126.425243
3212.316377,-497.707101,-2297.109696,-10202.995566
3212.318934,-114.855485,2794.816797,-9245.866526
3212.321492,2737.389054,191.425808,-9628.718142
3212.324049,-3005.385186,-2488.535504,-10700.702667
3212.326606,-1014.556782,3101.098090,-8920.442653
3212.329165,2794.816797,-440.279358,-10298.708470
3212.331724,1148.554848,612.562586,-10107.282662
3212.334283,-133.998066,2813.959378,-8786.444587
3212.336842,-2086.541307,-727.418070,-9934.999435
3212.339400,-1397.408398,-746.560651,-10011.569758
3212.341959,1397.408398,-133.998066,-9743.573627
3212.344518,2220.539373,1091.127106,-10241.280728
3212.347077,746.560651,114.855485,-9992.427178
3212.349636,-1052.841944,1971.685822,-9226.723946
3212.352195,-344.566454,478.564520,-9686.145885
3212.354754,746.560651,-38.285162,-10298.708470
3212.357312,861.416136,784.845813,-10030.712339
3212.359871,516.849682,803.988394,-9609.575562
3212.362430,-229.710970,38.285162,-10164.710405
3212.364989,172.283227,842.273555,-9724.431046
3212.367548,976.271621,1263.410333,-9418.149754
3212.370107,497.707101,-1091.127106,-10317.851051
3212.372666,-1129.412267,918.843878,-9743.573627
3212.375224,1244.267752,2143.969050,-9456.434915
3212.377783,-689.132909,-1990.828403,-10853.843314
3212.380342,-937.986459,1033.699363,-9571.290400
3212.382901,-497.707101,-899.701298,-9475.577496
3212.385460,-76.570323,-1339.980656,-10604.989763
3212.388019,3139.383251,1933.400661,-9762.716208
3212.390578,-669.990328,-631.705166,-10356.136213
3212.393137,-1607.976787,3120.240670,-9437.292334
3212.395695,-612.562586,-459.421939,-9207.581365
3212.398254,1588.834206,1205.982590,-10202.995566
3212.400813,1818.545176,-382.851616,-10451.849117
3212.403372,19.142581,-1971.685822,-10183.852986
3212.405931,727.418070,5876.772306,-9245.866526
3212.408490,1435.693560,-1071.984525,-10547.562021
3212.411049,-2565.105827,1665.404530,-9801.001370
3212.413607,1569.691626,2756.531635,-9035.298138
3212.416166,4785.645200,-153.140646,-10719.845248
3212.418725,-593.420005,669.990328,-9858.429112
3212.421284,-2488.535504,-574.277424,-9877.571693
3212.423843,229.710970,421.136778,-10241.280728
3212.426402,2182.254211,1454.836141,-9494.720077
3212.428961,1761.117434,1895.115499,-9781.858789
3212.431504,2009.970984,2622.533570,-9858.429112
3212.434047,-574.277424,1665.404530,-9533.005238
3212.436590,38.285162,-459.421939,-9820.143950
3212.439133,459.421939,918.843878,-9475.577496
3212.441677,937.986459,1378.265818,-10432.706536
3212.444220,-57.427742,1014.556782,-10030.712339
3212.446763,803.988394,1263.410333,-8805.587168
3212.449306,210.568389,-95.712904,-9839.286531
3212.451850,382.851616,1684.547110,-10068.997501
3212.454393,1186.840010,784.845813,-9915.856854
3212.456936,38.285162,1301.695494,-9743.573627
3212.459479,1435.693560,937.986459,-9571.290400
3212.462023,1971.685822,1301.695494,-9494.720077
3212.464566,1473.978722,2316.252277,-9724.431046
3212.467109,612.562586,1703.689691,-10222.138147
3212.469652,-1895.115499,1263.410333,-9762.716208
3212.472195,2143.969050,1607.976787,-8997.012976
3212.474739,2048.256146,-1741.974853,-10604.989763
3212.477282,1837.687757,3483.949706,-10011.569758
3212.479825,-1531.406464,535.992262,-9915.856854
3212.482368,0.000000,2545.963246,-9475.577496
3212.484912,1091.127106,-210.568389,-10030.712339
3212.487455,-1167.697429,842.273555,-10394.421374
3212.489998,2392.822600,1569.691626,-9992.427178
3212.492541,1837.687757,-2813.959378,-10202.995566
3212.495085,-2182.254211,842.273555,-10260.423309
3212.497628,-555.134843,-1110.269686,-9475.577496
3212.500171,210.568389,765.703232,-9839.286531
3212.502714,2029.113565,1397.408398,-10164.710405
3212.505257,1167.697429,-669.990328,-10432.706536
3212.507801,-976.271621,2909.672282,-8977.870395
3212.510344,-2526.820666,-1952.543242,-10126.425243
3212.512887,1646.261949,574.277424,-9801.001370
3212.515430,1225.125171,459.421939,-9781.858789
3212.517974,1588.834206,95.712904,-10796.415571
3212.520517,-38.285162,1148.554848,-9705.288466
3212.523060,-1301.695494,2029.113565,-8690.731683
3212.525603,401.994197,248.853550,-10107.282662
3212.528147,1186.840010,153.140646,-10279.565890
3212.530690,401.994197,842.273555,-9839.286531
3212.533237,229.710970,-95.712904,-10011.569758
3212.535783,803.988394,612.562586,-9590.432981
3212.538330,287.138712,803.988394,-9686.145885
3212.540877,153.140646,-114.855485,-10279.565890
3212.543424,727.418070,478.564520,-9839.286531
3212.545971,-727.418070,1914.258080,-9609.575562
3212.548518,-133.998066,-784.845813,-10183.852986
3212.551064,-1569.691626,-1148.554848,-9973.284597
3212.553611,229.710970,287.138712,-9686.145885
3212.556158,1263.410333,-1435.693560,-10528.419440
3212.558705,1531.406464,4115.654872,-9628.718142
3212.561252,-516.849682,1301.695494,-9781.858789
3212.563799,-2565.105827,-1952.543242,-10336.993632
3212.566345,2756.531635,2354.537438,-9150.153622
3212.568892,1052.841944,-3464.807125,-11083.554283
3212.571439,382.851616,3081.955509,-9475.577496
3212.573986,3043.670347,957.129040,-8939.585234
3212.576533,-2220.539373,287.138712,-11026.126541
3212.579080,669.990328,4479.363907,-9322.436850
3212.581626,689.132909,-1167.697429,-9724.431046
3212.584173,2852.244539,19.142581,-10719.845248
3212.586720,210.568389,1148.554848,-9839.286531
3212.589267,976.271621,1397.408398,-9418.149754
3212.591814,-1818.545176,-344.566454,-10317.851051
3212.594360,95.712904,555.134843,-10279.565890
3212.596907,3024.527766,1588.834206,-9494.720077
3212.599454,1952.543242,1665.404530,-9686.145885
3212.602001,669.990328,1741.974853,-10145.567824
3212.604548,229.710970,2086.541307,-9533.005238
3212.607095,172.283227,-516.849682,-9801.001370
3212.609641,1186.840010,1799.402595,-9552.147819
3212.612188,1110.269686,842.273555,-10317.851051
3212.614735,-153.140646,382.851616,-10068.997501
3212.617282,401.994197,1569.691626,-9188.438784
3212.619829,1244.267752,516.849682,-9781.858789
3212.622376,1722.832272,880.558717,-10068.997501
3212.624922,-229.710970,1531.406464,-9628.718142
3212.627469,1052.841944,1569.691626,-9647.860723
3212.630016,2545.963246,574.277424,-9915.856854
3212.632563,1473.978722,2105.683888,-9724.431046
3212.635113,344.566454,1933.400661,-9954.142016
3212.637663,-1588.834206,-2048.256146,-10624.132344
3212.640213,1875.972918,4804.787781,-8671.589102
3212.642764,3809.373579,-19.142581,-9992.427178
3212.645314,803.988394,287.138712,-10681.560086
3212.647864,-1722.832272,172.283227,-9686.145885
3212.650414,497.707101,2411.965181,-9322.436850
3212.652964,2297.109696,1148.554848,-10011.569758
3212.655515,-1091.127106,-2928.814862,-10413.563955
3212.658065,325.423874,3866.801322,-9054.440718
3212.660615,3081.955509,-727.418070,-10107.282662
3212.663165,-2373.680019,-1780.260014,-10738.987829
3212.665715,-1856.830338,1301.695494,-9360.722011
3212.668265,1818.545176,-1722.832272,-10394.421374
3212.670816,1703.689691,2182.254211,-9896.714274
3212.673366,880.558717,1435.693560,-9322.436850
3212.675916,-1569.691626,287.138712,-9992.427178
3212.678466,-3062.812928,-1416.550979,-10336.993632
3212.681016,1875.972918,689.132909,-9399.007173
3212.683567,1569.691626,-803.988394,-10451.849117
3212.686117,650.847747,1167.697429,-9973.284597
3212.688667,382.851616,1282.552914,-9533.005238
3212.691217,-153.140646,-516.849682,-9858.429112
3212.693767,57.427742,1110.269686,-9781.858789
3212.696317,2029.113565,-38.285162,-9992.427178
3212.698868,-153.140646,1033.699363,-9609.575562
3212.701418,-1607.976787,823.130974,-9973.284597
3212.703968,1588.834206,516.849682,-9915.856854
3212.706518,382.851616,459.421939,-9896.714274
3212.709068,1091.127106,1454.836141,-9705.288466
3212.711619,-880.558717,-1148.554848,-10336.993632
3212.714169,-1416.550979,1110.269686,-9609.575562
3212.716719,-363.709035,-497.707101,-10030.712339
3212.719269,899.701298,-1569.691626,-10490.134278
3212.721819,2641.676150,1818.545176,-9379.864592
3212.724369,-842.273555,95.712904,-10260.423309
3212.726920,-1454.836141,2373.680019,-9915.856854
3212.729470,-1301.695494,-344.566454,-9437.292334
3212.732020,3005.385186,2622.533570,-9609.575562
3212.734570,1703.689691,-4804.787781,-11121.839445
3212.737123,-1225.125171,-172.283227,-9762.716208
3212.739676,1684.547110,7216.752962,-9016.155557
3212.742229,459.421939,-1741.974853,-10968.698798
3212.744781,-2277.967115,3943.371645,-9265.009107
3212.747334,2507.678085,1435.693560,-8920.442653
3212.749887,5321.637462,-708.275490,-10604.989763
3212.752440,-1110.269686,1052.841944,-10030.712339
3212.754993,-363.709035,2373.680019,-9360.722011
3212.757545,-114.855485,1416.550979,-9590.432981
3212.760098,1071.984525,1052.841944,-9533.005238
3212.762651,2316.252277,2048.256146,-9743.573627
3212.765204,1837.687757,1588.834206,-10068.997501
3212.767757,19.142581,1378.265818,-9839.286531
3212.770309,-38.285162,593.420005,-9781.858789
3212.772862,784.845813,976.271621,-9571.290400
3212.775415,842.273555,689.132909,-10107.282662
3212.777968,650.847747,535.992262,-10336.993632
3212.780521,-95.712904,1225.125171,-9590.432981
3212.783073,995.414202,210.568389,-9801.001370
3212.785626,478.564520,363.709035,-10107.282662
3212.788179,650.847747,1703.689691,-9609.575562
3212.790732,1033.699363,1033.699363,-9801.001370
3212.793285,1205.982590,1014.556782,-9973.284597
3212.795837,1359.123237,1780.260014,-9571.290400
3212.798390,861.416136,1416.550979,-9820.143950
3212.800943,-344.566454,-1799.402595,-10470.991698
3212.803496,957.129040,3254.238736,-8997.012976
3212.806049,2909.672282,3120.240670,-9533.005238
3212.808601,555.134843,287.138712,-9934.999435
3212.811154,-1952.543242,957.129040,-9437.292334
3212.813707,172.283227,-57.427742,-10202.995566
3212.816260,1569.691626,2699.103893,-10088.140082
3212.818813,382.851616,-2182.254211,-9839.286531
3212.821365,-421.136778,1875.972918,-9418.149754
3212.823918,2679.961312,1416.550979,-9590.432981
3212.826471,-1952.543242,-2431.107762,-10566.704602
3212.829024,-1091.127106,1933.400661,-9973.284597
3212.831577,1818.545176,-535.992262,-10202.995566
3212.834129,1339.980656,535.992262,-9820.143950
3212.836682,325.423874,2450.250342,-8997.012976
3212.839237,-1091.127106,-344.566454,-10107.282662
3212.841793,-2756.531635,-459.421939,-10241.280728
3212.844348,1971.685822,976.271621,-9322.436850
3212.846903,2048.256146,-478.564520,-10470.991698
3212.849458,-38.285162,1148.554848,-10088.140082
3212.852014,0.000000,1263.410333,-9322.436850
3212.854569,76.570323,459.421939,-9667.003304
3212.857124,1205.982590,459.421939,-10049.854920
3212.859679,153.140646,995.414202,-10222.138147
3212.862235,401.994197,1550.549045,-9724.431046
3212.864790,689.132909,19.142581,-9839.286531
3212.867345,172.283227,803.988394,-9743.573627
3212.869900,650.847747,2354.537438,-9609.575562
3212.872456,306.281293,-1359.123237,-10279.565890
3212.875011,-1914.258080,1244.267752,-9705.288466
3212.877566,-937.986459,689.132909,-9513.862658
3212.880121,918.843878,-1397.408398,-10260.423309
3212.882677,2737.389054,1205.982590,-10011.569758
3212.885232,-784.845813,19.142581,-9877.571693
3212.887787,-1378.265818,2105.683888,-9284.151688
3212.890342,-1148.554848,-1148.554848,-9839.286531
3212.892897,2411.965181,3158.525832,-9628.718142
3212.895453,1378.265818,-3924.229064,-11217.552349
3212.898008,-401.994197,1799.402595,-9552.147819
3212.900563,2086.541307,6680.760699,-8250.452325
3212.903118,287.138712,-2354.537438,-10796.415571
3212.905674,-2584.248408,3292.523898,-9877.571693
3212.908229,2507.678085,2201.396792,-8824.729749
3212.910784,4823.930362,-1378.265818,-10643.274925
3212.913339,-1091.127106,267.996131,-9915.856854
3212.915895,-210.568389,2297.109696,-8824.729749
3212.918450,-363.709035,-401.994197,-10451.849117
3212.921008,-95.712904,1244.267752,-10413.563955
3212.923565,2335.394858,2488.535504,-9322.436850
3212.926122,2048.256146,153.140646,-10164.710405
3212.928679,-631.705166,1071.984525,-9552.147819
3212.931236,-344.566454,1607.976787,-9360.722011
3212.933793,1014.556782,-325.423874,-10336.993632
3212.936350,1033.699363,1339.980656,-9992.427178
3212.938907,765.703232,918.843878,-9590.432981
3212.941464,861.416136,-191.425808,-9743.573627
3212.944021,287.138712,1263.410333,-9456.434915
3212.946578,689.132909,784.845813,-10604.989763
3212.949135,1607.976787,1493.121302,-9973.284597
3212.951692,1454.836141,1569.691626,-9150.153622
3212.954249,784.845813,1703.689691,-9647.860723
3212.956806,765.703232,1225.125171,-9992.427178
3212.959363,-842.273555,-1301.695494,-10336.993632
3212.961920,1780.260014,4345.365842,-9494.720077
3212.964477,3981.656806,861.416136,-9839.286531
3212.967034,593.420005,593.420005,-9724.431046
3212.969592,-2794.816797,-421.136778,-9915.856854
3212.972149,842.273555,1110.269686,-9724.431046
3212.974706,2622.533570,2833.101958,-10088.140082
3212.977263,-1512.263883,-3407.379382,-10700.702667
3212.979820,478.564520,4039.084549,-8748.159426
3212.982377,3292.523898,-19.142581,-9762.716208
3212.984934,-2067.398726,-2201.396792,-11006.983960
3212.987491,-1895.115499,823.130974,-9284.151688
3212.990048,1665.404530,-631.705166,-9973.284597
3212.992605,1244.267752,823.130974,-10375.278794
3212.995162,497.707101,2660.818731,-8977.870395
3212.997719,-1033.699363,842.273555,-9724.431046
3213.000276,-2699.103893,-842.273555,-10317.851051
3213.002833,1320.838075,-1052.841944,-9705.288466
3213.005390,708.275490,1282.552914,-9992.427178
3213.007947,593.420005,-76.570323,-10585.847182
3213.010504,57.427742,1378.265818,-9762.716208
3213.013061,-421.136778,1301.695494,-9226.723946
3213.015618,363.709035,-746.560651,-10088.140082
3213.018175,1148.554848,1875.972918,-9858.429112
3213.020732,-1435.693560,689.132909,-9992.427178
3213.023291,842.273555,650.847747,-9667.003304
3213.025850,1512.263883,1186.840010,-9686.145885
3213.028409,-1397.408398,-535.992262,-10336.993632
3213.030968,-478.564520,746.560651,-10030.712339
3213.033526,-114.855485,172.283227,-9858.429112
3213.036085,-555.134843,-555.134843,-9858.429112
3213.038644,497.707101,95.712904,-9418.149754
3213.041203,1359.123237,2488.535504,-9686.145885
3213.043762,-344.566454,133.998066,-10413.563955
3213.046321,-3311.666478,-1493.121302,-10202.995566
3213.048879,2833.101958,1895.115499,-8958.727814
3213.051438,1320.838075,-2450.250342,-10604.989763
3213.053997,1416.550979,3120.240670,-9513.862658
3213.056556,2163.111630,574.277424,-9667.003304
3213.059115,-1397.408398,1952.543242,-10872.985894
3213.061673,899.701298,2986.242605,-9284.151688
3213.064232,2124.826469,-823.130974,-8977.870395
3213.066791,1856.830338,306.281293,-10738.987829
3213.069350,2718.246474,2660.818731,-9896.714274
3213.071909,1110.269686,76.570323,-10107.282662
3213.074468,-3158.525832,-918.843878,-10164.710405
3213.077026,76.570323,746.560651,-9743.573627
3213.079585,2679.961312,784.845813,-9801.001370
3213.082144,1761.117434,2182.254211,-9915.856854
3213.084703,803.988394,1033.699363,-10451.849117
3213.087262,0.000000,1416.550979,-9399.007173
3213.089821,153.140646,-880.558717,-9781.858789
3213.092379,1148.554848,995.414202,-9954.142016
3213.094938,1071.984525,803.988394,-10470.991698
3213.097497,76.570323,574.277424,-9954.142016
3213.100056,650.847747,918.843878,-9035.298138
3213.102615,842.273555,612.562586,-9877.571693
3213.105174,1875.972918,1263.410333,-10164.710405
3213.107732,1512.263883,2048.256146,-9590.432981
3213.110291,421.136778,1856.830338,-9724.431046
3213.112850,-1512.263883,382.851616,-9743.573627
3213.115409,1703.689691,1359.123237,-9188.438784
3213.117968,1761.117434,-210.568389,-10432.706536
3213.120526,2833.101958,3522.234867,-9954.142016
3213.123085,-1531.406464,1952.543242,-9150.153622
3213.125646,631.705166,1493.121302,-9456.434915
3213.128206,574.277424,-497.707101,-10375.278794
3213.130767,-899.701298,1722.832272,-9896.714274
3213.133327,2507.678085,1014.556782,-9762.716208
3213.135888,-57.427742,-1244.267752,-10375.278794
3213.138449,382.851616,3522.234867,-9169.296203
3213.141009,-1435.693560,-2029.113565,-9915.856854
3213.143570,-746.560651,1703.689691,-9705.288466
3213.146130,1493.121302,823.130974,-10088.140082
3213.148691,1588.834206,-38.285162,-10260.423309
3213.151251,57.427742,1933.400661,-9533.005238
3213.153812,-861.416136,-153.140646,-9839.286531
3213.156372,-2277.967115,-401.994197,-10356.136213
3213.158933,1818.545176,267.996131,-9552.147819
3213.161494,1990.828403,612.562586,-10145.567824
3213.164054,-344.566454,401.994197,-10585.847182
3213.166615,114.855485,2163.111630,-8958.727814
3213.169175,995.414202,-38.285162,-9762.716208
3213.171736,363.709035,-57.427742,-10643.274925
3213.174296,-76.570323,2603.390989,-9762.716208
3213.176857,1971.685822,153.140646,-9877.571693
3213.179417,-803.988394,-191.425808,-9877.571693
3213.181978,-478.564520,1531.406464,-9399.007173
3213.184539,478.564520,-306.281293,-10202.995566
3213.187099,-1301.695494,497.707101,-10394.421374
3213.189660,-708.275490,153.140646,-9724.431046
3213.192220,2488.535504,-497.707101,-9437.292334
3213.194781,-57.427742,401.994197,-10375.278794
3213.197341,-210.568389,2009.970984,-9628.718142
3213.199902,-2316.252277,-1952.543242,-10336.993632
3213.202462,2488.535504,1263.410333,-9801.001370
3213.205023,957.129040,-3637.090352,-10451.849117
3213.207583,555.134843,3464.807125,-8901.300072
3213.210144,3694.518094,2220.539373,-9379.864592
3213.212705,-1780.260014,-497.707101,-11140.982026
3213.215265,-2124.826469,4977.071008,-9188.438784
3213.217826,2392.822600,-421.136778,-9111.868461
3213.220386,3349.951640,-1033.699363,-10279.565890
3213.222947,784.845813,2584.248408,-9762.716208
3213.225507,1761.117434,363.709035,-10011.569758
3213.228069,-2239.681954,-708.275490,-10011.569758
3213.230631,-803.988394,880.558717,-9877.571693
3213.233192,3311.666478,421.136778,-9820.143950
3213.235754,1990.828403,2258.824534,-9456.434915
3213.238315,38.285162,1454.836141,-10068.997501
3213.240877,-516.849682,669.990328,-9647.860723
3213.243439,478.564520,1818.545176,-9207.581365
3213.246000,1531.406464,19.142581,-10202.995566
3213.248562,497.707101,1416.550979,-10107.282662
3213.251123,-133.998066,1703.689691,-9896.714274
3213.253685,1473.978722,-133.998066,-10088.140082
3213.256247,708.275490,1110.269686,-9437.292334
3213.258808,1837.687757,2277.967115,-9590.432981
3213.261370,1569.691626,1378.265818,-10011.569758
3213.263931,-1435.693560,1473.978722,-9896.714274
3213.266493,995.414202,1435.693560,-9360.722011
3213.269055,1761.117434,172.283227,-10164.710405
3213.271616,2986.242605,4000.799387,-9494.720077
3213.274178,1301.695494,1148.554848,-9743.573627
3213.276739,-2679.961312,-727.418070,-10068.997501
3213.279301,114.855485,1761.117434,-9437.292334
3213.281863,2794.816797,2201.396792,-10068.997501
3213.284424,1665.404530,-1856.830338,-9915.856854
3213.286986,-784.845813,765.703232,-9533.005238
3213.289548,1588.834206,2584.248408,-9571.290400
3213.292109,-1627.119368,-2794.816797,-10719.845248
3213.294671,-2182.254211,1856.830338,-9456.434915
3213.297232,1186.840010,-1186.840010,-10164.710405
3213.299794,2048.256146,612.562586,-9992.427178
3213.302356,555.134843,2048.256146,-9016.155557
3213.304917,-1129.412267,880.558717,-10145.567824
3213.307479,-1665.404530,153.140646,-10432.706536
3213.310040,708.275490,-535.992262,-9284.151688
3213.312602,1588.834206,-765.703232,-9686.145885
3213.315164,-650.847747,880.558717,-10336.993632
3213.317725,248.853550,2220.539373,-9934.999435
3213.320287,937.986459,-19.142581,-9934.999435
3213.322848,535.992262,382.851616,-9724.431046
3213.325410,172.283227,1780.260014,-9801.001370
3213.327972,1320.838075,382.851616,-10088.140082
3213.330534,746.560651,191.425808,-10030.712339
3213.333097,-918.843878,1052.841944,-9781.858789
3213.335660,191.425808,-497.707101,-10222.138147
3213.338222,-555.134843,-497.707101,-9992.427178
3213.340785,-440.279358,995.414202,-9322.436850
3213.343347,2890.529701,1397.408398,-9839.286531
3213.345910,-1033.699363,-1952.543242,-10987.841379
3213.348473,-1799.402595,2813.959378,-9035.298138
3213.351035,-344.566454,-937.986459,-9762.716208
3213.353598,2124.826469,1416.550979,-9992.427178
3213.356161,1665.404530,727.418070,-9743.573627
3213.358723,114.855485,-1971.685822,-10413.563955
3213.361286,1033.699363,5991.627790,-9111.868461
3213.363848,1282.552914,-612.562586,-9973.284597
3213.366411,-3101.098090,1129.412267,-9820.143950
3213.368974,1550.549045,2316.252277,-8843.872330
3213.371536,5895.914886,-1818.545176,-10758.130410
3213.374099,-1263.410333,306.281293,-10164.710405
3213.376662,-172.283227,2833.101958,-8997.012976
3213.379224,669.990328,153.140646,-9877.571693
3213.381787,574.277424,995.414202,-9781.858789
3213.384349,2182.254211,2182.254211,-9915.856854
3213.386912,1990.828403,229.710970,-10624.132344
3213.389475,-555.134843,1263.410333,-9724.431046
3213.392037,478.564520,1454.836141,-9226.723946
3213.394600,918.843878,363.709035,-9858.429112
3213.397163,650.847747,880.558717,-10241.280728
3213.399725,1531.406464,2163.111630,-10088.140082
3213.402288,803.988394,-287.138712,-10011.569758
3213.404850,76.570323,2201.396792,-9418.149754
3213.407413,2545.963246,1397.408398,-9667.003304
3213.409976,1531.406464,1110.269686,-10202.995566
3213.412538,-1359.123237,2641.676150,-9820.143950
3213.415101,1512.263883,937.986459,-9513.862658
3213.417664,1512.263883,-172.283227,-10260.423309
3213.420226,2794.816797,3656.232933,-9494.720077
3213.422789,1741.974853,918.843878,-9456.434915
3213.425352,-229.710970,248.853550,-9686.145885
3213.427914,57.427742,133.998066,-10049.854920
3213.430477,574.277424,2354.537438,-9915.856854
3213.433023,803.988394,-2201.396792,-10164.710405
3213.435570,-401.994197,1225.125171,-9533.005238
3213.438116,2316.252277,2947.957443,-9265.009107
3213.440663,-1473.978722,-2488.535504,-10336.993632
3213.443209,-2411.965181,1186.840010,-9533.005238
3213.445756,1225.125171,-669.990328,-10298.708470
3213.448302,1205.982590,153.140646,-10356.136213
3213.450849,516.849682,1952.543242,-9303.294269
3213.453395,-899.701298,267.996131,-9743.573627
3213.455942,-1588.834206,593.420005,-9992.427178
3213.458488,95.712904,153.140646,-9801.001370
3213.461035,1263.410333,-363.709035,-10413.563955
3213.463581,497.707101,1129.412267,-10107.282662
3213.466128,172.283227,1895.115499,-9647.860723
3213.468674,-210.568389,-516.849682,-9839.286531
3213.471221,880.558717,1167.697429,-9284.151688
3213.473767,133.998066,1320.838075,-10528.419440
3213.476314,-287.138712,-76.570323,-10317.851051
3213.478860,-114.855485,1033.699363,-9226.723946
3213.481407,-133.998066,-421.136778,-9801.001370
3213.483953,-287.138712,-382.851616,-10107.282662
3213.486500,-210.568389,-153.140646,-10049.854920
3213.489046,1818.545176,344.566454,-9724.431046
3213.491593,-363.709035,861.416136,-9973.284597
3213.494140,-1493.121302,2871.387120,-9226.723946
3213.496686,-574.277424,-1607.976787,-9934.999435
3213.499233,1780.260014,1550.549045,-9839.286531
3213.501779,1263.410333,-3464.807125,-10279.565890
3213.504326,-267.996131,2009.970984,-9494.720077
3213.506872,3464.807125,5206.781978,-9131.011042
3213.509419,497.707101,-1359.123237,-10643.274925
3213.511965,-2775.674216,3254.238736,-9111.868461
3213.514512,2105.683888,765.703232,-8518.448456
3213.517058,4307.080680,-2086.541307,-10719.845248
3213.519605,-727.418070,2909.672282,-10222.138147
3213.522151,1091.127106,2105.683888,-9915.856854
3213.524698,-899.701298,-842.273555,-10030.712339
3213.527244,-248.853550,1339.980656,-8977.870395
3213.529791,2794.816797,95.712904,-9590.432981
3213.532337,1952.543242,1646.261949,-10700.702667
3213.534887,-133.998066,1627.119368,-10528.419440
3213.537436,-248.853550,1167.697429,-9399.007173
3213.539986,593.420005,421.136778,-8863.014910
3213.542535,1052.841944,1014.556782,-9418.149754
3213.545085,689.132909,1473.978722,-10643.274925
3213.547634,-95.712904,1148.554848,-10490.134278
3213.550184,689.132909,1856.830338,-9705.288466
3213.552734,2411.965181,306.281293,-9609.575562
3213.555283,1454.836141,1033.699363,-9609.575562
3213.557833,-1627.119368,57.427742,-10509.276859
3213.560382,2239.681954,4517.649069,-9705.288466
3213.562932,3598.805190,976.271621,-9858.429112
3213.565481,555.134843,899.701298,-9896.714274
3213.568031,-2029.113565,765.703232,-9475.577496
3213.570580,1818.545176,1914.258080,-9609.575562
3213.573130,650.847747,-287.138712,-10700.702667
3213.575679,-3235.096155,-1684.547110,-10853.843314
3213.578229,2335.394858,5168.496816,-8403.592971
3213.580779,2258.824534,-2986.242605,-10375.278794
3213.583328,-1990.828403,937.986459,-10451.849117
3213.585878,-1129.412267,76.570323,-9456.434915
3213.588427,421.136778,325.423874,-9839.286531
3213.590977,957.129040,-516.849682,-10298.708470
3213.593526,1205.982590,727.418070,-9820.143950
3213.596076,516.849682,1952.543242,-9647.860723
3213.598625,-325.423874,-306.281293,-10279.565890
3213.601175,-1148.554848,287.138712,-9456.434915
3213.603724,555.134843,516.849682,-9360.722011
3213.606274,1550.549045,-555.134843,-10279.565890
3213.608824,306.281293,1435.693560,-10145.567824
3213.611373,-210.568389,880.558717,-9609.575562
3213.613923,401.994197,38.285162,-9494.720077
3213.616472,1091.127106,631.705166,-9437.292334
3213.619022,153.140646,440.279358,-10088.140082
3213.621571,-248.853550,593.420005,-10413.563955
3213.624121,-229.710970,344.566454,-9533.005238
3213.626670,-842.273555,-1071.984525,-9896.714274
3213.629220,133.998066,-382.851616,-10011.569758
3213.631769,2373.680019,497.707101,-9877.571693
3213.634319,-1148.554848,-574.277424,-10662.417506
3213.636872,-1052.841944,2239.681954,-9379.864592
3213.639424,-1837.687757,-1818.545176,-9743.573627
3213.641976,2411.965181,976.271621,-10068.997501
3213.644529,861.416136,-3445.664544,-10930.413637
3213.647081,-650.847747,1033.699363,-9973.284597
3213.649634,3560.520029,5934.200048,-8843.872330
3213.652186,-1263.410333,-1627.119368,-10624.132344
3213.654739,-2297.109696,5072.783912,-9226.723946
3213.657291,2316.252277,114.855485,-9571.290400
3213.659844,2833.101958,-918.843878,-10853.843314
3213.662396,1282.552914,3962.514226,-9533.005238
3213.664949,1952.543242,-229.710970,-9896.714274
3213.667501,-2526.820666,-344.566454,-10107.282662
3213.670054,-803.988394,1512.263883,-9896.714274
3213.672606,2833.101958,957.129040,-10049.854920
3213.675159,2009.970984,1971.685822,-9705.288466
3213.677711,421.136778,1071.984525,-9667.003304
3213.680264,-267.996131,363.709035,-9533.005238
3213.682816,267.996131,880.558717,-9360.722011
3213.685369,1665.404530,708.275490,-9954.142016
3213.687921,957.129040,1416.550979,-10260.423309
3213.690474,-114.855485,1014.556782,-9418.149754
3213.693026,937.986459,1205.982590,-9322.436850
3213.695579,2392.822600,1071.984525,-9590.432981
3213.698131,-210.568389,1435.693560,-10030.712339
3213.700684,1378.265818,1875.972918,-9686.145885
3213.703236,1186.840010,401.994197,-10030.712339
3213.705788,2450.250342,4000.799387,-9399.007173
3213.708341,1550.549045,1282.552914,-9571.290400
3213.710893,-1799.402595,-1339.980656,-9973.284597
3213.713446,593.420005,2469.392923,-9533.005238
3213.715998,2699.103893,1397.408398,-9992.427178
3213.718551,-382.851616,-2584.248408,-10317.851051
3213.721103,-918.843878,2794.816797,-9437.292334
3213.723656,2967.100024,2029.113565,-9705.288466
3213.726208,-1014.556782,-1952.543242,-10604.989763
3213.728761,-2756.531635,574.277424,-9437.292334
3213.731313,918.843878,-1091.127106,-10279.565890
3213.733866,1339.980656,1435.693560,-10375.278794
3213.736418,669.990328,1761.117434,-9494.720077
3213.738973,-440.279358,593.420005,-10068.997501
3213.741528,-1473.978722,803.988394,-9954.142016
3213.744082,-248.853550,-267.996131,-9437.292334
3213.746637,1091.127106,-727.418070,-10413.563955
3213.749192,76.570323,574.277424,-10068.997501
3213.751746,-363.709035,1378.265818,-9801.001370
3213.754301,172.283227,421.136778,-9877.571693
3213.756856,-191.425808,593.420005,-9284.151688
3213.759411,880.558717,612.562586,-9686.145885
3213.761965,-76.570323,-478.564520,-10547.562021
3213.764520,-1091.127106,421.136778,-9896.714274
3213.767075,-516.849682,153.140646,-9743.573627
3213.769629,401.994197,-1339.980656,-9724.431046
3213.772184,2641.676150,574.277424,-9590.432981
3213.774739,-880.558717,-267.996131,-10528.419440
3213.777293,-1378.265818,1952.543242,-9628.718142
3213.779848,-1780.260014,-1167.697429,-9590.432981
3213.782403,2737.389054,784.845813,-9590.432981
3213.784957,861.416136,-3407.379382,-10719.845248
3213.787512,-727.418070,1722.832272,-9915.856854
3213.790067,3790.230998,5742.774240,-8882.157491
3213.792622,-1397.408398,-1512.263883,-10604.989763
3213.795176,-2029.113565,5187.639397,-8652.446522
3213.797731,2641.676150,-535.992262,-9475.577496
3213.800286,2526.820666,-765.703232,-11102.696864
3213.802840,1493.121302,4747.360038,-9418.149754
3213.805395,2431.107762,-1110.269686,-9801.001370
3213.807950,-2545.963246,-229.710970,-9820.143950
3213.810504,-957.129040,2182.254211,-9743.573627
3213.813059,2699.103893,612.562586,-10413.563955
3213.815614,2277.967115,1722.832272,-9973.284597
3213.818169,-1071.984525,669.990328,-9781.858789
3213.820723,516.849682,1091.127106,-9399.007173
3213.823278,880.558717,1263.410333,-9533.005238
3213.825833,937.986459,210.568389,-10585.847182
3213.828387,555.134843,1837.687757,-10183.852986
3213.830942,765.703232,1244.267752,-9781.858789
3213.833497,535.992262,976.271621,-9437.292334
3213.836051,1397.408398,1071.984525,-9667.003304
3213.838606,535.992262,-440.279358,-10394.421374
3213.841163,1225.125171,3924.229064,-9705.288466
3213.843720,2967.100024,2258.824534,-9686.145885
3213.846276,861.416136,1014.556782,-9896.714274
3213.848833,-2220.539373,1167.697429,-9475.577496
3213.851390,2833.101958,2124.826469,-9437.292334
3213.853947,1225.125171,-1186.840010,-11026.126541
3213.856503,-3024.527766,1129.412267,-10222.138147
3213.859060,1933.400661,5072.783912,-8059.026517
3213.861617,2163.111630,-3139.383251,-10183.852986
3213.864174,-1550.549045,765.703232,-10490.134278
3213.866730,-1339.980656,229.710970,-9973.284597
3213.869287,593.420005,344.566454,-9877.571693
3213.871844,842.273555,-1186.840010,-9743.573627
3213.874401,995.414202,153.140646,-9475.577496
3213.876957,516.849682,2009.970984,-9628.718142
3213.879514,-497.707101,210.568389,-10796.415571
3213.882071,-1244.267752,727.418070,-9609.575562
3213.884628,689.132909,631.705166,-8709.874264
3213.887184,1225.125171,-2392.822600,-10222.138147
3213.889741,-421.136778,2067.398726,-10222.138147
3213.892298,114.855485,1818.545176,-10145.567824
3213.894855,1320.838075,-516.849682,-10030.712339
3213.897411,0.000000,746.560651,-8939.585234
3213.899968,-478.564520,287.138712,-9667.003304
3213.902525,-76.570323,-191.425808,-10470.991698
3213.905082,210.568389,478.564520,-9743.573627
3213.907638,-497.707101,-1129.412267,-10126.425243
3213.910195,2660.818731,880.558717,-9590.432981
3213.912752,-1186.840010,-1378.265818,-10317.851051
3213.915309,-2373.680019,1895.115499,-9896.714274
3213.917865,-727.418070,-784.845813,-9915.856854
3213.920422,2928.814862,1473.978722,-9418.149754
3213.922979,95.712904,-3962.514226,-10815.558152
3213.925536,-957.129040,976.271621,-10011.569758
3213.928092,3617.947771,6623.332957,-8958.727814
3213.930649,-631.705166,-2048.256146,-10796.415571
3213.933206,-2392.822600,4498.506488,-8958.727814
3213.935763,2488.535504,535.992262,-9035.298138
3213.938319,3101.098090,-1856.830338,-10968.698798
3213.940876,-1167.697429,1761.117434,-10336.993632
3213.943435,899.701298,3656.232933,-8729.016845
3213.945994,-421.136778,-1761.117434,-10088.140082
3213.948552,-689.132909,1952.543242,-9533.005238
3213.951111,2679.961312,899.701298,-9858.429112
3213.953669,2009.970984,1397.408398,-10068.997501
3213.956228,-38.285162,1627.119368,-9705.288466
3213.958787,-229.710970,689.132909,-9705.288466
3213.961345,918.843878,784.845813,-9533.005238
3213.963904,1627.119368,2105.683888,-9801.001370
3213.966463,1301.695494,-267.996131,-10490.134278
3213.969021,38.285162,2335.394858,-9475.577496
3213.971580,1741.974853,1052.841944,-9399.007173
3213.974139,-861.416136,-1014.556782,-10279.565890
3213.976697,2909.672282,4689.932296,-9054.440718
3213.979256,2488.535504,267.996131,-10585.847182
3213.981814,803.988394,2813.959378,-10164.710405
3213.984373,325.423874,1799.402595,-9207.581365
3213.986932,2488.535504,497.707101,-9265.009107
3213.989490,516.849682,-1244.267752,-10853.843314
3213.992049,-1052.841944,2239.681954,-10088.140082
3213.994608,1397.408398,-57.427742,-9743.573627
3213.997166,-1875.972918,-516.849682,-10336.993632
3213.999725,1359.123237,2775.674216,-9437.292334
3214.002283,-114.855485,-1856.830338,-9934.999435
3214.004842,-2124.826469,0.000000,-9743.573627
3214.007401,842.273555,-746.560651,-10394.421374
3214.009959,1339.980656,1052.841944,-10011.569758
3214.012518,497.707101,1588.834206,-9456.434915
3214.015077,-899.701298,363.709035,-9915.856854
3214.017635,-957.129040,727.418070,-9858.429112
3214.020194,-306.281293,306.281293,-9781.858789
3214.022753,1569.691626,-918.843878,-10356.136213
3214.025311,38.285162,784.845813,-9858.429112
3214.027870,-535.992262,689.132909,-9801.001370
3214.030428,133.998066,497.707101,-9686.145885
3214.032987,612.562586,478.564520,-10107.282662
3214.035546,-38.285162,421.136778,-10030.712339
3214.038104,-574.277424,574.277424,-9801.001370
3214.040663,-746.560651,-229.710970,-9801.001370
3214.043222,-267.996131,-267.996131,-9915.856854
3214.045782,2909.672282,1990.828403,-9437.292334
3214.048342,-861.416136,-2641.676150,-10796.415571
3214.050903,-2526.820666,880.558717,-9858.429112
3214.053463,-842.273555,363.709035,-9207.581365
3214.056023,2316.252277,2124.826469,-9705.288466
3214.058583,1684.547110,-842.273555,-10279.565890
3214.061144,-172.283227,401.994197,-9571.290400
3214.063704,2182.254211,6106.483275,-9226.723946
3214.066264,727.418070,-1627.119368,-10872.985894
3214.068825,-2852.244539,3445.664544,-9226.723946
3214.071385,2316.252277,1186.840010,-8920.442653
3214.073945,5130.211654,-2565.105827,-10815.558152
3214.076506,-363.709035,4096.512291,-9533.005238
3214.079066,2009.970984,1359.123237,-9762.716208
3214.081626,-38.285162,-1071.984525,-10222.138147
3214.084187,-689.132909,2469.392923,-9265.009107
3214.086747,2526.820666,880.558717,-9820.143950
3214.089307,2660.818731,1014.556782,-10202.995566
3214.091868,-842.273555,1990.828403,-9647.860723
3214.094428,114.855485,95.712904,-10068.997501
3214.096988,995.414202,1588.834206,-9494.720077
3214.099549,1301.695494,1722.832272,-9686.145885
3214.102109,803.988394,-459.421939,-10547.562021
3214.104669,191.425808,2584.248408,-9092.725880
3214.107230,-229.710970,1033.699363,-9973.284597
3214.109790,2220.539373,-210.568389,-10279.565890
3214.112350,957.129040,2373.680019,-9705.288466
3214.114911,2986.242605,4058.227130,-9552.147819
3214.117471,1167.697429,172.283227,-10202.995566
3214.120031,-2813.959378,-248.853550,-9513.862658
3214.122591,1741.974853,3235.096155,-9092.725880
3214.125152,3847.658741,-842.273555,-10796.415571
3214.127713,-2392.822600,-3751.945837,-10738.987829
3214.130275,-631.705166,4881.358104,-8461.020714
3214.132836,3005.385186,-1473.978722,-10068.997501
3214.135397,-1378.265818,-1205.982590,-10547.562021
3214.137959,-2009.970984,382.851616,-9552.147819
3214.140520,1875.972918,-248.853550,-10011.569758
3214.143081,861.416136,-287.138712,-10298.708470
3214.145643,153.140646,1225.125171,-9494.720077
3214.148204,727.418070,1435.693560,-9705.288466
3214.150765,-229.710970,-19.142581,-10030.712339
3214.153327,-746.560651,-210.568389,-9973.284597
3214.155888,995.414202,1148.554848,-9781.858789
3214.158450,1416.550979,-842.273555,-10126.425243
3214.161011,-287.138712,727.418070,-10107.282662
3214.163572,-191.425808,1167.697429,-9801.001370
3214.166134,957.129040,-38.285162,-9628.718142
3214.168695,-153.140646,133.998066,-9934.999435
3214.171256,-401.994197,421.136778,-9973.284597
3214.173818,-191.425808,95.712904,-9915.856854
3214.176379,-344.566454,-727.418070,-10451.849117
3214.178941,1952.543242,2947.957443,-9150.153622
3214.181502,19.142581,-2775.674216,-10202.995566
3214.184063,-3120.240670,-133.998066,-10222.138147
3214.186625,-555.134843,746.560651,-9475.577496
3214.189186,2469.392923,2143.969050,-9781.858789
3214.191747,593.420005,-2450.250342,-10624.132344
3214.194309,-248.853550,995.414202,-9552.147819
3214.196870,4096.512291,6202.196179,-9418.149754
3214.199431,1052.841944,-478.564520,-10987.841379
3214.201993,-2813.959378,2009.970984,-9590.432981
3214.204554,1990.828403,1856.830338,-8595.018779
3214.207116,5034.498750,-2852.244539,-10643.274925
3214.209677,-363.709035,3579.662610,-9781.858789
3214.212238,1665.404530,2794.816797,-9609.575562
3214.214800,-689.132909,-1741.974853,-10815.558152
3214.217361,-650.847747,2526.820666,-8786.444587
3214.219922,3005.385186,76.570323,-9590.432981
3214.222484,1531.406464,172.283227,-10911.271056
3214.225045,-114.855485,3005.385186,-9513.862658
3214.227607,765.703232,516.849682,-9533.005238
3214.230169,306.281293,574.277424,-9360.722011
3214.232731,1014.556782,1837.687757,-9724.431046
3214.235294,1148.554848,880.558717,-10834.700733
3214.237856,937.986459,1512.263883,-9820.143950
3214.240419,-1033.699363,-133.998066,-9322.436850
3214.242981,2699.103893,2928.814862,-9341.579430
3214.245544,3407.379382,2201.396792,-10183.852986
3214.248106,937.986459,2297.109696,-10317.851051
3214.250669,-1895.115499,2239.681954,-9226.723946
3214.253231,1722.832272,-478.564520,-8882.157491
3214.255794,229.710970,-1359.123237,-10356.136213
3214.258356,-267.996131,3215.953574,-10317.851051
3214.260919,1205.982590,-1473.978722,-10470.991698
3214.263481,-1856.830338,1014.556782,-9475.577496
3214.266043,1627.119368,2488.535504,-8882.157491
3214.268606,-95.712904,-1091.127106,-9456.434915
3214.271168,-478.564520,-76.570323,-10088.140082
3214.273731,-133.998066,-229.710970,-10777.272990
3214.276293,1512.263883,1014.556782,-10011.569758
3214.278856,669.990328,2182.254211,-8518.448456
3214.281418,-842.273555,248.853550,-9877.571693
3214.283981,-727.418070,689.132909,-10394.421374
3214.286543,114.855485,1244.267752,-9781.858789
3214.289106,1378.265818,-1263.410333,-10451.849117
3214.291668,516.849682,918.843878,-9705.288466
3214.294231,-287.138712,1320.838075,-9571.290400
3214.296793,-153.140646,-1014.556782,-10279.565890
3214.299356,1359.123237,1569.691626,-9590.432981
3214.301918,-248.853550,-631.705166,-10490.134278
3214.304480,-1091.127106,-57.427742,-10183.852986
3214.307043,-267.996131,784.845813,-9322.436850
3214.309605,2603.390989,497.707101,-9590.432981
3214.312168,-918.843878,-2545.963246,-10777.272990
3214.314730,-3330.809059,497.707101,-9743.573627
3214.317293,-478.564520,-191.425808,-9686.145885
3214.319855,2335.394858,2105.683888,-9801.001370
3214.322418,497.707101,-1895.115499,-10183.852986
3214.324980,-421.136778,1205.982590,-9647.860723
3214.327543,4364.508422,5723.631659,-9284.151688
3214.330105,-823.130974,-1397.408398,-10700.702667
3214.332669,-2297.109696,5130.211654,-8977.870395
3214.335232,2316.252277,-210.568389,-9341.579430
3214.337795,1588.834206,-2182.254211,-10336.993632
3214.340359,-344.566454,3617.947771,-9973.284597
3214.342922,2220.539373,1799.402595,-9705.288466
3214.345486,-1225.125171,-784.845813,-10030.712339
3214.348049,-861.416136,2488.535504,-9303.294269
3214.350613,1684.547110,1359.123237,-9686.145885
3214.353176,2622.533570,1761.117434,-10107.282662
3214.355740,-497.707101,267.996131,-10298.708470
3214.358303,-114.855485,1282.552914,-9399.007173
3214.360867,2163.111630,1263.410333,-9265.009107
3214.363430,267.996131,-382.851616,-10451.849117
3214.365994,918.843878,2813.959378,-9877.571693
3214.368557,861.416136,1416.550979,-9839.286531
3214.371120,727.418070,-1033.699363,-10049.854920
3214.373684,1186.840010,1493.121302,-9647.860723
3214.376247,2507.678085,3962.514226,-9705.288466
3214.378811,1761.117434,631.705166,-10356.136213
3214.381374,-2986.242605,-899.701298,-9877.571693
3214.383938,1205.982590,3503.092286,-8767.302006
3214.386501,4479.363907,-765.703232,-10336.993632
3214.389065,-3445.664544,-2277.967115,-11026.126541
3214.391628,1148.554848,5608.776174,-8422.735552
3214.394192,1818.545176,-3579.662610,-10719.845248
3214.396755,-1454.836141,-1473.978722,-10413.563955
3214.399318,-2545.963246,191.425808,-9456.434915
3214.401882,2507.678085,-229.710970,-10241.280728
3214.404445,937.986459,-95.712904,-10298.708470
3214.407009,344.566454,1167.697429,-9724.431046
3214.409572,669.990328,1282.552914,-9686.145885
3214.412136,-267.996131,38.285162,-9628.718142
3214.414699,-1167.697429,478.564520,-9743.573627
3214.417263,1569.691626,1091.127106,-9839.286531
3214.419826,1531.406464,-325.423874,-10164.710405
3214.422390,-421.136778,459.421939,-10049.854920
3214.424953,-95.712904,937.986459,-9437.292334
3214.427516,746.560651,172.283227,-9494.720077
3214.430080,555.134843,-57.427742,-10145.567824
3214.432643,-784.845813,267.996131,-10202.995566
3214.435207,-497.707101,459.421939,-9954.142016
3214.437772,2086.541307,459.421939,-9628.718142
3214.440336,-1071.984525,-1856.830338,-10222.138147
3214.442900,-2660.818731,497.707101,-9877.571693
3214.445464,-287.138712,0.000000,-9858.429112
3214.448028,2086.541307,2201.396792,-9877.571693
3214.450592,-95.712904,-2813.959378,-10643.274925
3214.453156,-440.279358,1703.689691,-9513.862658
3214.455720,4594.219392,5264.209720,-8748.159426
3214.458284,-746.560651,-1014.556782,-10662.417506
3214.460848,-1454.836141,5130.211654,-9341.579430
3214.463413,1569.691626,-306.281293,-9399.007173
3214.465977,727.418070,-784.845813,-10624.132344
3214.468541,1014.556782,4230.510357,-9552.147819
3214.471105,1837.687757,172.283227,-9801.001370
3214.473669,-2220.539373,-153.140646,-10470.991698
3214.476233,57.427742,2488.535504,-9322.436850
3214.478797,2756.531635,-440.279358,-9877.571693
3214.481361,363.709035,2239.681954,-9973.284597
3214.483925,1703.689691,459.421939,-10222.138147
3214.486489,-306.281293,1569.691626,-9571.290400
3214.489053,19.142581,555.134843,-9494.720077
3214.491618,1129.412267,1186.840010,-9647.860723
3214.494182,1914.258080,1550.549045,-10049.854920
3214.496746,-1091.127106,689.132909,-10202.995566
3214.499310,2584.248408,2584.248408,-9379.864592
3214.501874,2258.824534,842.273555,-9724.431046
3214.504438,1703.689691,2890.529701,-9877.571693
3214.507002,1703.689691,2143.969050,-9705.288466
3214.509566,-1761.117434,-1301.695494,-10068.997501
3214.512130,440.279358,3292.523898,-9284.151688
3214.514694,3215.953574,3943.371645,-9303.294269
3214.517259,-937.986459,-4000.799387,-10700.702667
3214.519823,-1761.117434,3866.801322,-9054.440718
3214.522387,2488.535504,593.420005,-9571.290400
3214.524951,-899.701298,-2067.398726,-10719.845248
3214.527515,-2756.531635,229.710970,-9552.147819
3214.530079,2239.681954,287.138712,-9896.714274
3214.532643,1435.693560,-421.136778,-10298.708470
3214.535207,-95.712904,689.132909,-9762.716208
3214.537772,19.142581,1646.261949,-9456.434915
3214.540337,-267.996131,-19.142581,-9839.286531
3214.542902,-401.994197,287.138712,-9858.429112
3214.545466,1014.556782,-306.281293,-9973.284597
3214.548031,459.421939,267.996131,-10279.565890
3214.550596,-267.996131,937.986459,-10298.708470
3214.553161,133.998066,248.853550,-9533.005238
3214.555725,516.849682,746.560651,-9245.866526
3214.558290,325.423874,-1167.697429,-10451.849117
3214.560855,-957.129040,574.277424,-10164.710405
3214.563420,555.134843,708.275490,-9992.427178
3214.565984,172.283227,382.851616,-9915.856854
3214.568549,-210.568389,516.849682,-9379.864592
3214.571114,-2143.969050,-2947.957443,-10202.995566
3214.573679,995.414202,172.283227,-10451.849117
3214.576244,1244.267752,937.986459,-10317.851051
3214.578808,995.414202,1397.408398,-9533.005238
3214.581373,899.701298,-19.142581,-9571.290400
3214.583938,-440.279358,2526.820666,-10183.852986
3214.586503,1473.978722,3847.658741,-9456.434915
3214.589067,-95.712904,-1531.406464,-10164.710405
3214.591632,172.283227,1780.260014,-9686.145885
3214.594197,4766.502619,-325.423874,-9762.716208
3214.596762,153.140646,-95.712904,-10317.851051
3214.599326,-842.273555,4268.795518,-9131.011042
3214.601891,555.134843,-363.709035,-10107.282662
3214.604456,-287.138712,1665.404530,-9705.288466
3214.607021,1454.836141,1071.984525,-9494.720077
3214.609586,1416.550979,57.427742,-10317.851051
3214.612150,-535.992262,1397.408398,-9724.431046
3214.614715,1722.832272,669.990328,-9705.288466
3214.617280,-344.566454,38.285162,-10068.997501
3214.619845,1990.828403,2354.537438,-9379.864592
3214.622409,344.566454,-76.570323,-10317.851051
3214.624974,1703.689691,2201.396792,-9456.434915
3214.627539,1741.974853,1473.978722,-9475.577496
3214.630104,2143.969050,2986.242605,-10222.138147
3214.632669,1129.412267,2584.248408,-9667.003304
3214.635233,-1014.556782,-2067.398726,-10107.282662
3214.637798,133.998066,2105.683888,-9686.145885
3214.640346,4441.078746,2947.957443,-9245.866526
3214.642894,-2048.256146,-4345.365842,-11083.554283
3214.645443,-1225.125171,5800.201982,-8556.733618
3214.647991,2488.535504,-1761.117434,-10049.854920
3214.650539,-1741.974853,-1627.119368,-10834.700733
3214.653087,-2622.533570,1263.410333,-9494.720077
3214.655636,2316.252277,861.416136,-9915.856854
3214.658184,1875.972918,-765.703232,-10202.995566
3214.660732,-287.138712,1225.125171,-9533.005238
3214.663280,440.279358,1225.125171,-9839.286531
3214.665828,-478.564520,440.279358,-9858.429112
3214.668377,-669.990328,-267.996131,-10011.569758
3214.670925,535.992262,727.418070,-9896.714274
3214.673473,899.701298,-76.570323,-9934.999435
3214.676021,248.853550,669.990328,-10030.712339
3214.678569,114.855485,478.564520,-10107.282662
3214.681118,-191.425808,478.564520,-9647.860723
3214.683666,-172.283227,-287.138712,-10222.138147
3214.686214,-344.566454,325.423874,-10068.997501
3214.688762,1607.976787,1225.125171,-9571.290400
3214.691310,-1473.978722,-1722.832272,-10470.991698
3214.693859,-1186.840010,1550.549045,-9456.434915
3214.696407,-382.851616,-957.129040,-9667.003304
3214.698955,2373.680019,229.710970,-10298.708470
3214.701503,-689.132909,-2335.394858,-10528.419440
3214.704051,-344.566454,2603.390989,-9322.436850
3214.706600,4957.928427,4249.652938,-8977.870395
3214.709148,-765.703232,-689.132909,-10585.847182
3214.711696,-401.994197,5570.491013,-8939.585234
3214.714244,1550.549045,-1359.123237,-9647.860723
3214.716792,-133.998066,-210.568389,-10088.140082
3214.719341,3885.943902,2737.389054,-9016.155557
3214.721889,880.558717,-2029.113565,-10681.560086
3214.724437,-2143.969050,784.845813,-10202.995566
3214.726985,19.142581,2258.824534,-9245.866526
3214.729533,2756.531635,-95.712904,-9992.427178
3214.732082,153.140646,1052.841944,-9839.286531
3214.734630,1129.412267,1167.697429,-9992.427178
3214.737178,593.420005,-172.283227,-9992.427178
3214.739726,-210.568389,1741.974853,-9494.720077
3214.742277,1665.404530,172.283227,-9896.714274
3214.744828,689.132909,823.130974,-10068.997501
3214.747379,1646.261949,2775.674216,-9475.577496
3214.749930,1512.263883,995.414202,-10030.712339
3214.752481,1914.258080,3675.375514,-9705.288466
3214.755031,1512.263883,2143.969050,-9437.292334
3214.757582,-2584.248408,-1148.554848,-10547.562021
3214.760133,210.568389,3885.943902,-9207.581365
3214.762684,4938.785846,2622.533570,-9150.153622
3214.765235,-2909.672282,-4134.797453,-11562.118803
3214.767786,-459.421939,6527.620053,-8173.882002
3214.770337,2354.537438,-2507.678085,-10107.282662
3214.772887,-2354.537438,-842.273555,-10968.698798
3214.775438,-1473.978722,1263.410333,-9188.438784
3214.777989,2794.816797,-957.129040,-9801.001370
3214.780540,-497.707101,-574.277424,-10375.278794
3214.783091,-516.849682,1703.689691,-9456.434915
3214.785642,823.130974,1186.840010,-9667.003304
3214.788192,19.142581,-344.566454,-10088.140082
3214.790743,-861.416136,689.132909,-9399.007173
3214.793294,1339.980656,76.570323,-9647.860723
3214.795845,918.843878,-708.275490,-10375.278794
3214.798396,-306.281293,1339.980656,-9896.714274
3214.800947,95.712904,-382.851616,-9934.999435
3214.803498,-363.709035,842.273555,-9667.003304
3214.806048,-421.136778,-95.712904,-10356.136213
3214.808599,76.570323,-95.712904,-10183.852986
3214.811150,669.990328,2488.535504,-9667.003304
3214.813701,-842.273555,-2029.113565,-10068.997501
3214.816252,-2794.816797,-497.707101,-9820.143950
3214.818803,19.142581,-248.853550,-9801.001370
3214.821354,2297.109696,1952.543242,-10088.140082
3214.823904,-861.416136,-2545.963246,-10892.128475
3214.826455,-689.132909,2316.252277,-9150.153622
3214.829006,3675.375514,6221.338760,-8824.729749
3214.831557,1397.408398,-1837.687757,-11160.124606
3214.834108,-2009.970984,4211.367776,-9379.864592
3214.836659,1722.832272,1301.695494,-8939.585234
3214.839210,1359.123237,-2737.389054,-10758.130410
3214.841760,2182.254211,4594.219392,-9150.153622
3214.844314,2258.824534,-363.709035,-10107.282662
3214.846867,-1990.828403,363.709035,-10604.989763
3214.849421,-114.855485,2565.105827,-9111.868461
3214.851974,2660.818731,-612.562586,-10088.140082
3214.854527,1148.554848,1205.982590,-10202.995566
3214.857081,172.283227,1952.543242,-9647.860723
3214.859634,1684.547110,-38.285162,-10126.425243
3214.862188,-1397.408398,535.992262,-9724.431046
3214.864741,2411.965181,1665.404530,-9245.866526
3214.867294,957.129040,-689.132909,-10566.704602
3214.869848,880.558717,3503.092286,-9877.571693
3214.872401,2909.672282,1741.974853,-9360.722011
3214.874955,1263.410333,325.423874,-10202.995566
3214.877508,-2105.683888,2316.252277,-9571.290400
3214.880061,1895.115499,1205.982590,-9533.005238
3214.882615,1167.697429,-1225.125171,-10872.985894
3214.885168,976.271621,3905.086483,-9533.005238
3214.887722,555.134843,-2143.969050,-9801.001370
3214.890275,-2622.533570,1684.547110,-9781.858789
3214.892828,1282.552914,2277.967115,-9226.723946
3214.895382,401.994197,-2967.100024,-10566.704602
3214.897935,-2756.531635,-114.855485,-10107.282662
3214.900489,210.568389,1052.841944,-9705.288466
3214.903042,2239.681954,899.701298,-10030.712339
3214.905595,-114.855485,1588.834206,-9418.149754
3214.908149,-421.136778,976.271621,-9877.571693
3214.910702,76.570323,229.710970,-10049.854920
3214.913256,267.996131,1244.267752,-9475.577496
3214.915809,1071.984525,-1148.554848,-10088.140082
3214.918362,-363.709035,1033.699363,-9954.142016
3214.920916,-19.142581,363.709035,-9992.427178
3214.923469,574.277424,191.425808,-9705.288466
3214.926023,0.000000,765.703232,-9590.432981
3214.928576,-306.281293,-306.281293,-10126.425243
3214.931129,1473.978722,1225.125171,-10011.569758
3214.933683,-1569.691626,-1531.406464,-10241.280728
3214.936236,-1646.261949,880.558717,-9456.434915
3214.938790,-631.705166,-1359.123237,-9858.429112
3214.941343,2794.816797,784.845813,-10088.140082
3214.943896,-1512.263883,-2584.248408,-11064.411702
3214.946452,-1186.840010,2660.818731,-9265.009107
3214.949007,4900.500685,4747.360038,-8614.161360
3214.951562,-57.427742,-1416.550979,-11198.409768
3214.954118,-746.560651,6202.196179,-9054.440718
3214.956673,1703.689691,-555.134843,-9418.149754
3214.959228,-267.996131,-1033.699363,-10643.274925
3214.961784,2718.246474,2928.814862,-9092.725880
3214.964339,1722.832272,-1033.699363,-10528.419440
3214.966894,-1282.552914,2182.254211,-10011.569758
3214.969449,-478.564520,2239.681954,-9111.868461
3214.972005,1588.834206,287.138712,-9858.429112
3214.974560,1167.697429,459.421939,-10030.712339
3214.977115,1588.834206,1799.402595,-9820.143950
3214.979671,0.000000,-57.427742,-10202.995566
3214.982226,976.271621,1454.836141,-9245.866526
3214.984781,976.271621,937.986459,-9609.575562
3214.987337,1244.267752,-612.562586,-10222.138147
3214.989892,1703.689691,3273.381317,-9513.862658
3214.992447,2603.390989,2775.674216,-9628.718142
3214.995003,727.418070,612.562586,-9839.286531
3214.997558,-2507.678085,2143.969050,-9571.290400
3215.000113,3005.385186,2201.396792,-9303.294269
3215.002669,1875.972918,-2163.111630,-11006.983960
3215.005224,-248.853550,3388.236802,-9839.286531
3215.007779,1378.265818,-574.277424,-9265.009107
3215.010334,-3292.523898,-382.851616,-10451.849117
3215.012890,535.992262,3426.521963,-9265.009107
3215.015445,1454.836141,-574.277424,-9571.290400
3215.018000,-746.560651,-2909.672282,-10490.134278
3215.020556,-765.703232,1320.838075,-9762.716208
3215.023111,1971.685822,1129.412267,-10126.425243
3215.025666,-153.140646,1550.549045,-9533.005238
3215.028222,-708.275490,1512.263883,-9686.145885
3215.030777,306.281293,1186.840010,-10068.997501
3215.033332,593.420005,-650.847747,-9934.999435
3215.035888,229.710970,0.000000,-9992.427178
3215.038443,0.000000,669.990328,-10317.851051
3215.040998,-344.566454,-401.994197,-9992.427178
3215.043553,-133.998066,1397.408398,-9303.294269
3215.046109,344.566454,-765.703232,-10088.140082
3215.048666,0.000000,-153.140646,-10356.136213
3215.051223,-229.710970,2947.957443,-9628.718142
3215.053780,229.710970,-1244.267752,-10107.282662
3215.056338,-2890.529701,-2737.389054,-10375.278794
3215.058895,-459.421939,631.705166,-9494.720077
3215.061452,3349.951640,1914.258080,-10088.140082
3215.064009,784.845813,842.273555,-9973.284597
3215.066567,-19.142581,880.558717,-8958.727814
3215.069124,2201.396792,5168.496816,-9552.147819
3215.071681,3177.668413,-421.136778,-10700.702667
3215.074238,-1837.687757,1799.402595,-9571.290400
3215.076796,555.134843,1569.691626,-9322.436850
3215.079353,2794.816797,-3043.670347,-10585.847182
3215.081910,1416.550979,4287.938099,-9111.868461
3215.084467,1416.550979,784.845813,-10030.712339
3215.087025,440.279358,19.142581,-10088.140082
3215.089582,-918.843878,1895.115499,-8939.585234
3215.092139,1665.404530,57.427742,-9915.856854
3215.094696,1914.258080,1033.699363,-10202.995566
3215.097254,-574.277424,1550.549045,-9801.001370
3215.099811,727.418070,440.279358,-9934.999435
3215.102368,1378.265818,708.275490,-9513.862658
3215.104925,191.425808,650.847747,-9781.858789
3215.107483,2565.105827,2622.533570,-9896.714274
3215.110040,3330.809059,2718.246474,-9379.864592
3215.112597,267.996131,937.986459,-9762.716208
3215.115154,-1473.978722,2928.814862,-9609.575562
3215.117712,1741.974853,-612.562586,-9743.573627
3215.120269,1014.556782,440.279358,-10183.852986
3215.122826,2603.390989,3943.371645,-9762.716208
3215.125383,-421.136778,-3675.375514,-10528.419440
3215.127941,-2545.963246,4383.651003,-8843.872330
3215.130498,1320.838075,650.847747,-9877.571693
3215.133055,1282.552914,-2679.961312,-10298.708470
3215.135612,-2220.539373,-1378.265818,-10088.140082
3215.138170,1320.838075,1282.552914,-9743.573627
3215.140727,1933.400661,229.710970,-10145.567824
3215.143284,-995.414202,1703.689691,-9667.003304
3215.145841,76.570323,1569.691626,-9513.862658
3215.148399,784.845813,-210.568389,-10030.712339
3215.150957,-689.132909,267.996131,-10164.710405
3215.153516,918.843878,823.130974,-9667.003304
3215.156075,593.420005,1110.269686,-9954.142016
3215.158633,0.000000,-248.853550,-10126.425243
3215.161192,-555.134843,1033.699363,-9494.720077
3215.163750,-38.285162,267.996131,-9858.429112
3215.166309,861.416136,-325.423874,-10279.565890
3215.168868,-765.703232,1359.123237,-9801.001370
3215.171426,-57.427742,555.134843,-9667.003304
3215.173985,-2220.539373,-3349.951640,-10279.565890
3215.176544,1627.119368,-459.421939,-10202.995566
3215.179102,-19.142581,38.285162,-10317.851051
3215.181661,612.562586,1531.406464,-9533.005238
3215.184220,880.558717,899.701298,-9456.434915
3215.186778,1895.115499,5436.492947,-9341.579430
3215.189337,3101.098090,880.558717,-10279.565890
3215.191896,421.136778,-937.986459,-9647.860723
3215.194454,-746.560651,765.703232,-9934.999435
3215.197013,3388.236802,-1129.412267,-9954.142016
3215.199572,1493.121302,1914.258080,-9820.143950
3215.202130,325.423874,2411.965181,-9609.575562
3215.204689,0.000000,0.000000,-10049.854920
3215.207248,-803.988394,2029.113565,-9188.438784
3215.209806,1856.830338,210.568389,-9609.575562
3215.212365,1799.402595,287.138712,-10547.562021
3215.214924,-1129.412267,1627.119368,-9896.714274
3215.217482,918.843878,1148.554848,-9513.862658
3215.220041,593.420005,-880.558717,-10145.567824
3215.222600,2201.396792,3235.096155,-9265.009107
3215.225158,2316.252277,861.416136,-10413.563955
3215.227717,1837.687757,3005.385186,-9896.714274
3215.230275,153.140646,2507.678085,-9092.725880
3215.232834,-2354.537438,-1665.404530,-10490.134278
3215.235393,2967.100024,4326.223261,-9265.009107
3215.237951,3943.371645,2067.398726,-9571.290400
3215.240510,-3005.385186,-3369.094221,-11562.118803
3215.243069,-191.425808,6278.766502,-8346.165229
3215.245627,976.271621,-3215.953574,-10260.423309
3215.248186,-2660.818731,-191.425808,-10872.985894
3215.250745,210.568389,861.416136,-9265.009107
3215.253305,2277.967115,-2201.396792,-10068.997501
3215.255865,-1703.689691,1225.125171,-10126.425243
3215.258425,727.418070,1435.693560,-9973.284597
3215.260985,478.564520,1741.974853,-9092.725880
3215.263545,-497.707101,765.703232,-10011.569758
3215.266105,287.138712,-57.427742,-9973.284597
3215.268665,172.283227,325.423874,-9667.003304
3215.271225,976.271621,708.275490,-9934.999435
3215.273784,-114.855485,57.427742,-10011.569758
3215.276344,191.425808,1837.687757,-9533.005238
3215.278904,287.138712,-765.703232,-9934.999435
3215.281464,-248.853550,-191.425808,-9877.571693
3215.284024,306.281293,2833.101958,-9475.577496
3215.286584,-95.712904,325.423874,-9533.005238
3215.289144,-1971.685822,-3024.527766,-10145.567824
3215.291704,-325.423874,229.710970,-9820.143950
3215.294264,2833.101958,1569.691626,-9896.714274
3215.296824,0.000000,-401.994197,-10279.565890
3215.299384,-1167.697429,727.418070,-9609.575562
3215.301944,3885.943902,5800.201982,-8997.012976
3215.304504,2201.396792,-1301.695494,-10872.985894
3215.307064,-1799.402595,3924.229064,-9475.577496
3215.309624,267.996131,1741.974853,-9437.292334
3215.312184,2373.680019,-2335.394858,-10470.991698
3215.314744,1837.687757,3445.664544,-9513.862658
3215.317304,1359.123237,1301.695494,-9973.284597
3215.319864,-382.851616,861.416136,-10222.138147
3215.322424,-401.994197,1416.550979,-9207.581365
3215.324984,1301.695494,95.712904,-9686.145885
3215.327544,976.271621,1320.838075,-10222.138147
3215.330104,612.562586,1014.556782,-10068.997501
3215.332664,516.849682,976.271621,-9839.286531
3215.335224,-133.998066,344.566454,-9609.575562
3215.337784,2794.816797,2163.111630,-9533.005238
3215.340344,2086.541307,727.418070,-10528.419440
3215.342904,1722.832272,2928.814862,-9513.862658
3215.345464,440.279358,1914.258080,-9533.005238
3215.348024,-2029.113565,-1607.976787,-10566.704602
3215.350584,2641.676150,4728.217458,-8863.014910
3215.353144,4019.941968,-669.990328,-10356.136213
3215.355705,-2699.103893,-3426.521963,-11217.552349
3215.358266,-593.420005,6470.192310,-8001.598774
3215.360827,918.843878,-3139.383251,-10509.276859
3215.363389,-2641.676150,-880.558717,-10834.700733
3215.365950,-229.710970,1473.978722,-8786.444587
3215.368511,2737.389054,-2584.248408,-10317.851051
3215.371072,-1627.119368,1416.550979,-10202.995566
3215.373634,842.273555,1990.828403,-9571.290400
3215.376195,459.421939,784.845813,-9533.005238
3215.378756,95.712904,650.847747,-9686.145885
3215.381317,-669.990328,-535.992262,-10088.140082
3215.383879,1033.699363,803.988394,-9781.858789
3215.386440,478.564520,842.273555,-9705.288466
3215.389001,-172.283227,-516.849682,-10241.280728
3215.391562,-421.136778,1339.980656,-9437.292334
3215.394124,459.421939,-19.142581,-9724.431046
3215.396685,957.129040,-172.283227,-10375.278794
3215.399246,-1588.834206,593.420005,-10049.854920
3215.401807,-76.570323,1799.402595,-9245.866526
3215.404369,-459.421939,-2411.965181,-9954.142016
3215.406930,2469.392923,-306.281293,-10183.852986
3215.409491,-976.271621,-650.847747,-10413.563955
3215.412052,325.423874,2297.109696,-9379.864592
3215.414613,1971.685822,823.130974,-9494.720077
3215.417175,1244.267752,4421.936165,-9915.856854
3215.419736,3254.238736,2928.814862,-9762.716208
3215.422297,-861.416136,-1282.552914,-10202.995566
3215.424858,-689.132909,2277.967115,-9533.005238
3215.427420,2622.533570,153.140646,-9609.575562
3215.429981,2545.963246,1282.552914,-10241.280728
3215.432542,-114.855485,1990.828403,-9858.429112
3215.435103,133.998066,1665.404530,-9571.290400
3215.437665,-76.570323,593.420005,-9628.718142
3215.440227,823.130974,1014.556782,-9533.005238
3215.442789,1607.976787,803.988394,-10241.280728
3215.445351,363.709035,1186.840010,-10164.710405
3215.447913,-363.709035,918.843878,-9533.005238
3215.450475,1684.547110,995.414202,-9628.718142
3215.453037,2201.396792,1205.982590,-10011.569758
3215.455599,2411.965181,2775.674216,-9934.999435
3215.458161,880.558717,1837.687757,-9552.147819
3215.460723,-2277.967115,1263.410333,-9628.718142
3215.463285,1799.402595,1646.261949,-9207.581365
3215.465847,1952.543242,-1091.127106,-10490.134278
3215.468409,1378.265818,3656.232933,-10107.282662
3215.470971,612.562586,-1761.117434,-9896.714274
3215.473533,-1761.117434,-2833.101958,-10470.991698
3215.476095,-1895.115499,2488.535504,-9628.718142
3215.478657,1780.260014,-2009.970984,-10011.569758
3215.481219,-1110.269686,-2871.387120,-10394.421374
3215.483782,114.855485,2488.535504,-9494.720077
3215.486344,2469.392923,0.000000,-10317.851051
3215.488906,-1301.695494,995.414202,-9475.577496
3215.491468,-803.988394,2373.680019,-9284.151688
3215.494030,1799.402595,-459.421939,-10528.419440
3215.496592,937.986459,-631.705166,-10260.423309
3215.499154,-631.705166,708.275490,-9781.858789
3215.501716,344.566454,440.279358,-9820.143950
3215.504278,440.279358,19.142581,-10107.282662
3215.506840,-516.849682,1091.127106,-9590.432981
3215.509402,1378.265818,210.568389,-9934.999435
3215.511964,-1110.269686,-191.425808,-10451.849117
3215.514526,-535.992262,899.701298,-9245.866526
3215.517088,-1550.549045,-2584.248408,-10164.710405
3215.519650,1971.685822,-555.134843,-10528.419440
3215.522212,-459.421939,210.568389,-10298.708470
3215.524774,172.283227,1971.685822,-9303.294269
3215.527336,1071.984525,497.707101,-9609.575562
3215.529898,1990.828403,5187.639397,-9590.432981
3215.532460,3522.234867,1799.402595,-10030.712339
3215.535022,-1071.984525,-76.570323,-10068.997501
3215.537584,-325.423874,1722.832272,-9284.151688
3215.540147,1741.974853,-2335.394858,-10183.852986
3215.542709,2833.101958,1665.404530,-10068.997501
3215.545272,248.853550,2029.113565,-10030.712339
3215.547835,689.132909,727.418070,-9628.718142
3215.550398,-1071.984525,1167.697429,-9284.151688
3215.552961,1799.402595,555.134843,-9552.147819
3215.555524,1148.554848,727.418070,-10164.710405
3215.558086,363.709035,1569.691626,-10164.710405
3215.560649,57.427742,516.849682,-9628.718142
3215.563212,1933.400661,1569.691626,-9226.723946
3215.565775,1895.115499,1416.550979,-10030.712339
3215.568338,2086.541307,2335.394858,-9724.431046
3215.570901,937.986459,2565.105827,-9686.145885
3215.573464,-2718.246474,-306.281293,-10049.854920
3215.576026,2469.392923,3579.662610,-8958.727814
3215.578589,3522.234867,-918.843878,-10375.278794
3215.581152,-957.129040,1167.697429,-10624.132344
3215.583715,1110.269686,2086.541307,-8997.012976
3215.586278,-2258.824534,-2297.109696,-10470.991698
3215.588841,-2699.103893,344.566454,-10279.565890
3215.591404,765.703232,133.998066,-9322.436850
3215.593966,1129.412267,-3273.381317,-10509.276859
3215.596529,-1607.976787,2469.392923,-9839.286531
3215.599092,1186.840010,1282.552914,-10107.282662
3215.601655,784.845813,401.994197,-9379.864592
3215.604218,-937.986459,1186.840010,-9686.145885
3215.606781,497.707101,38.285162,-10241.280728
3215.609344,1378.265818,497.707101,-9934.999435
3215.611906,-459.421939,823.130974,-9896.714274
3215.614469,153.140646,-421.136778,-9954.142016
3215.617032,-363.709035,1263.410333,-9494.720077
3215.619595,401.994197,344.566454,-9820.143950
3215.622158,1110.269686,1301.695494,-10088.140082
3215.624721,-669.990328,-535.992262,-10068.997501
3215.627283,-2354.537438,-1627.119368,-9781.858789
3215.629846,-382.851616,-746.560651,-9724.431046
3215.632409,3024.527766,2545.963246,-9839.286531
3215.634972,-918.843878,-2335.394858,-10949.556218
3215.637535,-1895.115499,1493.121302,-9513.862658
3215.640098,5111.069074,5091.926493,-8403.592971
3215.642661,1205.982590,-1225.125171,-10911.271056
3215.645224,-229.710970,5781.059402,-9150.153622
3215.647787,382.851616,1473.978722,-9226.723946
3215.650350,1014.556782,-2239.681954,-10490.134278
3215.652914,1531.406464,2852.244539,-9245.866526
3215.655477,2718.246474,1837.687757,-9934.999435
3215.658040,325.423874,363.709035,-10604.989763
3215.660603,-401.994197,1359.123237,-9379.864592
3215.663166,631.705166,497.707101,-9437.292334
3215.665729,918.843878,957.129040,-9877.571693
3215.668292,1933.400661,1416.550979,-10088.140082
3215.670856,-1359.123237,-612.562586,-9934.999435
3215.673419,784.845813,2526.820666,-8843.872330
3215.675982,2833.101958,593.420005,-10049.854920
3215.678545,1933.400661,2335.394858,-10068.997501
3215.681108,1129.412267,2794.816797,-9494.720077
3215.683671,-1646.261949,535.992262,-10202.995566
3215.686235,1071.984525,1952.543242,-9245.866526
3215.688798,1971.685822,-210.568389,-9992.427178
3215.691361,2067.398726,3407.379382,-10222.138147
3215.693924,765.703232,-1473.978722,-9820.143950
3215.696487,-2488.535504,-2660.818731,-10490.134278
3215.699050,-1837.687757,2431.107762,-9705.288466
3215.701613,1895.115499,-1722.832272,-9686.145885
3215.704177,-1225.125171,-3043.670347,-10662.417506
3215.706740,325.423874,2967.100024,-9533.005238
3215.709303,2890.529701,-114.855485,-10375.278794
3215.711866,-1435.693560,1071.984525,-9533.005238
3215.714429,-459.421939,1780.260014,-9226.723946
3215.716992,631.705166,-612.562586,-10490.134278
3215.719556,631.705166,1071.984525,-9724.431046
3215.722119,440.279358,861.416136,-9571.290400
3215.724682,248.853550,-535.992262,-10222.138147
3215.727245,-708.275490,1091.127106,-9533.005238
3215.729808,210.568389,535.992262,-9647.860723
3215.732371,842.273555,1493.121302,-10011.569758
3215.734934,-1435.693560,-1665.404530,-10317.851051
3215.737498,-1761.117434,-593.420005,-9705.288466
3215.740061,19.142581,-765.703232,-9667.003304
3215.742624,2833.101958,2297.109696,-9877.571693
3215.745188,-823.130974,-1837.687757,-10872.985894
3215.747751,-1990.828403,1205.982590,-9667.003304
3215.750315,5149.354235,5245.067139,-8729.016845
3215.752879,1722.832272,-1205.982590,-10853.843314
3215.755442,-842.273555,5283.352301,-9188.438784
3215.758006,861.416136,-19.142581,-9533.005238
3215.760570,-478.564520,-727.418070,-10413.563955
3215.763133,1301.695494,1550.549045,-9379.864592
3215.765697,2603.390989,2029.113565,-9992.427178
3215.768261,612.562586,153.140646,-10509.276859
3215.770824,-1607.976787,1148.554848,-9265.009107
3215.773388,803.988394,976.271621,-9456.434915
3215.775952,1895.115499,1339.980656,-9915.856854
3215.778516,-19.142581,861.416136,-10241.280728
3215.781079,-191.425808,899.701298,-9839.286531
3215.783643,1569.691626,2009.970984,-9169.296203
3215.786207,2086.541307,421.136778,-10011.569758
3215.788770,2009.970984,2297.109696,-9820.143950
3215.791334,669.990328,2679.961312,-9590.432981
3215.793898,-1895.115499,-1110.269686,-10375.278794
3215.796461,2067.398726,4134.797453,-8843.872330
3215.799025,3751.945837,76.570323,-9877.571693
3215.801589,-1493.121302,-382.851616,-10930.413637
3215.804152,976.271621,3771.088418,-8843.872330
3215.806716,-1282.552914,-3024.527766,-10298.708470
3215.809280,-2450.250342,1627.119368,-9954.142016
3215.811844,114.855485,1282.552914,-8939.585234
3215.814407,1722.832272,-2967.100024,-10413.563955
3215.816971,-1646.261949,1971.685822,-10164.710405
3215.819535,1071.984525,2163.111630,-9781.858789
3215.822098,229.710970,57.427742,-9475.577496
3215.824662,-880.558717,1014.556782,-9513.862658
3215.827226,535.992262,516.849682,-10394.421374
3215.829789,861.416136,325.423874,-10049.854920
3215.832353,-19.142581,842.273555,-9667.003304
3215.834917,95.712904,363.709035,-10011.569758
3215.837480,-248.853550,306.281293,-9609.575562
3215.840044,1607.976787,1416.550979,-9667.003304
3215.842608,-1646.261949,-1665.404530,-10738.987829
3215.845171,-1378.265818,957.129040,-9533.005238
3215.847718,-363.709035,-2067.398726,-9762.716208
3215.850265,1167.697429,-976.271621,-10049.854920
3215.852812,-95.712904,1052.841944,-10164.710405
3215.855359,861.416136,1244.267752,-9934.999435
3215.857906,-325.423874,95.712904,-9839.286531
3215.860453,823.130974,3005.385186,-10107.282662
3215.863000,3388.236802,4000.799387,-9284.151688
3215.865547,-133.998066,-803.988394,-9877.571693
3215.868094,-1301.695494,1512.263883,-9934.999435
3215.870641,1875.972918,-1722.832272,-10183.852986
3215.873188,2354.537438,1531.406464,-9686.145885
3215.875735,497.707101,2890.529701,-9877.571693
3215.878282,1473.978722,689.132909,-10183.852986
3215.880829,-1225.125171,1091.127106,-9188.438784
3215.883376,-1052.841944,153.140646,-10068.997501
3215.885923,1378.265818,2029.113565,-10068.997501
3215.888470,957.129040,-76.570323,-10413.563955
3215.891017,-76.570323,1071.984525,-9647.860723
3215.893564,2105.683888,1397.408398,-9475.577496
3215.896111,2526.820666,1665.404530,-10126.425243
3215.898658,1550.549045,2756.531635,-9743.573627
3215.901205,-1263.410333,1416.550979,-9781.858789
3215.903752,784.845813,861.416136,-9571.290400
3215.906299,1741.974853,-842.273555,-10088.140082
3215.908846,-306.281293,2086.541307,-10088.140082
3215.911393,976.271621,631.705166,-9609.575562
3215.913941,-2488.535504,-1397.408398,-10356.136213
3215.916488,-1205.982590,2545.963246,-9418.149754
3215.919035,1244.267752,-2947.957443,-10126.425243
3215.921582,-1990.828403,-2009.970984,-10509.276859
3215.924129,1416.550979,2928.814862,-9322.436850
3215.926676,2105.683888,-669.990328,-10604.989763
3215.929223,-574.277424,153.140646,-9705.288466
3215.931770,-1569.691626,2794.816797,-8977.870395
3215.934317,1780.260014,-784.845813,-10662.417506
3215.936864,899.701298,421.136778,-10375.278794
3215.939411,-535.992262,1665.404530,-9590.432981
3215.941958,421.136778,-669.990328,-9877.571693
3215.944505,-669.990328,421.136778,-9743.573627
3215.947052,669.990328,1607.976787,-9456.434915
3215.949601,-899.701298,-631.705166,-10470.991698
3215.952150,-1780.260014,133.998066,-9934.999435
3215.954700,-57.427742,-612.562586,-9169.296203
3215.957249,2182.254211,-1952.543242,-10260.423309
3215.959799,-1359.123237,287.138712,-10432.706536
3215.962348,574.277424,2737.389054,-9226.723946
3215.964898,823.130974,-57.427742,-10049.854920
3215.967447,2009.970984,5474.778109,-9437.292334
3215.969997,4345.365842,1761.117434,-9590.432981
3215.972546,-1454.836141,76.570323,-10145.567824
3215.975096,-459.421939,2067.398726,-9762.716208
3215.977645,1952.543242,-727.418070,-9686.145885
3215.980195,2679.961312,593.420005,-9934.999435
3215.982745,440.279358,3273.381317,-9628.718142
3215.985294,1071.984525,669.990328,-10049.854920
3215.987844,-765.703232,823.130974,-9475.577496
3215.990393,650.847747,976.271621,-9533.005238
3215.992943,1722.832272,478.564520,-10509.276859
3215.995492,-229.710970,555.134843,-10375.278794
3215.998042,899.701298,2450.250342,-9169.296203
3216.000591,2584.248408,516.849682,-9781.858789
3216.003141,2143.969050,1435.693560,-9954.142016
3216.005690,1014.556782,3751.945837,-9456.434915
3216.008240,-1761.117434,-861.416136,-10490.134278
3216.010790,1952.543242,3464.807125,-9111.868461
3216.013339,4479.363907,2009.970984,-9456.434915
3216.015889,-2277.967115,-2947.957443,-11274.980091
3216.018438,287.138712,5647.061336,-8709.874264
3216.020988,363.709035,-3158.525832,-10202.995566
3216.023537,-3330.809059,-287.138712,-10509.276859
3216.026087,1320.838075,172.283227,-9245.866526
3216.028636,1244.267752,-3464.807125,-10566.704602
3216.031186,-1971.685822,2756.531635,-9934.999435
3216.033735,2163.111630,1071.984525,-10049.854920
3216.036285,1320.838075,-133.998066,-9418.149754
3216.038834,-1225.125171,823.130974,-9762.716208
3216.041384,153.140646,382.851616,-10394.421374
3216.043934,1933.400661,497.707101,-9858.429112
3216.046483,-727.418070,-210.568389,-10030.712339
3216.049033,0.000000,1052.841944,-9647.860723
3216.051585,880.558717,-153.140646,-9686.145885
3216.054137,-1186.840010,2048.256146,-9628.718142
3216.056689,-306.281293,-1186.840010,-10375.278794
3216.059241,-880.558717,-2392.822600,-10068.997501
3216.061793,-746.560651,-708.275490,-9801.001370
3216.064345,2584.248408,2565.105827,-9475.577496
3216.066897,-1033.699363,-2679.961312,-10738.987829
3216.069449,-2105.683888,1684.547110,-9781.858789
3216.072001,5130.211654,5474.778109,-8786.444587
3216.074553,2067.398726,-1225.125171,-10777.272990
3216.077105,-459.421939,5359.922624,-8939.585234
3216.079657,650.847747,76.570323,-9399.007173
3216.082209,421.136778,-1837.687757,-10624.132344
3216.084761,1033.699363,2737.389054,-9513.862658
3216.087313,3656.232933,1741.974853,-9762.716208
3216.089865,-535.992262,267.996131,-10738.987829
3216.092417,-421.136778,1588.834206,-9494.720077
3216.094969,1071.984525,689.132909,-9150.153622
3216.097521,459.421939,612.562586,-10260.423309
3216.100073,478.564520,1378.265818,-10298.708470
3216.102625,1818.545176,1397.408398,-9609.575562
3216.105177,650.847747,1167.697429,-9456.434915
3216.107729,1646.261949,1359.123237,-9705.288466
3216.110281,2048.256146,2852.244539,-9896.714274
3216.112833,-1665.404530,880.558717,-10356.136213
3216.115385,1722.832272,2124.826469,-9303.294269
3216.117937,2067.398726,-191.425808,-9839.286531
3216.120489,957.129040,2852.244539,-10030.712339
3216.123041,746.560651,-1052.841944,-9915.856854
3216.125593,-3120.240670,861.416136,-9934.999435
3216.128145,-421.136778,1722.832272,-9686.145885
3216.130697,1722.832272,-1703.689691,-9571.290400
3216.133249,-1129.412267,-2737.389054,-10490.134278
3216.135801,19.142581,2718.246474,-9590.432981
3216.138353,2507.678085,440.279358,-10317.851051
3216.140905,-1320.838075,631.705166,-9686.145885
3216.143457,-95.712904,1627.119368,-9035.298138
3216.146009,880.558717,-497.707101,-10470.991698
3216.148561,-19.142581,995.414202,-10088.140082
3216.151113,861.416136,708.275490,-9820.143950
3216.153667,19.142581,-57.427742,-9954.142016
3216.156221,-287.138712,746.560651,-9399.007173
3216.158774,-210.568389,1531.406464,-9647.860723
3216.161328,-555.134843,-708.275490,-10317.851051
3216.163882,-1780.260014,-1684.547110,-10241.280728
3216.166436,-19.142581,-440.279358,-9686.145885
3216.168989,2928.814862,957.129040,-9571.290400
3216.171543,-2048.256146,-3483.949706,-10758.130410
3216.174097,-1914.258080,2890.529701,-10107.282662
3216.176651,5130.211654,6240.481341,-8767.302006
3216.179205,2431.107762,-1397.408398,-11064.411702
3216.181758,-727.418070,4977.071008,-9035.298138
3216.184312,669.990328,459.421939,-9054.440718
3216.186866,-918.843878,-1033.699363,-10604.989763
3216.189420,1416.550979,1952.543242,-9667.003304
3216.191973,4019.941968,325.423874,-10030.712339
3216.194527,-555.134843,995.414202,-10279.565890
3216.197081,-1033.699363,1569.691626,-9724.431046
3216.199635,2009.970984,1148.554848,-9131.011042
3216.202189,1875.972918,-76.570323,-10336.993632
3216.204742,76.570323,1684.547110,-10279.565890
3216.207296,1148.554848,1799.402595,-9667.003304
3216.209850,1990.828403,727.418070,-9322.436850
3216.212404,976.271621,1895.115499,-9552.147819
3216.214957,2067.398726,2756.531635,-9820.143950
3216.217511,-1646.261949,210.568389,-10566.704602
3216.220065,1875.972918,3388.236802,-9150.153622
3216.222619,3943.371645,248.853550,-9628.718142
3216.225173,-1627.119368,-861.416136,-10796.415571
3216.227726,765.703232,4287.938099,-8824.729749
3216.230280,-1493.121302,-3407.379382,-10738.987829
3216.232834,-2316.252277,1263.410333,-9973.284597
3216.235388,1971.685822,-1129.412267,-9092.725880
3216.237941,-957.129040,-3349.951640,-10490.134278
3216.240495,-535.992262,2947.957443,-9781.858789
3216.243049,2794.816797,727.418070,-10451.849117
3216.245603,746.560651,-306.281293,-9533.005238
3216.248156,-1148.554848,440.279358,-9437.292334
3216.250710,344.566454,593.420005,-10183.852986
3216.253264,1282.552914,1416.550979,-10222.138147
3216.255819,-478.564520,-95.712904,-10356.136213
3216.258375,38.285162,1646.261949,-9226.723946
3216.260930,1435.693560,-727.418070,-9705.288466
3216.263486,-2584.248408,-133.998066,-10298.708470
3216.266041,-650.847747,1512.263883,-9896.714274
3216.268597,-325.423874,-2871.387120,-10049.854920
3216.271152,1397.408398,-1914.258080,-10317.851051
3216.273708,-459.421939,2067.398726,-9322.436850
3216.276263,-153.140646,287.138712,-9877.571693
3216.278819,-382.851616,-133.998066,-10375.278794
3216.281374,3369.094221,6757.331022,-9207.581365
3216.283930,3943.371645,-382.851616,-10509.276859
3216.286485,-1397.408398,2220.539373,-9552.147819
3216.289041,-440.279358,1493.121302,-8977.870395
3216.291596,440.279358,-2105.683888,-10585.847182
3216.294151,1052.841944,1914.258080,-9896.714274
3216.296707,2316.252277,3483.949706,-9131.011042
3216.299262,1071.984525,114.855485,-10260.423309
3216.301818,-1684.547110,899.701298,-9513.862658
3216.304373,708.275490,765.703232,-9322.436850
3216.306929,1627.119368,133.998066,-10547.562021
3216.309484,497.707101,1665.404530,-10241.280728
3216.312040,823.130974,1282.552914,-9418.149754
3216.314595,1646.261949,1588.834206,-9265.009107
3216.317151,1952.543242,1761.117434,-9743.573627
3216.319706,-440.279358,1627.119368,-10241.280728
3216.322262,306.281293,229.710970,-9992.427178
3216.324817,1397.408398,1167.697429,-9513.862658
3216.327372,3522.234867,4077.369710,-9226.723946
3216.329928,-1129.412267,-3732.803256,-10796.415571
3216.332483,-2488.535504,4383.651003,-9265.009107
3216.335039,765.703232,-382.851616,-10011.569758
3216.337594,-1339.980656,-3445.664544,-10930.413637
3216.340150,-2316.252277,-114.855485,-9647.860723
3216.342705,2852.244539,1205.982590,-9609.575562
3216.345261,1646.261949,-478.564520,-10872.985894
3216.347816,-2029.113565,2163.111630,-9552.147819
3216.350372,1071.984525,1473.978722,-9131.011042
3216.352927,1397.408398,-1722.832272,-10202.995566
3216.355483,-1244.267752,1493.121302,-9934.999435
3216.358040,-95.712904,1569.691626,-10088.140082
3216.360597,2354.537438,-497.707101,-10088.140082
3216.363154,1378.265818,-19.142581,-9494.720077
3216.365711,-3005.385186,421.136778,-9934.999435
3216.368269,-267.996131,306.281293,-10011.569758
3216.370826,-574.277424,-2584.248408,-10451.849117
3216.373383,-593.420005,-708.275490,-10107.282662
3216.375940,2679.961312,3101.098090,-9341.579430
3216.378497,-995.414202,-2813.959378,-10451.849117
3216.381055,-2794.816797,1263.410333,-9762.716208
3216.383612,5417.350366,5436.492947,-9284.151688
3216.386169,4287.938099,-114.855485,-10375.278794
3216.388726,-1569.691626,2450.250342,-9494.720077
3216.391283,-325.423874,1225.125171,-9035.298138
3216.393841,459.421939,-1588.834206,-10241.280728
3216.396398,880.558717,2450.250342,-9801.001370
3216.398955,3713.660675,1205.982590,-10030.712339
3216.401512,344.566454,497.707101,-10260.423309
3216.404070,-1473.978722,1607.976787,-9475.577496
3216.406627,1282.552914,421.136778,-9360.722011
3216.409184,1454.836141,803.988394,-10279.565890
3216.411741,976.271621,880.558717,-10738.987829
3216.414298,1205.982590,2067.398726,-9360.722011
3216.416856,1799.402595,1646.261949,-9111.868461
3216.419413,1818.545176,1186.840010,-9934.999435
3216.421970,210.568389,1473.978722,-10126.425243
3216.424527,76.570323,-95.712904,-10107.282662
3216.427084,2086.541307,-325.423874,-10375.278794
3216.429642,1799.402595,3847.658741,-9207.581365
3216.432199,-210.568389,-2048.256146,-9992.427178
3216.434756,-3120.240670,1205.982590,-10317.851051
3216.437313,19.142581,1780.260014,-9609.575562
3216.439870,114.855485,-3790.230998,-10585.847182
3216.442428,-1741.974853,-191.425808,-9801.001370
3216.444985,976.271621,3196.810994,-9188.438784
3216.447542,2316.252277,-478.564520,-10700.702667
3216.450099,-1895.115499,976.271621,-9973.284597
3216.452656,1052.841944,2928.814862,-8633.303941
3216.455214,1301.695494,-2411.965181,-10643.274925
3216.457771,-1856.830338,861.416136,-10241.280728
3216.460329,880.558717,2182.254211,-9456.434915
3216.462888,957.129040,-1091.127106,-10260.423309
3216.465446,-133.998066,1473.978722,-9590.432981
3216.468005,-1837.687757,-459.421939,-9590.432981
3216.470563,-1588.834206,-574.277424,-10298.708470
3216.473122,-153.140646,-689.132909,-10030.712339
3216.475680,2986.242605,-1110.269686,-9762.716208
3216.478239,-1244.267752,-306.281293,-10336.993632
3216.480797,-382.851616,2067.398726,-8939.585234
3216.483355,248.853550,-229.710970,-9762.716208
3216.485914,2603.390989,5934.200048,-9877.571693
3216.488472,4957.928427,1665.404530,-10088.140082
3216.491031,57.427742,-937.986459,-9705.288466
3216.493589,-1684.547110,1359.123237,-9647.860723
3216.496148,1780.260014,-1205.982590,-9934.999435
3216.498706,1244.267752,1014.556782,-10222.138147
3216.501265,1990.828403,3311.666478,-9552.147819
3216.503823,1320.838075,918.843878,-9820.143950
3216.506382,-1607.976787,957.129040,-9475.577496
3216.508940,650.847747,19.142581,-9647.860723
3216.511499,3235.096155,1473.978722,-10107.282662
3216.514057,-267.996131,57.427742,-10547.562021
3216.516616,689.132909,2852.244539,-9226.723946
3216.519174,2526.820666,1607.976787,-9188.438784
3216.521732,1244.267752,957.129040,-10068.997501
3216.524291,-1761.117434,95.712904,-10490.134278
3216.526849,2641.676150,4919.643266,-9035.298138
3216.529408,3713.660675,-57.427742,-10164.710405
3216.531966,-1952.543242,-363.709035,-10317.851051
3216.534525,669.990328,3694.518094,-8575.876198
3216.537083,-1550.549045,-3617.947771,-11121.839445
3216.539642,-2143.969050,-957.129040,-10815.558152
3216.542200,1359.123237,1244.267752,-8652.446522
3216.544759,1301.695494,-4039.084549,-10604.989763
3216.547317,-2143.969050,3311.666478,-9801.001370
3216.549876,1856.830338,2277.967115,-9475.577496
3216.552434,95.712904,-1301.695494,-10183.852986
3216.554993,-421.136778,2794.816797,-9035.298138
3216.557551,937.986459,-1416.550979,-10394.421374
3216.560109,133.998066,1129.412267,-10068.997501
3216.562669,-382.851616,803.988394,-9915.856854
3216.565229,918.843878,-229.710970,-9934.999435
3216.567789,-1627.119368,0.000000,-9820.143950
3216.570348,-880.558717,650.847747,-9533.005238
3216.572908,-1263.410333,-2067.398726,-10413.563955
3216.575468,0.000000,-382.851616,-10145.567824
3216.578028,2890.529701,2737.389054,-9226.723946
3216.580587,-1225.125171,-3598.805190,-10643.274925
3216.583147,-3043.670347,1033.699363,-10164.710405
3216.585707,3981.656806,6929.614250,-8939.585234
3216.588267,4077.369710,-555.134843,-10968.698798
3216.590826,-995.414202,3369.094221,-9533.005238
3216.593386,19.142581,1263.410333,-8652.446522
3216.595946,-114.855485,-1416.550979,-10164.710405
3216.598506,344.566454,2048.256146,-9934.999435
3216.601065,3943.371645,612.562586,-10107.282662
3216.603625,95.712904,1091.127106,-10413.563955
3216.606185,-842.273555,1588.834206,-9513.862658
3216.608745,1225.125171,612.562586,-9226.723946
3216.611304,2220.539373,727.418070,-10030.712339
3216.613864,-76.570323,823.130974,-10585.847182
3216.616424,1914.258080,3024.527766,-9437.292334
3216.618984,2239.681954,1627.119368,-9188.438784
3216.621543,612.562586,1186.840010,-9820.143950
3216.624103,-1607.976787,1454.836141,-9992.427178
3216.626663,3043.670347,2967.100024,-9571.290400
3216.629223,1895.115499,-861.416136,-10777.272990
3216.631782,-2124.826469,421.136778,-9992.427178
3216.634342,746.560651,3177.668413,-8767.302006
3216.636902,-1339.980656,-3713.660675,-11006.983960
3216.639462,-2277.967115,1818.545176,-9954.142016
3216.642021,2335.394858,-1493.121302,-9647.860723
3216.644581,-1550.549045,-2928.814862,-10585.847182
3216.647141,-210.568389,3177.668413,-9207.581365
3216.649700,2143.969050,-38.285162,-10375.278794
3216.652260,-1091.127106,957.129040,-9934.999435
3216.654820,-401.994197,1665.404530,-9284.151688
3216.657380,1416.550979,-861.416136,-10585.847182
3216.659939,344.566454,1378.265818,-9877.571693
3216.662499,-267.996131,669.990328,-9801.001370
3216.665060,1263.410333,-267.996131,-10011.569758
3216.667620,-1818.545176,555.134843,-9724.431046
3216.670181,-803.988394,248.853550,-9590.432981
3216.672741,-1033.699363,-2163.111630,-10470.991698
3216.675302,-401.994197,114.855485,-10030.712339
3216.677862,3196.810994,2450.250342,-9513.862658
3216.680423,-306.281293,-2086.541307,-10547.562021
3216.682983,-2163.111630,-38.285162,-9801.001370
3216.685544,4307.080680,5972.485210,-9169.296203
3216.688104,3866.801322,-1454.836141,-11370.692995
3216.690665,-937.986459,4804.787781,-9054.440718
3216.693225,382.851616,631.705166,-8977.870395
3216.695786,-267.996131,-1263.410333,-10432.706536
3216.698346,95.712904,2335.394858,-9437.292334
3216.700907,3445.664544,-631.705166,-10375.278794
3216.703467,1071.984525,344.566454,-10356.136213
3216.706028,-1397.408398,1895.115499,-9092.725880
3216.708588,976.271621,-401.994197,-9762.716208
3216.711149,1722.832272,1722.832272,-9590.432981
3216.713709,765.703232,1071.984525,-10241.280728
3216.716269,1091.127106,1761.117434,-9992.427178
3216.718830,1990.828403,2450.250342,-8958.727814
3216.721390,1091.127106,1416.550979,-9533.005238
3216.723951,-2067.398726,-574.277424,-10585.847182
3216.726511,1799.402595,4919.643266,-9111.868461
3216.729072,4689.932296,1914.258080,-9686.145885
3216.731632,-2431.107762,-2316.252277,-10853.843314
3216.734193,-363.709035,5666.203917,-8212.167163
3216.736753,-401.994197,-4077.369710,-10815.558152
3216.739314,-2297.109696,-229.710970,-10738.987829
3216.741874,2029.113565,535.992262,-9150.153622
3216.744435,-344.566454,-3196.810994,-10375.278794
3216.746995,-1607.976787,3005.385186,-10164.710405
3216.749556,708.275490,2622.533570,-9399.007173
3216.752116,1512.263883,-325.423874,-9820.143950
3216.754677,-401.994197,306.281293,-9781.858789
3216.757237,-459.421939,574.277424,-10068.997501
3216.759798,574.277424,1052.841944,-9896.714274
3216.762358,344.566454,574.277424,-10068.997501
3216.764919,1435.693560,823.130974,-9628.718142
3216.767480,-1761.117434,-1607.976787,-10088.140082
3216.770041,-2163.111630,669.990328,-9877.571693
3216.772603,38.285162,-516.849682,-9992.427178
3216.775164,3522.234867,-1301.695494,-10317.851051
3216.777725,-2086.541307,-976.271621,-10317.851051
3216.780286,-669.990328,2890.529701,-8633.303941
3216.782848,1339.980656,-133.998066,-9915.856854
3216.785409,2086.541307,4709.074877,-10145.567824
3216.787970,4479.363907,3292.523898,-9533.005238
3216.790532,-669.990328,-401.994197,-10202.995566
3216.793093,-957.129040,1914.258080,-9245.866526
3216.795654,1129.412267,-325.423874,-9647.860723
3216.798215,1799.402595,-574.277424,-10796.415571
3216.800777,918.843878,3139.383251,-9609.575562
3216.803338,1359.123237,1856.830338,-9418.149754
3216.805899,-382.851616,153.140646,-9762.716208
3216.808460,1071.984525,918.843878,-9494.720077
3216.811022,1416.550979,880.558717,-10068.997501
3216.813583,1129.412267,1397.408398,-10432.706536
3216.816144,1397.408398,2335.394858,-9533.005238
3216.818706,1550.549045,1320.838075,-9552.147819
3216.821267,-1550.549045,535.992262,-10222.138147
3216.823828,2622.533570,3081.955509,-9284.151688
3216.826389,2411.965181,-267.996131,-10528.419440
3216.828951,842.273555,3369.094221,-9934.999435
3216.831512,0.000000,-1531.406464,-9341.579430
3216.834073,-3617.947771,650.847747,-9896.714274
3216.836634,76.570323,1225.125171,-9973.284597
3216.839196,746.560651,-3445.664544,-10528.419440
3216.841757,-1818.545176,899.701298,-9552.147819
3216.844318,153.140646,1933.400661,-9513.862658
3216.846880,2182.254211,669.990328,-10183.852986
3216.849442,-1818.545176,267.996131,-10068.997501
3216.852004,344.566454,1837.687757,-9552.147819
3216.854566,1282.552914,172.283227,-10413.563955
3216.857128,669.990328,287.138712,-9973.284597
3216.859690,-995.414202,1397.408398,-9820.143950
3216.862252,1741.974853,746.560651,-9781.858789
3216.864814,-1186.840010,-1703.689691,-10183.852986
3216.867376,-2622.533570,1320.838075,-9667.003304
3216.869938,-325.423874,-1148.554848,-9934.999435
3216.872500,1339.980656,-2067.398726,-10470.991698
3216.875062,535.992262,2852.244539,-9571.290400
3216.877625,-210.568389,2986.242605,-8690.731683
3216.880187,1473.978722,-727.418070,-9915.856854
3216.882749,1646.261949,5398.207786,-9743.573627
3216.885311,4919.643266,2794.816797,-9571.290400
3216.887873,-727.418070,-248.853550,-10202.995566
3216.890435,-1071.984525,2258.824534,-9131.011042
3216.892997,1320.838075,-2182.254211,-10202.995566
3216.895559,516.849682,2316.252277,-9820.143950
3216.898121,3043.670347,2469.392923,-9647.860723
3216.900683,1569.691626,172.283227,-9934.999435
3216.903245,-1091.127106,1148.554848,-9552.147819
3216.905807,-76.570323,1473.978722,-9303.294269
3216.908370,3254.238736,669.990328,-10126.425243
3216.910932,765.703232,1588.834206,-10336.993632
3216.913494,1493.121302,2679.961312,-9360.722011
3216.916056,1397.408398,1263.410333,-9379.864592
3216.918618,-1550.549045,1435.693560,-9934.999435
3216.921180,2143.969050,1914.258080,-9513.862658
3216.923742,3713.660675,-344.566454,-10490.134278
3216.926304,-1148.554848,1378.265818,-10279.565890
3216.928866,306.281293,1703.689691,-8652.446522
3216.931428,-3043.670347,-2603.390989,-10681.560086
3216.933990,-1014.556782,1914.258080,-9896.714274
3216.936552,2048.256146,-2431.107762,-9992.427178
3216.939115,-1454.836141,-784.845813,-10298.708470
3216.941677,478.564520,1167.697429,-9552.147819
3216.944239,1722.832272,574.277424,-10011.569758
3216.946801,-2622.533570,497.707101,-10126.425243
3216.949363,-478.564520,2890.529701,-9073.583299
3216.951908,2622.533570,-1282.552914,-10432.706536
3216.954454,-1205.982590,267.996131,-10126.425243
3216.956999,-478.564520,2239.681954,-9303.294269
3216.959545,2009.970984,19.142581,-9839.286531
3216.962091,-2029.113565,-1397.408398,-10413.563955
3216.964636,-2488.535504,995.414202,-9494.720077
3216.967182,-153.140646,-1244.267752,-10049.854920
3216.969727,1722.832272,-1607.976787,-10528.419440
3216.972273,-2565.105827,-1971.685822,-10260.423309
3216.974819,-957.129040,3369.094221,-9016.155557
3216.977364,2775.674216,267.996131,-9705.288466
3216.979910,1282.552914,3598.805190,-10049.854920
3216.982455,4192.225195,4153.940034,-9379.864592
3216.985001,210.568389,-746.560651,-10126.425243
3216.987547,-1531.406464,2316.252277,-9016.155557
3216.990092,1454.836141,-1665.404530,-10088.140082
3216.992638,899.701298,-650.847747,-10585.847182
3216.995183,1359.123237,3713.660675,-9437.292334
3216.997729,1091.127106,-19.142581,-9973.284597
3217.000275,-957.129040,1129.412267,-9418.149754
3217.002820,1952.543242,1397.408398,-9399.007173
3217.005366,1320.838075,38.285162,-10719.845248
3217.007912,1397.408398,2373.680019,-9762.716208
3217.010457,1646.261949,1856.830338,-9533.005238
3217.013003,1129.412267,1722.832272,-9571.290400
3217.015548,-1875.972918,421.136778,-9915.856854
3217.018094,2373.680019,4594.219392,-9399.007173
3217.020640,4709.074877,1550.549045,-10011.569758
3217.023185,-2718.246474,-1244.267752,-10681.560086
3217.025731,-363.709035,4900.500685,-8288.737486
3217.028276,-803.988394,-4249.652938,-10719.845248
3217.030822,-2124.826469,153.140646,-10758.130410
3217.033368,2431.107762,287.138712,-9188.438784
3217.035913,-593.420005,-3024.527766,-10624.132344
3217.038459,-995.414202,2660.818731,-9705.288466
3217.041004,1301.695494,2029.113565,-9207.581365
3217.043550,765.703232,-1588.834206,-10145.567824
3217.046096,-1148.554848,2143.969050,-9379.864592
3217.048641,1033.699363,746.560651,-10049.854920
3217.051187,899.701298,-861.416136,-10336.993632
3217.053735,-421.136778,2488.535504,-9265.009107
3217.056284,210.568389,-861.416136,-10126.425243
3217.058832,-880.558717,-746.560651,-10011.569758
3217.061380,-2335.394858,-516.849682,-9762.716208
3217.063929,-363.709035,-1454.836141,-10451.849117
3217.066477,2411.965181,3120.240670,-9533.005238
3217.069026,-669.990328,-2794.816797,-10241.280728
3217.071574,-2813.959378,76.570323,-9992.427178
3217.074122,5053.641331,5761.916821,-8920.442653
3217.076671,2756.531635,-1129.412267,-10949.556218
3217.079219,-172.283227,5761.916821,-9303.294269
3217.081768,1225.125171,-114.855485,-9360.722011
3217.084316,-957.129040,114.855485,-9934.999435
3217.086864,267.996131,2239.681954,-9934.999435
3217.089413,3196.810994,-306.281293,-10490.134278
3217.091961,593.420005,1799.402595,-10068.997501
3217.094510,-612.562586,1473.978722,-9475.577496
3217.097058,1646.261949,-306.281293,-9667.003304
3217.099606,727.418070,1837.687757,-9667.003304
3217.102155,2086.541307,267.996131,-10643.274925
3217.104703,2067.398726,1837.687757,-9820.143950
3217.107252,823.130974,2718.246474,-9265.009107
3217.109800,-555.134843,516.849682,-10049.854920
3217.112348,3081.955509,2852.244539,-9513.862658
3217.114897,3196.810994,459.421939,-10432.706536
3217.117445,229.710970,1952.543242,-10222.138147
3217.119994,-325.423874,-401.994197,-9341.579430
3217.122542,-2986.242605,-57.427742,-9839.286531
3217.125090,-784.845813,880.558717,-10088.140082
3217.127639,1263.410333,-2947.957443,-10490.134278
3217.130187,-1339.980656,784.845813,-9743.573627
3217.132736,1282.552914,-497.707101,-10049.854920
3217.135284,1531.406464,1435.693560,-9877.571693
3217.137832,-1205.982590,803.988394,-9724.431046
3217.140381,1129.412267,689.132909,-9552.147819
3217.142929,1244.267752,57.427742,-10241.280728
3217.145478,-1627.119368,1244.267752,-10011.569758
3217.148026,1359.123237,1282.552914,-9686.145885
3217.150574,363.709035,248.853550,-9705.288466
3217.153123,-1244.267752,-306.281293,-9915.856854
3217.155674,-2105.683888,-995.414202,-10068.997501
3217.158225,-421.136778,-784.845813,-10145.567824
3217.160776,3043.670347,2201.396792,-9437.292334
3217.163327,-1263.410333,-4307.080680,-10853.843314
3217.165878,-2526.820666,2622.533570,-9360.722011
3217.168430,4919.643266,4249.652938,-8805.587168
3217.170981,1741.974853,-76.570323,-11083.554283
3217.173532,1569.691626,6451.049730,-8863.014910
3217.176083,1378.265818,-689.132909,-9647.860723
3217.178634,-1895.115499,669.990328,-9934.999435
3217.181185,114.855485,1895.115499,-9743.573627
3217.183736,3005.385186,-842.273555,-10738.987829
3217.186288,918.843878,1722.832272,-10088.140082
3217.188839,-306.281293,1493.121302,-9475.577496
3217.191390,823.130974,-19.142581,-9820.143950
3217.193941,1129.412267,1799.402595,-9590.432981
3217.196492,2258.824534,1205.982590,-10356.136213
3217.199043,1665.404530,1818.545176,-10145.567824
3217.201594,1110.269686,2067.398726,-9379.864592
3217.204146,-1588.834206,401.994197,-9896.714274
3217.206697,2641.676150,2622.533570,-9858.429112
3217.209248,2909.672282,287.138712,-10566.704602
3217.211799,861.416136,3158.525832,-10011.569758
3217.214350,-497.707101,-1148.554848,-9552.147819
3217.216901,-3330.809059,-153.140646,-9801.001370
3217.219452,-382.851616,1684.547110,-9552.147819
3217.222004,1110.269686,-3790.230998,-10949.556218
3217.224555,-1301.695494,765.703232,-9877.571693
3217.227106,-957.129040,2086.541307,-9418.149754
3217.229657,1378.265818,-114.855485,-10126.425243
3217.232208,-459.421939,1205.982590,-9494.720077
3217.234759,516.849682,727.418070,-9667.003304
3217.237310,727.418070,-535.992262,-10470.991698
3217.239862,-631.705166,1550.549045,-9724.431046
3217.242413,1378.265818,1148.554848,-9590.432981
3217.244964,-535.992262,-937.986459,-10011.569758
3217.247515,-937.986459,497.707101,-9494.720077
3217.250066,-1359.123237,-1435.693560,-10279.565890
3217.252617,-440.279358,-1416.550979,-10413.563955
3217.255168,1837.687757,3771.088418,-8939.585234
3217.257722,-689.132909,-4019.941968,-10662.417506
3217.260275,-2488.535504,421.136778,-10222.138147
3217.262828,3522.234867,6967.899411,-8977.870395
3217.265382,4000.799387,-899.701298,-10930.413637
3217.267935,-803.988394,3560.520029,-9647.860723
3217.270488,0.000000,1627.119368,-8767.302006
3217.273041,306.281293,-899.701298,-10279.565890
3217.275595,325.423874,2220.539373,-9896.714274
3217.278148,3503.092286,535.992262,-10260.423309
3217.280701,555.134843,248.853550,-10432.706536
3217.283255,-727.418070,2182.254211,-9379.864592
3217.285808,1205.982590,765.703232,-9801.001370
3217.288361,1933.400661,593.420005,-10145.567824
3217.290914,1416.550979,2143.969050,-9973.284597
3217.293468,2163.111630,1818.545176,-9705.288466
3217.296021,650.847747,2105.683888,-9265.009107
3217.298574,-1205.982590,-669.990328,-10011.569758
3217.301128,2718.246474,4307.080680,-9265.009107
3217.303681,4766.502619,1454.836141,-10107.282662
3217.306234,-2392.822600,-1033.699363,-10777.272990
3217.308787,-133.998066,5015.356170,-8365.307810
3217.311341,95.712904,-3503.092286,-10413.563955
3217.313894,-1799.402595,-2009.970984,-10968.698798
3217.316447,1416.550979,1531.406464,-9207.581365
3217.319000,823.130974,-2718.246474,-10528.419440
3217.321554,-2124.826469,2890.529701,-9494.720077
3217.324107,803.988394,1837.687757,-9475.577496
3217.326660,1550.549045,-535.992262,-10030.712339
3217.329214,-708.275490,918.843878,-9724.431046
3217.331767,-248.853550,306.281293,-10643.274925
3217.334320,1359.123237,784.845813,-9801.001370
3217.336873,-306.281293,1014.556782,-9628.718142
3217.339427,-631.705166,-1148.554848,-10260.423309
3217.341980,-1550.549045,-708.275490,-9934.999435
3217.344533,-1110.269686,-593.420005,-10145.567824
3217.347087,2928.814862,-1225.125171,-10107.282662
3217.349640,-1703.689691,-1493.121302,-10222.138147
3217.352193,-114.855485,2909.672282,-8863.014910
3217.354746,1301.695494,-1263.410333,-10088.140082
3217.357300,1091.127106,1665.404530,-10777.272990
3217.359855,2756.531635,6087.340694,-8767.302006
3217.362410,918.843878,-1167.697429,-9915.856854
3217.364966,-1971.685822,1493.121302,-9533.005238
3217.367521,1550.549045,-497.707101,-9762.716208
3217.370076,1703.689691,-57.427742,-10585.847182
3217.372631,1167.697429,2928.814862,-9628.718142
3217.375187,2392.822600,937.986459,-9609.575562
3217.377742,-1818.545176,248.853550,-9724.431046
3217.380297,-842.273555,2507.678085,-9456.434915
3217.382852,3311.666478,918.843878,-10202.995566
3217.385408,1339.980656,1186.840010,-10451.849117
3217.387963,229.710970,3139.383251,-9226.723946
3217.390518,-880.558717,689.132909,-9494.720077
3217.393073,2354.537438,2277.967115,-9762.716208
3217.395629,2545.963246,823.130974,-10451.849117
3217.398184,1799.402595,3885.943902,-9858.429112
3217.400739,-555.134843,-1569.691626,-9762.716208
3217.403294,-2545.963246,-3196.810994,-10183.852986
3217.405850,-1435.693560,1435.693560,-10088.140082
3217.408405,2335.394858,-2335.394858,-10279.565890
3217.410960,-1129.412267,-344.566454,-10222.138147
3217.413515,-363.709035,1703.689691,-9513.862658
3217.416071,1646.261949,172.283227,-9954.142016
3217.418626,-1071.984525,708.275490,-9437.292334
3217.421181,421.136778,1512.263883,-9533.005238
3217.423736,1627.119368,-57.427742,-10604.989763
3217.426292,861.416136,401.994197,-9839.286531
3217.428847,-1244.267752,1856.830338,-9571.290400
3217.431402,899.701298,-1531.406464,-10164.710405
3217.433957,-1741.974853,-267.996131,-9973.284597
3217.436513,-1914.258080,-421.136778,-10164.710405
3217.439068,1895.115499,-1933.400661,-10049.854920
3217.441623,-363.709035,1148.554848,-9839.286531
3217.444178,19.142581,593.420005,-9571.290400
3217.446734,-248.853550,-1856.830338,-10356.136213
3217.449289,1627.119368,4709.074877,-10068.997501
3217.451844,4211.367776,3809.373579,-9322.436850
3217.454399,-669.990328,-153.140646,-10011.569758
3217.456955,-1435.693560,1990.828403,-9169.296203
3217.459510,1301.695494,-1397.408398,-10145.567824
3217.462067,957.129040,1856.830338,-10088.140082
3217.464624,2450.250342,2545.963246,-9513.862658
3217.467181,478.564520,-823.130974,-10317.851051
3217.469738,-1665.404530,2124.826469,-9188.438784
3217.472295,2871.387120,1014.556782,-9494.720077
3217.474852,2277.967115,-746.560651,-10662.417506
3217.477409,631.705166,3062.812928,-9743.573627
3217.479967,1722.832272,1703.689691,-9456.434915
3217.482524,-1378.265818,650.847747,-9667.003304
3217.485081,1607.976787,3503.092286,-9131.011042
3217.487638,2947.957443,-114.855485,-10547.562021
3217.490195,1627.119368,3464.807125,-10030.712339
3217.492752,-516.849682,-1895.115499,-9647.860723
3217.495309,-3732.803256,421.136778,-9552.147819
3217.497866,-1205.982590,1282.552914,-10107.282662
3217.500423,2335.394858,-2009.970984,-10088.140082
3217.502980,-957.129040,-153.140646,-10241.280728
3217.505537,-133.998066,555.134843,-9896.714274
3217.508094,1244.267752,1091.127106,-9781.858789
3217.510651,-1205.982590,593.420005,-9609.575562
3217.513208,1129.412267,957.129040,-9743.573627
3217.515765,1971.685822,382.851616,-10356.136213
3217.518323,-1148.554848,-95.712904,-10222.138147
3217.520880,-1780.260014,1512.263883,-9571.290400
3217.523437,842.273555,-248.853550,-9762.716208
3217.525994,-1225.125171,-1186.840010,-10260.423309
3217.528551,-2316.252277,-440.279358,-10298.708470
3217.531108,2871.387120,-497.707101,-9609.575562
3217.533665,-1244.267752,-1225.125171,-10547.562021
3217.536222,-401.994197,1971.685822,-9207.581365
3217.538779,976.271621,-1282.552914,-9973.284597
3217.541336,2354.537438,6068.198114,-9743.573627
3217.543893,3503.092286,5474.778109,-9054.440718
3217.546450,497.707101,-689.132909,-9858.429112
3217.549007,-1895.115499,918.843878,-9494.720077
3217.551564,1454.836141,-325.423874,-9762.716208
3217.554121,1780.260014,1473.978722,-10317.851051
3217.556678,1588.834206,2373.680019,-9724.431046
3217.559236,727.418070,-306.281293,-9954.142016
3217.561793,-1052.841944,2143.969050,-9111.868461
3217.564351,2469.392923,1263.410333,-9743.573627
3217.566909,2947.957443,478.564520,-10260.423309
3217.569468,1397.408398,2871.387120,-9743.573627
3217.572026,995.414202,1761.117434,-9552.147819
3217.574584,-1454.836141,-823.130974,-9743.573627
3217.577142,2220.539373,5647.061336,-8824.729749
3217.579701,4689.932296,306.281293,-10490.134278
3217.582259,-1282.552914,631.705166,-10643.274925
3217.584817,-344.566454,2526.820666,-8690.731683
3217.587376,-2277.967115,-4843.072942,-10394.421374
3217.589934,-2182.254211,-823.130974,-10643.274925
3217.592492,2009.970984,765.703232,-9245.866526
3217.595051,516.849682,-2086.541307,-10585.847182
3217.597609,-1856.830338,2431.107762,-9552.147819
3217.600167,1205.982590,880.558717,-9456.434915
3217.602725,401.994197,-765.703232,-9801.001370
3217.605284,-516.849682,1914.258080,-9628.718142
3217.607842,1225.125171,478.564520,-10490.134278
3217.610400,1110.269686,-172.283227,-10068.997501
3217.612959,-1512.263883,-421.136778,-9743.573627
3217.615517,-1244.267752,401.994197,-9686.145885
3217.618075,-440.279358,-1397.408398,-10432.706536
3217.620634,-1148.554848,-957.129040,-10394.421374
3217.623192,1990.828403,2297.109696,-9131.011042
3217.625750,-1091.127106,-5130.211654,-10853.843314
3217.628308,-2297.109696,2794.816797,-9188.438784
3217.630867,5091.926493,3732.803256,-8863.014910
3217.633425,1799.402595,-133.998066,-11370.692995
3217.635983,-612.562586,6106.483275,-8920.442653
3217.638542,574.277424,-459.421939,-9284.151688
3217.641100,-689.132909,0.000000,-9973.284597
3217.643658,899.701298,1550.549045,-9724.431046
3217.646217,2526.820666,-1052.841944,-10872.985894
3217.648775,1052.841944,2794.816797,-9743.573627
3217.651333,650.847747,937.986459,-9341.579430
3217.653891,669.990328,631.705166,-9609.575562
3217.656450,1244.267752,1741.974853,-9609.575562
3217.659008,2411.965181,1263.410333,-10317.851051
3217.661566,1627.119368,1799.402595,-9820.143950
3217.664125,-1225.125171,2775.674216,-9150.153622
3217.666684,1071.984525,210.568389,-9667.003304
3217.669244,2124.826469,1397.408398,-10222.138147
3217.671803,3464.807125,4517.649069,-9762.716208
3217.674363,-1186.840010,-2584.248408,-10375.278794
3217.676922,-3637.090352,-344.566454,-9743.573627
3217.679482,-248.853550,1129.412267,-9533.005238
3217.682042,1071.984525,-3388.236802,-10681.560086
3217.684601,-516.849682,1033.699363,-9992.427178
3217.687161,114.855485,153.140646,-10107.282662
3217.689720,133.998066,1110.269686,-10011.569758
3217.692280,-76.570323,1167.697429,-9475.577496
3217.694839,1588.834206,516.849682,-9628.718142
3217.697399,765.703232,153.140646,-10375.278794
3217.699958,-191.425808,1186.840010,-10088.140082
3217.702518,-248.853550,363.709035,-9801.001370
3217.705078,229.710970,-440.279358,-9475.577496
3217.707637,-1167.697429,-612.562586,-9973.284597
3217.710197,-1263.410333,-995.414202,-10394.421374
3217.712756,2718.246474,440.279358,-9743.573627
3217.715316,-1914.258080,-2813.959378,-10719.845248
3217.717875,-727.418070,2928.814862,-8786.444587
3217.720435,4919.643266,3349.951640,-9016.155557
3217.722994,1990.828403,631.705166,-10968.698798
3217.725554,1799.402595,6451.049730,-8977.870395
3217.728114,1129.412267,-784.845813,-9705.288466
3217.730673,-1703.689691,880.558717,-9743.573627
3217.733233,1301.695494,459.421939,-9552.147819
3217.735792,2124.826469,57.427742,-10585.847182
3217.738352,1110.269686,1435.693560,-9858.429112
3217.740911,287.138712,1531.406464,-9437.292334
3217.743471,746.560651,325.423874,-9552.147819
3217.746031,1569.691626,1914.258080,-9437.292334
3217.748590,1933.400661,1837.687757,-10375.278794
3217.751150,2258.824534,1531.406464,-10088.140082
3217.753709,-478.564520,1435.693560,-9379.864592
3217.756269,-133.998066,-95.712904,-9475.577496
3217.758828,2067.398726,2029.113565,-9801.001370
3217.761388,4613.361973,4632.504554,-9801.001370
3217.763947,-2105.683888,-3005.385186,-10777.272990
3217.766507,-3656.232933,1052.841944,-9437.292334
3217.769067,38.285162,306.281293,-9475.577496
3217.771628,133.998066,-3713.660675,-10815.558152
3217.774188,-382.851616,1454.836141,-10011.569758
3217.776749,1033.699363,-459.421939,-10241.280728
3217.779309,-823.130974,995.414202,-9858.429112
