#time,accel_x,accel_y,accel_z
5598.620063,535.992262,689.132909,-9762.716208
5598.622607,363.709035,631.705166,-9762.716208
5598.625151,516.849682,746.560651,-9513.862658
5598.627695,497.707101,823.130974,-9647.860723
5598.630239,1627.119368,708.275490,-9609.575562
5598.632783,153.140646,382.851616,-9705.288466
5598.635327,861.416136,1665.404530,-9399.007173
5598.637871,1665.404530,1014.556782,-9590.432981
5598.640415,1914.258080,1531.406464,-9590.432981
5598.642959,2316.252277,899.701298,-9552.147819
5598.645502,1799.402595,2890.529701,-9399.007173
5598.648046,2947.957443,1225.125171,-9801.001370
5598.650590,-2737.389054,57.427742,-9743.573627
5598.653134,784.845813,10853.843314,-8441.878133
5598.655678,4153.940034,1071.984525,-10872.985894
5598.658222,-344.566454,-2871.387120,-10088.140082
5598.660766,1225.125171,2794.816797,-7427.321350
5598.663310,727.418070,-4632.504554,-10528.419440
5598.665854,-1914.258080,-1071.984525,-10911.271056
5598.668398,-4115.654872,2718.246474,-9647.860723
5598.670942,2794.816797,784.845813,-9303.294269
5598.673486,2392.822600,899.701298,-9303.294269
5598.676030,-421.136778,2469.392923,-9743.573627
5598.678574,-401.994197,-1588.834206,-10375.278794
5598.681118,-2048.256146,1205.982590,-9705.288466
5598.683662,1301.695494,842.273555,-9494.720077
5598.686206,1435.693560,-3235.096155,-10279.565890
5598.688750,-153.140646,1052.841944,-9322.436850
5598.691294,-784.845813,555.134843,-9858.429112
5598.693838,-593.420005,555.134843,-10470.991698
5598.696382,593.420005,1473.978722,-9226.723946
5598.698930,1244.267752,-899.701298,-9667.003304
5598.701478,-287.138712,382.851616,-9513.862658
5598.704026,-401.994197,995.414202,-9628.718142
5598.706574,784.845813,-689.132909,-10126.425243
5598.709122,-957.129040,516.849682,-9552.147819
5598.711670,-1129.412267,-1052.841944,-9762.716208
5598.714218,-1033.699363,363.709035,-9724.431046
5598.716766,-1033.699363,-650.847747,-9513.862658
5598.719314,-995.414202,-3503.092286,-10336.993632
5598.721862,1895.115499,3560.520029,-9399.007173
5598.724410,708.275490,-3426.521963,-10719.845248
5598.726958,-918.843878,937.986459,-9686.145885
5598.729506,-1818.545176,4345.365842,-8843.872330
5598.732054,2009.970984,-765.703232,-10317.851051
5598.734602,-1741.974853,-38.285162,-10068.997501
5598.737150,1512.263883,3158.525832,-8939.585234
5598.739698,-1091.127106,-5934.200048,-10758.130410
5598.742246,-1512.263883,5091.926493,-9016.155557
5598.744794,3598.805190,478.564520,-9360.722011
5598.747342,-995.414202,-3120.240670,-11274.980091
5598.749890,2813.959378,10260.423309,-7542.176835
5598.752438,3311.666478,-4709.074877,-10643.274925
5598.754986,-4077.369710,4249.652938,-9284.151688
5598.757534,2277.967115,899.701298,-9035.298138
5598.760082,6221.338760,-2277.967115,-10758.130410
5598.762630,-1818.545176,2392.822600,-9877.571693
5598.765178,2833.101958,4039.084549,-8671.589102
5598.767726,248.853550,-2143.969050,-10490.134278
5598.770274,-2871.387120,2258.824534,-9647.860723
5598.772821,5589.633594,5455.635528,-8729.016845
5598.775369,1646.261949,-1895.115499,-11064.411702
5598.777917,-2297.109696,1052.841944,-9647.860723
5598.780465,1320.838075,1473.978722,-8767.302006
5598.783013,2277.967115,478.564520,-9954.142016
5598.785561,861.416136,2201.396792,-10030.712339
5598.788109,325.423874,2679.961312,-9016.155557
5598.790657,995.414202,153.140646,-9341.579430
5598.793205,-421.136778,593.420005,-9494.720077
5598.795753,918.843878,1148.554848,-9801.001370
5598.798301,1244.267752,574.277424,-10222.138147
5598.800853,612.562586,765.703232,-9590.432981
5598.803405,-440.279358,650.847747,-9226.723946
5598.805957,2220.539373,574.277424,-9513.862658
5598.808509,765.703232,516.849682,-10183.852986
5598.811061,2220.539373,3445.664544,-9360.722011
5598.813612,2297.109696,784.845813,-9762.716208
5598.816164,-1263.410333,-1263.410333,-9820.143950
5598.818716,1033.699363,3560.520029,-8518.448456
5598.821268,4077.369710,1397.408398,-10107.282662
5598.823820,-689.132909,-1990.828403,-11179.267187
5598.826372,287.138712,7389.036189,-8116.454259
5598.828923,1531.406464,803.988394,-9418.149754
5598.831475,2928.814862,4192.225195,-9360.722011
5598.834027,-593.420005,-2048.256146,-9513.862658
5598.836579,-1799.402595,-95.712904,-10413.563955
5598.839131,4383.651003,2488.535504,-8843.872330
5598.841682,-3483.949706,-6546.762634,-11198.409768
5598.844234,-2526.820666,7810.172966,-8652.446522
5598.846786,5915.057467,-669.990328,-9303.294269
5598.849338,-2392.822600,-1665.404530,-10911.271056
5598.851890,1741.974853,5838.487144,-8518.448456
5598.854442,-287.138712,-6470.192310,-11026.126541
5598.856993,-2641.676150,4192.225195,-8614.161360
5598.859545,-2756.531635,-765.703232,-10088.140082
5598.862097,4383.651003,401.994197,-9322.436850
5598.864649,-1148.554848,-153.140646,-10222.138147
5598.867201,-1990.828403,-3196.810994,-10394.421374
5598.869753,497.707101,4804.787781,-8384.450390
5598.872304,1569.691626,1148.554848,-9628.718142
5598.874856,-95.712904,-1933.400661,-10700.702667
5598.877408,-1473.978722,-1761.117434,-9590.432981
5598.879960,-95.712904,0.000000,-9360.722011
5598.882512,382.851616,976.271621,-10164.710405
5598.885064,612.562586,1895.115499,-9494.720077
5598.887615,-210.568389,918.843878,-9820.143950
5598.890167,-516.849682,516.849682,-9399.007173
5598.892719,555.134843,0.000000,-9705.288466
5598.895271,1033.699363,746.560651,-9877.571693
5598.897823,-248.853550,803.988394,-10030.712339
5598.900374,172.283227,746.560651,-9571.290400
5598.902929,-191.425808,784.845813,-9226.723946
5598.905484,1416.550979,-344.566454,-9628.718142
5598.908039,-2622.533570,-1741.974853,-10624.132344
5598.910594,-2603.390989,1320.838075,-9647.860723
5598.913149,535.992262,-1875.972918,-9284.151688
5598.915704,2086.541307,1339.980656,-9609.575562
5598.918259,287.138712,-555.134843,-9992.427178
5598.920814,497.707101,-1722.832272,-10432.706536
5598.923369,-3235.096155,2871.387120,-9456.434915
5598.925924,1282.552914,1952.543242,-9016.155557
5598.928479,76.570323,-995.414202,-10164.710405
5598.931034,2105.683888,401.994197,-9150.153622
5598.933588,-2450.250342,-5800.201982,-10758.130410
5598.936143,-1301.695494,3847.658741,-9150.153622
5598.938698,3024.527766,-1052.841944,-9399.007173
5598.941253,-1014.556782,-2469.392923,-10777.272990
5598.943808,4479.363907,11925.827838,-7599.604578
5598.946363,3924.229064,-4421.936165,-10930.413637
5598.948918,-5264.209720,4823.930362,-9150.153622
5598.951473,1493.121302,-861.416136,-9265.009107
5598.954028,3617.947771,-1588.834206,-10394.421374
5598.956583,-1052.841944,995.414202,-10451.849117
5598.959138,3043.670347,3215.953574,-8977.870395
5598.961693,-612.562586,-1550.549045,-10164.710405
5598.964247,-3120.240670,4421.936165,-9188.438784
5598.966802,6163.911018,3885.943902,-9131.011042
5598.969357,880.558717,-1818.545176,-11102.696864
5598.971912,-555.134843,2947.957443,-9073.583299
5598.974467,1397.408398,-1052.841944,-9188.438784
5598.977022,-861.416136,1052.841944,-9456.434915
5598.979577,2009.970984,1799.402595,-9820.143950
5598.982132,2852.244539,1914.258080,-9762.716208
5598.984687,114.855485,976.271621,-9590.432981
5598.987242,-708.275490,-19.142581,-8977.870395
5598.989797,1244.267752,1665.404530,-9054.440718
5598.992352,842.273555,459.421939,-10700.702667
5598.994906,937.986459,976.271621,-10183.852986
5598.997461,1186.840010,1435.693560,-8671.589102
5599.000016,1378.265818,344.566454,-9456.434915
5599.002571,1990.828403,2756.531635,-9571.290400
5599.005129,-306.281293,153.140646,-10202.995566
5599.007687,2871.387120,2335.394858,-9399.007173
5599.010244,2316.252277,746.560651,-9533.005238
5599.012802,-2431.107762,957.129040,-10088.140082
5599.015360,3483.949706,7312.465866,-8365.307810
5599.017918,1722.832272,-153.140646,-10547.562021
5599.020476,-937.986459,957.129040,-9915.856854
5599.023033,1856.830338,2143.969050,-8958.727814
5599.025591,2756.531635,-325.423874,-9360.722011
5599.028149,-2067.398726,-1588.834206,-10241.280728
5599.030707,-823.130974,7312.465866,-8901.300072
5599.033264,3637.090352,-306.281293,-9437.292334
5599.035822,-2411.965181,-3407.379382,-11236.694930
5599.038380,2277.967115,8614.161360,-7312.465866
5599.040938,1971.685822,-7235.895542,-10872.985894
5599.043495,-3177.668413,3751.945837,-9533.005238
5599.046053,-2411.965181,2584.248408,-8843.872330
5599.048611,2775.674216,-3254.238736,-10260.423309
5599.051169,-3101.098090,-133.998066,-9992.427178
5599.053726,2469.392923,3464.807125,-8863.014910
5599.056284,1933.400661,612.562586,-9801.001370
5599.058842,-4077.369710,-2431.107762,-10547.562021
5599.061400,287.138712,669.990328,-9131.011042
5599.063957,2335.394858,1244.267752,-9360.722011
5599.066515,-19.142581,-1531.406464,-10317.851051
5599.069073,-2124.826469,-1225.125171,-9667.003304
5599.071631,-574.277424,1952.543242,-9341.579430
5599.074188,1933.400661,-153.140646,-10222.138147
5599.076746,153.140646,995.414202,-9762.716208
5599.079304,-612.562586,516.849682,-9590.432981
5599.081862,267.996131,153.140646,-9801.001370
5599.084419,325.423874,899.701298,-9609.575562
5599.086977,535.992262,38.285162,-10049.854920
5599.089535,-229.710970,669.990328,-9992.427178
5599.092093,-172.283227,1627.119368,-9265.009107
5599.094650,-38.285162,-2488.535504,-10088.140082
5599.097208,-2297.109696,-248.853550,-9801.001370
5599.099766,-516.849682,669.990328,-9781.858789
5599.102324,2699.103893,267.996131,-9896.714274
5599.104881,-1378.265818,-2986.242605,-9820.143950
5599.107424,-1359.123237,-1129.412267,-9322.436850
5599.109968,153.140646,2813.959378,-9820.143950
5599.112511,440.279358,918.843878,-9973.284597
5599.115054,306.281293,1818.545176,-9647.860723
5599.117597,1799.402595,727.418070,-9111.868461
5599.120140,-2718.246474,-4421.936165,-10528.419440
5599.122684,612.562586,5111.069074,-8767.302006
5599.125227,1416.550979,-5513.063270,-10987.841379
5599.127770,-2029.113565,2507.678085,-10145.567824
5599.130313,5666.203917,7944.171032,-7599.604578
5599.132856,-229.710970,-4957.928427,-11944.970419
5599.135400,-1627.119368,10470.991698,-7963.313613
5599.137943,2239.681954,-3426.521963,-10030.712339
5599.140486,1780.260014,1454.836141,-9839.286531
5599.143029,-1148.554848,803.988394,-9973.284597
5599.145572,4211.367776,-497.707101,-9437.292334
5599.148116,-1933.400661,1454.836141,-9647.860723
5599.150659,-555.134843,4249.652938,-8748.159426
5599.153202,3675.375514,650.847747,-9494.720077
5599.155745,784.845813,4364.508422,-9839.286531
5599.158288,3503.092286,-38.285162,-9533.005238
5599.160832,-1033.699363,-861.416136,-9705.288466
5599.163375,-1990.828403,2239.681954,-9073.583299
5599.165918,3101.098090,-1761.117434,-10375.278794
5599.168461,3158.525832,1703.689691,-9820.143950
5599.171004,-401.994197,957.129040,-9609.575562
5599.173548,344.566454,1378.265818,-9360.722011
5599.176091,689.132909,-210.568389,-9686.145885
5599.178634,401.994197,1627.119368,-9724.431046
5599.181177,1473.978722,1033.699363,-10241.280728
5599.183720,937.986459,1416.550979,-9571.290400
5599.186264,1895.115499,1780.260014,-9207.581365
5599.188807,-153.140646,-516.849682,-9896.714274
5599.191350,1646.261949,3215.953574,-9418.149754
5599.193893,3541.377448,2507.678085,-9915.856854
5599.196436,-2029.113565,-2067.398726,-10624.132344
5599.198980,995.414202,8212.167163,-7695.317482
5599.201523,1971.685822,746.560651,-9743.573627
5599.204066,1301.695494,-133.998066,-10643.274925
5599.206609,-612.562586,2756.531635,-9322.436850
5599.209157,4287.938099,497.707101,-9456.434915
5599.211704,-1818.545176,-3675.375514,-10681.560086
5599.214252,1550.549045,6125.625856,-8614.161360
5599.216799,4326.223261,2143.969050,-9035.298138
5599.219347,-1741.974853,-6049.055533,-11925.827838
5599.221895,899.701298,8422.735552,-7255.038123
5599.224442,3235.096155,-6623.332957,-10298.708470
5599.226990,-3560.520029,1627.119368,-9724.431046
5599.229537,-746.560651,-133.998066,-9245.866526
5599.232085,2105.683888,-1244.267752,-10107.282662
5599.234633,-3081.955509,1033.699363,-9724.431046
5599.237180,3637.090352,2297.109696,-8939.585234
5599.239728,2258.824534,-172.283227,-10011.569758
5599.242275,-4345.365842,-3101.098090,-10758.130410
5599.244823,191.425808,1990.828403,-8767.302006
5599.247370,2833.101958,306.281293,-9590.432981
5599.249918,-153.140646,-1071.984525,-10470.991698
5599.252466,-1684.547110,1952.543242,-9169.296203
5599.255013,-1014.556782,-2469.392923,-10049.854920
5599.257561,-57.427742,1320.838075,-9877.571693
5599.260108,478.564520,1646.261949,-10011.569758
5599.262656,1435.693560,-133.998066,-10126.425243
5599.265203,382.851616,574.277424,-9552.147819
5599.267751,-803.988394,210.568389,-9513.862658
5599.270299,440.279358,1493.121302,-10145.567824
5599.272846,1148.554848,-555.134843,-10298.708470
5599.275394,-1990.828403,516.849682,-9513.862658
5599.277941,-1665.404530,-918.843878,-9647.860723
5599.280489,669.990328,-669.990328,-9743.573627
5599.283036,-689.132909,727.418070,-10088.140082
5599.285584,38.285162,-478.564520,-9456.434915
5599.288132,1416.550979,-3139.383251,-10068.997501
5599.290679,-2947.957443,-4364.508422,-10968.698798
5599.293227,1071.984525,4268.795518,-8748.159426
5599.295774,708.275490,153.140646,-9801.001370
5599.298322,1895.115499,2679.961312,-8863.014910
5599.300869,-3177.668413,-4192.225195,-10260.423309
5599.303417,1014.556782,4651.647134,-8575.876198
5599.305965,2201.396792,-6106.483275,-10643.274925
5599.308512,-1741.974853,191.425808,-10298.708470
5599.311064,5015.356170,9762.716208,-7331.608446
5599.313615,5570.491013,-1301.695494,-10145.567824
5599.316167,-4019.941968,4517.649069,-9265.009107
5599.318718,803.988394,2335.394858,-8441.878133
5599.321270,4670.789715,-3043.670347,-10604.989763
5599.323821,-1531.406464,210.568389,-10336.993632
5599.326373,3541.377448,-842.273555,-9781.858789
5599.328925,-1359.123237,1607.976787,-9494.720077
5599.331476,-459.421939,4555.934230,-8575.876198
5599.334028,2737.389054,-421.136778,-9973.284597
5599.336579,2469.392923,3675.375514,-10107.282662
5599.339131,1339.980656,803.988394,-9705.288466
5599.341682,-57.427742,-1052.841944,-9513.862658
5599.344234,-1780.260014,2297.109696,-9111.868461
5599.346785,2258.824534,-497.707101,-10317.851051
5599.349337,1914.258080,1818.545176,-10030.712339
5599.351888,861.416136,1339.980656,-9494.720077
5599.354440,344.566454,727.418070,-9418.149754
5599.356992,172.283227,325.423874,-9571.290400
5599.359543,1550.549045,1435.693560,-9533.005238
5599.362095,1761.117434,861.416136,-10662.417506
5599.364646,-880.558717,2029.113565,-9226.723946
5599.367198,3924.229064,1569.691626,-8863.014910
5599.369749,3235.096155,-76.570323,-9973.284597
5599.372301,-306.281293,3330.809059,-9839.286531
5599.374852,306.281293,631.705166,-9743.573627
5599.377404,746.560651,2565.105827,-10030.712339
5599.379955,-746.560651,4058.227130,-9016.155557
5599.382507,4804.787781,2660.818731,-8997.012976
5599.385059,-669.990328,-1473.978722,-10336.993632
5599.387610,-382.851616,4881.358104,-9131.011042
5599.390162,3043.670347,-2182.254211,-9858.429112
5599.392713,-2928.814862,-1818.545176,-10681.560086
5599.395265,2813.959378,8518.448456,-7733.602643
5599.397816,1244.267752,-6623.332957,-10911.271056
5599.400368,-3981.656806,4766.502619,-9265.009107
5599.402919,4441.078746,114.855485,-9475.577496
5599.405471,-1378.265818,-3943.371645,-10834.700733
5599.408022,-4096.512291,2603.390989,-8748.159426
5599.410574,3828.516160,-1761.117434,-9743.573627
5599.413129,-650.847747,-2143.969050,-10164.710405
5599.415684,57.427742,4096.512291,-9054.440718
5599.418239,2163.111630,1091.127106,-9456.434915
5599.420794,-3675.375514,-3139.383251,-9992.427178
5599.423349,-1071.984525,1186.840010,-9054.440718
5599.425904,3522.234867,19.142581,-9590.432981
5599.428459,287.138712,-306.281293,-10356.136213
5599.431014,-1110.269686,1703.689691,-9092.725880
5599.433570,-1129.412267,-1014.556782,-9705.288466
5599.436125,344.566454,-210.568389,-9858.429112
5599.438680,650.847747,861.416136,-9705.288466
5599.441235,1167.697429,1110.269686,-10088.140082
5599.443790,-287.138712,-306.281293,-9915.856854
5599.446345,-382.851616,918.843878,-9188.438784
5599.448900,497.707101,-287.138712,-9954.142016
5599.451455,-1167.697429,-172.283227,-10356.136213
5599.454010,-1301.695494,746.560651,-9877.571693
5599.456565,363.709035,1167.697429,-9571.290400
5599.459120,-516.849682,-2679.961312,-9801.001370
5599.461675,-2124.826469,-3196.810994,-10222.138147
5599.464230,861.416136,3771.088418,-9628.718142
5599.466785,765.703232,-2067.398726,-10738.987829
5599.469340,-363.709035,2622.533570,-9647.860723
5599.471896,-1703.689691,-1454.836141,-9858.429112
5599.474451,-287.138712,1148.554848,-9801.001370
5599.477006,1875.972918,-95.712904,-9437.292334
5599.479561,-4077.369710,-5972.485210,-11466.405899
5599.482116,3790.230998,7140.182638,-8059.026517
5599.484671,5493.920690,-4039.084549,-10145.567824
5599.487226,-3407.379382,2871.387120,-10298.708470
5599.489781,3675.375514,8748.159426,-7810.172966
5599.492336,114.855485,-3158.525832,-10700.702667
5599.494891,1033.699363,2239.681954,-9169.296203
5599.497446,1837.687757,401.994197,-9418.149754
5599.500001,1665.404530,-1607.976787,-10068.997501
5599.502556,-440.279358,4383.651003,-9245.866526
5599.505111,574.277424,-2411.965181,-10164.710405
5599.507666,-1014.556782,3541.377448,-9322.436850
5599.510221,2852.244539,3388.236802,-8939.585234
5599.512777,4670.789715,2622.533570,-9628.718142
5599.515318,-401.994197,880.558717,-9858.429112
5599.517859,-650.847747,382.851616,-9322.436850
5599.520400,555.134843,363.709035,-9762.716208
5599.522941,1148.554848,497.707101,-9954.142016
5599.525482,1512.263883,1703.689691,-9820.143950
5599.528024,1052.841944,1244.267752,-9341.579430
5599.530565,-95.712904,229.710970,-9513.862658
5599.533106,861.416136,1033.699363,-9456.434915
5599.535647,478.564520,1263.410333,-9877.571693
5599.538188,3445.664544,1435.693560,-9934.999435
5599.540729,2928.814862,2277.967115,-9399.007173
5599.543271,1569.691626,1761.117434,-9341.579430
5599.545812,-1531.406464,-1301.695494,-9954.142016
5599.548353,1665.404530,4460.221326,-9762.716208
5599.550894,1052.841944,3388.236802,-10107.282662
5599.553435,2316.252277,669.990328,-9839.286531
5599.555976,-172.283227,3024.527766,-8824.729749
5599.558518,3464.807125,1205.982590,-9169.296203
5599.561059,-1301.695494,-2622.533570,-11236.694930
5599.563600,2258.824534,8346.165229,-8403.592971
5599.566141,803.988394,-6680.760699,-11255.837510
5599.568682,-4594.219392,2182.254211,-11198.409768
5599.571223,1167.697429,8690.731683,-7159.325219
5599.573765,2431.107762,-7197.610381,-10968.698798
5599.576306,-3311.666478,3981.656806,-9896.714274
5599.578847,-172.283227,-1282.552914,-9781.858789
5599.581388,1837.687757,-784.845813,-9322.436850
5599.583929,-3464.807125,842.273555,-9207.581365
5599.586470,3617.947771,-899.701298,-9609.575562
5599.589012,-229.710970,-325.423874,-10528.419440
5599.591553,-2411.965181,2048.256146,-9686.145885
5599.594094,1473.978722,1071.984525,-8537.591037
5599.596635,325.423874,-3043.670347,-10356.136213
5599.599176,267.996131,1454.836141,-9915.856854
5599.601717,1205.982590,76.570323,-9820.143950
5599.604259,-1397.408398,937.986459,-9801.001370
5599.606800,-1320.838075,-267.996131,-9743.573627
5599.609341,918.843878,1052.841944,-9360.722011
5599.611882,880.558717,631.705166,-9820.143950
5599.614423,57.427742,612.562586,-10145.567824
5599.616969,-842.273555,612.562586,-9475.577496
5599.619515,-440.279358,-210.568389,-9533.005238
5599.622061,-382.851616,-612.562586,-10126.425243
5599.624607,861.416136,2067.398726,-9571.290400
5599.627153,-1646.261949,-3081.955509,-10624.132344
5599.629699,-2928.814862,-746.560651,-9418.149754
5599.632245,2756.531635,1186.840010,-8518.448456
5599.634791,-1607.976787,-5436.492947,-11638.689126
5599.637337,-689.132909,3885.943902,-9188.438784
5599.639883,2124.826469,2967.100024,-9188.438784
5599.642429,2775.674216,1914.258080,-8939.585234
5599.644975,-4594.219392,-3349.951640,-10126.425243
5599.647521,1205.982590,5187.639397,-8786.444587
5599.650067,4192.225195,-5991.627790,-10796.415571
5599.652613,-2469.392923,-1933.400661,-10547.562021
5599.655159,4689.932296,10432.706536,-6910.471669
5599.657705,650.847747,-3905.086483,-11504.691061
5599.660251,-1952.543242,9437.292334,-8805.587168
5599.662798,2641.676150,-861.416136,-9724.431046
5599.665344,3235.096155,-363.709035,-9915.856854
5599.667890,-1703.689691,-38.285162,-10107.282662
5599.670436,1320.838075,-650.847747,-9801.001370
5599.672982,421.136778,3828.516160,-9437.292334
5599.675528,344.566454,2392.822600,-9322.436850
5599.678074,1588.834206,-612.562586,-10088.140082
5599.680620,1627.119368,4517.649069,-9533.005238
5599.683166,3407.379382,1933.400661,-9743.573627
5599.685712,401.994197,-248.853550,-10049.854920
5599.688258,-1741.974853,1933.400661,-9016.155557
5599.690804,2182.254211,191.425808,-9820.143950
5599.693350,2163.111630,-19.142581,-10164.710405
5599.695896,-574.277424,1301.695494,-9571.290400
5599.698442,669.990328,1091.127106,-9073.583299
5599.700988,650.847747,172.283227,-9494.720077
5599.703534,1397.408398,1627.119368,-9628.718142
5599.706080,1933.400661,1990.828403,-9781.858789
5599.708626,3771.088418,2105.683888,-9207.581365
5599.711172,937.986459,325.423874,-9360.722011
5599.713718,-708.275490,535.992262,-9131.011042
5599.716264,1359.123237,1282.552914,-10432.706536
5599.718814,-210.568389,1703.689691,-10241.280728
5599.721365,3962.514226,6221.338760,-8154.739421
5599.723916,95.712904,-1684.547110,-9781.858789
5599.726466,1990.828403,5072.783912,-8633.303941
5599.729017,1339.980656,-5168.496816,-10777.272990
5599.731567,-3483.949706,1684.547110,-10547.562021
5599.734118,3579.662610,4919.643266,-8537.591037
5599.736668,-2086.541307,-7886.743290,-11447.263318
5599.739219,-861.416136,1952.543242,-9839.286531
5599.741769,3062.812928,3483.949706,-9016.155557
5599.744320,133.998066,-4766.502619,-11657.831707
5599.746871,-4709.074877,2373.680019,-9245.866526
5599.749421,3426.521963,-1339.980656,-9399.007173
5599.751972,-1875.972918,-1282.552914,-9858.429112
5599.754522,1205.982590,4287.938099,-9054.440718
5599.757073,2297.109696,-1091.127106,-10356.136213
5599.759623,-5225.924558,229.710970,-10375.278794
5599.762174,229.710970,-133.998066,-9016.155557
5599.764725,2928.814862,-3809.373579,-10068.997501
5599.767275,-306.281293,421.136778,-10375.278794
5599.769826,229.710970,1569.691626,-9437.292334
5599.772376,287.138712,287.138712,-9628.718142
5599.774927,-1397.408398,363.709035,-9590.432981
5599.777477,1033.699363,861.416136,-9418.149754
5599.780028,727.418070,-19.142581,-9896.714274
5599.782578,-76.570323,1435.693560,-9877.571693
5599.785129,-784.845813,-19.142581,-9781.858789
5599.787680,-727.418070,-133.998066,-9341.579430
5599.790230,-1607.976787,-248.853550,-10183.852986
5599.792781,-478.564520,-114.855485,-9858.429112
5599.795331,-1531.406464,-3273.381317,-10030.712339
5599.797882,210.568389,2660.818731,-9169.296203
5599.800436,574.277424,-3120.240670,-10088.140082
5599.802990,1033.699363,555.134843,-10183.852986
5599.805544,-1761.117434,1052.841944,-9915.856854
5599.808098,2488.535504,3885.943902,-8863.014910
5599.810652,-3158.525832,-3828.516160,-10145.567824
5599.813207,-918.843878,3885.943902,-9092.725880
5599.815761,3637.090352,4364.508422,-8346.165229
5599.818315,1397.408398,-7331.608446,-11466.405899
5599.820869,-1856.830338,7963.313613,-9073.583299
5599.823423,5359.922624,2947.957443,-8977.870395
5599.825977,-2182.254211,2143.969050,-9724.431046
5599.828532,76.570323,4307.080680,-8327.022648
5599.831086,6049.055533,-2545.963246,-10164.710405
5599.833640,-1722.832272,-689.132909,-10317.851051
5599.836194,248.853550,57.427742,-9781.858789
5599.838748,823.130974,861.416136,-9399.007173
5599.841302,516.849682,5321.637462,-8882.157491
5599.843857,2201.396792,-76.570323,-9934.999435
5599.846411,1493.121302,2890.529701,-9743.573627
5599.848965,2297.109696,1952.543242,-9552.147819
5599.851519,899.701298,-248.853550,-9973.284597
5599.854073,-1703.689691,1091.127106,-9341.579430
5599.856628,1761.117434,1818.545176,-9513.862658
5599.859182,1320.838075,-229.710970,-10432.706536
5599.861736,19.142581,1205.982590,-9762.716208
5599.864290,899.701298,899.701298,-9475.577496
5599.866844,1416.550979,440.279358,-9705.288466
5599.869398,1780.260014,2316.252277,-9533.005238
5599.871953,3196.810994,2143.969050,-9494.720077
5599.874507,-880.558717,-306.281293,-9762.716208
5599.877061,1780.260014,4938.785846,-8595.018779
5599.879615,2737.389054,1244.267752,-9781.858789
5599.882169,-1282.552914,-229.710970,-10681.560086
5599.884723,1722.832272,6680.760699,-8461.020714
5599.887278,2354.537438,-1282.552914,-9667.003304
5599.889832,-287.138712,3560.520029,-9054.440718
5599.892386,3005.385186,1205.982590,-8843.872330
5599.894940,-1416.550979,-5379.065205,-11696.116869
5599.897494,459.421939,8135.596840,-8441.878133
5599.900048,2833.101958,-4996.213589,-10126.425243
5599.902606,-1148.554848,-5819.344563,-11083.554283
5599.905163,-497.707101,7197.610381,-8135.596840
5599.907721,708.275490,-4843.072942,-10930.413637
5599.910278,-2220.539373,1148.554848,-9934.999435
5599.912836,1014.556782,-267.996131,-9801.001370
5599.915393,459.421939,-3445.664544,-10107.282662
5599.917951,76.570323,4766.502619,-8786.444587
5599.920508,2220.539373,57.427742,-9686.145885
5599.923066,-4058.227130,-401.994197,-10394.421374
5599.925623,-1952.543242,2277.967115,-8939.585234
5599.928180,2737.389054,-3464.807125,-10068.997501
5599.930738,-19.142581,708.275490,-10164.710405
5599.933295,-153.140646,784.845813,-9743.573627
5599.935853,363.709035,1282.552914,-9552.147819
5599.938410,-1129.412267,459.421939,-9552.147819
5599.940968,19.142581,-57.427742,-9915.856854
5599.943525,861.416136,1339.980656,-9609.575562
5599.946083,-306.281293,-363.709035,-10068.997501
5599.948640,248.853550,689.132909,-9475.577496
5599.951198,-2641.676150,-1416.550979,-9820.143950
5599.953755,-2220.539373,-421.136778,-9915.856854
5599.956312,957.129040,-1952.543242,-9896.714274
5599.958870,229.710970,-57.427742,-10202.995566
5599.961427,-306.281293,440.279358,-9360.722011
5599.963985,1225.125171,191.425808,-9628.718142
5599.966542,-2813.959378,-1129.412267,-10643.274925
5599.969100,1799.402595,4862.215523,-8997.012976
5599.971657,-593.420005,-3713.660675,-10241.280728
5599.974215,-3292.523898,-3101.098090,-10604.989763
5599.976772,3330.809059,6240.481341,-7925.028451
5599.979329,3483.949706,-6623.332957,-11083.554283
5599.981887,-3464.807125,5513.063270,-10068.997501
5599.984444,4670.789715,5321.637462,-8690.731683
5599.987002,-191.425808,229.710970,-9915.856854
5599.989559,-823.130974,5532.205851,-8154.739421
5599.992117,6527.620053,-1741.974853,-9839.286531
5599.994674,-1512.263883,-1588.834206,-10470.991698
5599.997232,-1091.127106,-516.849682,-10107.282662
5599.999789,1359.123237,1225.125171,-9399.007173
5600.002347,1607.976787,5034.498750,-8652.446522
5600.004907,1186.840010,267.996131,-9934.999435
5600.007467,1646.261949,2660.818731,-9667.003304
5600.010028,2297.109696,957.129040,-9762.716208
5600.012588,1339.980656,229.710970,-9743.573627
5600.015148,-114.855485,1129.412267,-9265.009107
5600.017709,746.560651,976.271621,-9801.001370
5600.020269,918.843878,593.420005,-9992.427178
5600.022829,172.283227,1301.695494,-9762.716208
5600.025390,1129.412267,689.132909,-9705.288466
5600.027950,1799.402595,1588.834206,-9494.720077
5600.030510,2201.396792,2163.111630,-9475.577496
5600.033071,-459.421939,-823.130974,-10298.708470
5600.035631,3407.379382,4211.367776,-8920.442653
5600.038192,2545.963246,765.703232,-10222.138147
5600.040752,-2124.826469,-172.283227,-10547.562021
5600.043312,2316.252277,7714.460062,-7963.313613
5600.045873,976.271621,-1071.984525,-10145.567824
5600.048433,1339.980656,3962.514226,-9571.290400
5600.050993,2316.252277,19.142581,-8958.727814
5600.053554,-1799.402595,-3617.947771,-10930.413637
5600.056114,1646.261949,7140.182638,-8327.022648
5600.058674,401.994197,-6355.336826,-10738.987829
5600.061235,-3062.812928,4039.084549,-9111.868461
5600.063795,3866.801322,440.279358,-9054.440718
5600.066355,-574.277424,-2699.103893,-10624.132344
5600.068916,-4383.651003,1722.832272,-9207.581365
5600.071476,3101.098090,-267.996131,-9647.860723
5600.074037,-306.281293,-2086.541307,-10183.852986
5600.076597,765.703232,4517.649069,-8939.585234
5600.079157,2067.398726,-1473.978722,-9877.571693
5600.081718,-2967.100024,612.562586,-9896.714274
5600.084278,-2679.961312,-2086.541307,-9992.427178
5600.086838,1244.267752,114.855485,-9609.575562
5600.089399,1339.980656,344.566454,-9743.573627
5600.091959,861.416136,382.851616,-10183.852986
5600.094519,-267.996131,842.273555,-9667.003304
5600.097080,-574.277424,593.420005,-9226.723946
5600.099640,133.998066,421.136778,-10126.425243
5600.102201,574.277424,1091.127106,-10068.997501
5600.104761,1703.689691,-76.570323,-9858.429112
5600.107307,-3101.098090,-363.709035,-9609.575562
5600.109853,-2316.252277,440.279358,-9131.011042
5600.112398,-1091.127106,-2794.816797,-10432.706536
5600.114944,1722.832272,1646.261949,-9934.999435
5600.117490,-1244.267752,-4345.365842,-10566.704602
5600.120036,-401.994197,861.416136,-8920.442653
5600.122582,-1952.543242,765.703232,-9628.718142
5600.125128,2411.965181,3962.514226,-9054.440718
5600.127674,-2833.101958,-3330.809059,-10949.556218
5600.130220,555.134843,5800.201982,-8346.165229
5600.132765,3694.518094,-6431.907149,-10260.423309
5600.135311,-2871.387120,-899.701298,-10222.138147
5600.137857,4326.223261,8020.741355,-7599.604578
5600.140403,497.707101,-4134.797453,-11657.831707
5600.142949,-765.703232,9475.577496,-8767.302006
5600.145495,2526.820666,-1665.404530,-9628.718142
5600.148041,4862.215523,-1493.121302,-9609.575562
5600.150586,-1703.689691,1167.697429,-9954.142016
5600.153132,1646.261949,-248.853550,-9820.143950
5600.155678,2316.252277,3043.670347,-9169.296203
5600.158224,-1167.697429,-2163.111630,-10145.567824
5600.160770,1990.828403,3809.373579,-8709.874264
5600.163316,2067.398726,3081.955509,-9207.581365
5600.165862,516.849682,1301.695494,-10241.280728
5600.168407,1359.123237,1971.685822,-9571.290400
5600.170953,516.849682,-95.712904,-9494.720077
5600.173499,957.129040,995.414202,-9360.722011
5600.176045,612.562586,1359.123237,-9743.573627
5600.178591,899.701298,459.421939,-10183.852986
5600.181137,1416.550979,1799.402595,-9284.151688
5600.183683,1895.115499,1722.832272,-9686.145885
5600.186229,2067.398726,1531.406464,-9590.432981
5600.188774,535.992262,-1129.412267,-9686.145885
5600.191320,1856.830338,4019.941968,-9207.581365
5600.193866,-229.710970,4096.512291,-9820.143950
5600.196412,2565.105827,2411.965181,-9303.294269
5600.198958,-803.988394,2450.250342,-9762.716208
5600.201504,1282.552914,823.130974,-9360.722011
5600.204050,1033.699363,976.271621,-9820.143950
5600.206595,3158.525832,4938.785846,-8633.303941
5600.209146,-1761.117434,-6604.190376,-11715.259450
5600.211696,-2928.814862,6374.479406,-8767.302006
5600.214246,4192.225195,-2182.254211,-9360.722011
5600.216796,-2584.248408,-2871.387120,-10987.841379
5600.219346,-1588.834206,6757.331022,-8518.448456
5600.221896,-401.994197,-2909.672282,-10413.563955
5600.224446,-382.851616,-57.427742,-9781.858789
5600.226996,-440.279358,593.420005,-9494.720077
5600.229547,708.275490,-4230.510357,-10528.419440
5600.232097,287.138712,4536.791650,-9054.440718
5600.234647,1473.978722,363.709035,-9494.720077
5600.237197,-2143.969050,-937.986459,-10241.280728
5600.239747,-3885.943902,-95.712904,-9533.005238
5600.242297,2660.818731,-1071.984525,-9284.151688
5600.244847,2105.683888,-421.136778,-10317.851051
5600.247397,0.000000,1646.261949,-9705.288466
5600.249947,0.000000,-38.285162,-9399.007173
5600.252498,-650.847747,363.709035,-9169.296203
5600.255048,248.853550,689.132909,-9973.284597
5600.257598,1186.840010,1148.554848,-10107.282662
5600.260148,-1091.127106,-1531.406464,-10011.569758
5600.262698,-2756.531635,708.275490,-9169.296203
5600.265248,-1282.552914,-1933.400661,-9820.143950
5600.267798,1301.695494,995.414202,-9839.286531
5600.270348,-995.414202,-2603.390989,-10375.278794
5600.272899,1110.269686,-1359.123237,-9743.573627
5600.275449,-1722.832272,76.570323,-9934.999435
5600.277999,2737.389054,3866.801322,-8863.014910
5600.280549,-650.847747,-3369.094221,-10509.276859
5600.283099,-2277.967115,3675.375514,-9686.145885
5600.285649,3522.234867,287.138712,-9111.868461
5600.288199,-823.130974,-7484.749093,-11600.403965
5600.290749,1990.828403,10049.854920,-7944.171032
5600.293299,3503.092286,-861.416136,-10394.421374
5600.295850,-2048.256146,6565.905214,-9494.720077
5600.298400,1531.406464,899.701298,-9169.296203
5600.300950,4900.500685,-861.416136,-9762.716208
5600.303500,-1550.549045,-1014.556782,-10490.134278
5600.306050,-1091.127106,-95.712904,-10145.567824
5600.308600,4460.221326,3885.943902,-8671.589102
5600.311154,-976.271621,-1569.691626,-10356.136213
5600.313708,1129.412267,3522.234867,-9169.296203
5600.316262,2679.961312,2890.529701,-9035.298138
5600.318816,76.570323,823.130974,-10183.852986
5600.321370,803.988394,1684.547110,-9494.720077
5600.323924,1665.404530,38.285162,-9762.716208
5600.326478,248.853550,842.273555,-9647.860723
5600.329032,-191.425808,1129.412267,-9609.575562
5600.331586,1856.830338,1033.699363,-9341.579430
5600.334140,2201.396792,1205.982590,-9781.858789
5600.336694,1167.697429,2220.539373,-9896.714274
5600.339248,2048.256146,-1186.840010,-9590.432981
5600.341802,1378.265818,3426.521963,-9016.155557
5600.344356,2584.248408,3062.812928,-9399.007173
5600.346910,650.847747,-1110.269686,-10260.423309
5600.349464,57.427742,6087.340694,-9073.583299
5600.352018,95.712904,1531.406464,-9609.575562
5600.354572,1627.119368,2258.824534,-9054.440718
5600.357126,3043.670347,3101.098090,-8461.020714
5600.359680,-1990.828403,-5474.778109,-11542.976222
5600.362234,-689.132909,6967.899411,-8652.446522
5600.364788,3081.955509,-4402.793584,-10145.567824
5600.367342,-3751.945837,-555.134843,-10279.565890
5600.369896,2258.824534,4728.217458,-7963.313613
5600.372450,746.560651,-5168.496816,-11179.267187
5600.375004,-4689.932296,1607.976787,-9762.716208
5600.377558,574.277424,574.277424,-9667.003304
5600.380112,-38.285162,-3369.094221,-10356.136213
5600.382666,76.570323,4555.934230,-8824.729749
5600.385220,1473.978722,-1512.263883,-9705.288466
5600.387774,-2086.541307,306.281293,-10470.991698
5600.390328,-1569.691626,210.568389,-9877.571693
5600.392882,1186.840010,-3369.094221,-9915.856854
5600.395436,-1435.693560,1627.119368,-9456.434915
5600.397990,1052.841944,842.273555,-10164.710405
5600.400544,1263.410333,669.990328,-9781.858789
5600.403098,957.129040,-76.570323,-9552.147819
5600.405652,-1301.695494,689.132909,-9877.571693
5600.408206,1339.980656,229.710970,-9552.147819
5600.410760,-995.414202,-593.420005,-10011.569758
5600.413317,-2890.529701,-210.568389,-9647.860723
5600.415875,1627.119368,-267.996131,-9284.151688
5600.418433,-2431.107762,-3771.088418,-10624.132344
5600.420990,-1033.699363,1588.834206,-8633.303941
5600.423548,2890.529701,1914.258080,-9111.868461
5600.426106,-1569.691626,-1512.263883,-10547.562021
5600.428663,-2086.541307,2871.387120,-9513.862658
5600.431221,1454.836141,229.710970,-9284.151688
5600.433778,-2967.100024,-5685.346498,-11198.409768
5600.436336,2852.244539,7982.456194,-7752.745224
5600.438894,6585.047795,-4517.649069,-10298.708470
5600.441451,-3273.381317,1339.980656,-10585.847182
5600.444009,2067.398726,6546.762634,-8212.167163
5600.446566,1531.406464,-382.851616,-10183.852986
5600.449124,-1263.410333,6297.909083,-8346.165229
5600.451682,4211.367776,2794.816797,-9188.438784
5600.454239,1301.695494,-3292.523898,-10738.987829
5600.456797,-3139.383251,-95.712904,-9954.142016
5600.459355,3445.664544,3981.656806,-8709.874264
5600.461912,2009.970984,-823.130974,-10451.849117
5600.464470,-1205.982590,2947.957443,-9571.290400
5600.467027,2526.820666,3311.666478,-8824.729749
5600.469585,1205.982590,-382.851616,-10432.706536
5600.472143,57.427742,1225.125171,-9533.005238
5600.474700,765.703232,708.275490,-9781.858789
5600.477258,650.847747,593.420005,-9915.856854
5600.479815,306.281293,937.986459,-9379.864592
5600.482373,1493.121302,1722.832272,-9475.577496
5600.484931,957.129040,1282.552914,-9934.999435
5600.487488,3273.381317,803.988394,-9437.292334
5600.490046,1990.828403,2584.248408,-9226.723946
5600.492604,784.845813,3120.240670,-9647.860723
5600.495161,1378.265818,-229.710970,-9494.720077
5600.497719,95.712904,3847.658741,-9743.573627
5600.500276,-421.136778,1052.841944,-10049.854920
5600.502834,976.271621,2545.963246,-8863.014910
5600.505392,3962.514226,3771.088418,-8480.163294
5600.507949,-2641.676150,-5838.487144,-11408.978157
5600.510507,-1856.830338,6719.045861,-8901.300072
5600.513064,4230.510357,-3426.521963,-9896.714274
5600.515625,-3311.666478,-2852.244539,-11026.126541
5600.518185,1569.691626,5723.631659,-7561.319416
5600.520746,1129.412267,-4785.645200,-10949.556218
5600.523306,-1033.699363,497.707101,-10011.569758
5600.525866,95.712904,1186.840010,-9820.143950
5600.528427,-95.712904,-2852.244539,-10298.708470
5600.530987,19.142581,3828.516160,-8652.446522
5600.533547,976.271621,-2086.541307,-9839.286531
5600.536108,-1818.545176,191.425808,-10451.849117
5600.538668,-631.705166,516.849682,-9743.573627
5600.541228,0.000000,-1952.543242,-9820.143950
5600.543789,-1052.841944,440.279358,-9437.292334
5600.546349,401.994197,1550.549045,-9437.292334
5600.548909,1416.550979,995.414202,-10088.140082
5600.551470,-306.281293,976.271621,-9379.864592
5600.554030,-210.568389,287.138712,-9590.432981
5600.556590,-440.279358,-516.849682,-9858.429112
5600.559151,-1550.549045,-76.570323,-9820.143950
5600.561711,287.138712,-248.853550,-9858.429112
5600.564271,-1799.402595,-765.703232,-10202.995566
5600.566832,-861.416136,19.142581,-9111.868461
5600.569392,1837.687757,-2048.256146,-9628.718142
5600.571953,-2335.394858,-3005.385186,-11753.544611
5600.574513,765.703232,6029.912952,-8863.014910
5600.577073,746.560651,-3388.236802,-10222.138147
5600.579634,-3771.088418,2526.820666,-9590.432981
5600.582194,2392.822600,3292.523898,-8212.167163
5600.584754,708.275490,-8078.169098,-11887.542677
5600.587315,1167.697429,7465.606512,-9092.725880
5600.589875,3637.090352,-191.425808,-9820.143950
5600.592435,-1837.687757,5704.489078,-9111.868461
5600.594996,248.853550,1665.404530,-9245.866526
5600.597556,5972.485210,-114.855485,-9418.149754
5600.600116,-574.277424,-1550.549045,-10585.847182
5600.602677,-1416.550979,382.851616,-10068.997501
5600.605237,4555.934230,1588.834206,-8805.587168
5600.607797,-1225.125171,937.986459,-9973.284597
5600.610358,2048.256146,3771.088418,-9150.153622
5600.612918,1933.400661,1091.127106,-9494.720077
5600.615478,-708.275490,1378.265818,-9839.286531
5600.618041,1263.410333,440.279358,-9839.286531
5600.620604,1761.117434,650.847747,-9360.722011
5600.623167,1225.125171,459.421939,-9781.858789
5600.625730,-229.710970,746.560651,-9647.860723
5600.628293,2105.683888,2163.111630,-8939.585234
5600.630856,1033.699363,-1225.125171,-10528.419440
5600.633419,3043.670347,4613.361973,-9207.581365
5600.635982,4096.512291,38.285162,-9552.147819
5600.638545,-2584.248408,440.279358,-10183.852986
5600.641107,1914.258080,7216.752962,-8020.741355
5600.643670,2660.818731,650.847747,-10509.276859
5600.646233,3617.947771,2641.676150,-10068.997501
5600.648796,-1339.980656,-1703.689691,-9781.858789
5600.651359,3522.234867,5072.783912,-8250.452325
5600.653922,229.710970,-3713.660675,-10528.419440
5600.656485,-4115.654872,976.271621,-10509.276859
5600.659048,3847.658741,4938.785846,-8173.882002
5600.661611,191.425808,-8863.014910,-11715.259450
5600.664173,-2143.969050,5283.352301,-8575.876198
5600.666736,76.570323,-1837.687757,-9858.429112
5600.669299,-306.281293,689.132909,-10068.997501
5600.671862,-516.849682,1512.263883,-9801.001370
5600.674425,-382.851616,-4153.940034,-10451.849117
5600.676988,-95.712904,2756.531635,-8518.448456
5600.679551,191.425808,0.000000,-9686.145885
5600.682114,-727.418070,-1129.412267,-10758.130410
5600.684677,-1301.695494,2029.113565,-9533.005238
5600.687239,1167.697429,-1799.402595,-9724.431046
5600.689802,325.423874,459.421939,-9399.007173
5600.692365,-650.847747,555.134843,-9781.858789
5600.694928,114.855485,1359.123237,-9858.429112
5600.697491,842.273555,421.136778,-9743.573627
5600.700054,-1320.838075,-708.275490,-9743.573627
5600.702617,-1588.834206,-382.851616,-9494.720077
5600.705180,612.562586,-708.275490,-9877.571693
5600.707743,-2488.535504,-3828.516160,-10892.128475
5600.710306,-2335.394858,899.701298,-9092.725880
5600.712868,2450.250342,1473.978722,-8480.163294
5600.715431,-1512.263883,-5149.354235,-11332.407834
5600.717994,976.271621,5072.783912,-9016.155557
5600.720542,-421.136778,-2813.959378,-10356.136213
5600.723091,-2316.252277,4804.787781,-9169.296203
5600.725639,2373.680019,1091.127106,-8709.874264
5600.728187,-172.283227,-6719.045861,-11466.405899
5600.730735,2890.529701,8518.448456,-8307.880067
5600.733283,3464.807125,2928.814862,-9073.583299
5600.735831,497.707101,2584.248408,-9724.431046
5600.738380,-1282.552914,4000.799387,-8901.300072
5600.740928,5704.489078,-937.986459,-9628.718142
5600.743476,-823.130974,-306.281293,-10222.138147
5600.746024,248.853550,880.558717,-9915.856854
5600.748572,2641.676150,535.992262,-9207.581365
5600.751120,-76.570323,3388.236802,-9533.005238
5600.753668,3005.385186,669.990328,-9667.003304
5600.756217,-57.427742,1091.127106,-9954.142016
5600.758765,-995.414202,1378.265818,-9877.571693
5600.761313,1761.117434,574.277424,-9743.573627
5600.763861,1550.549045,689.132909,-9628.718142
5600.766409,-306.281293,1148.554848,-9705.288466
5600.768957,2182.254211,535.992262,-9705.288466
5600.771506,-1033.699363,1282.552914,-9533.005238
5600.774054,4077.369710,2297.109696,-9590.432981
5600.776602,4307.080680,363.709035,-10317.851051
5600.779150,95.712904,3503.092286,-9245.866526
5600.781698,861.416136,3885.943902,-8556.733618
5600.784246,2143.969050,287.138712,-10451.849117
5600.786795,-478.564520,2182.254211,-10202.995566
5600.789343,3158.525832,5398.207786,-8843.872330
5600.791891,3081.955509,-133.998066,-8997.012976
5600.794439,-2737.389054,-1512.263883,-9954.142016
5600.796987,1952.543242,5742.774240,-8824.729749
5600.799535,229.710970,-7580.461997,-11447.263318
5600.802084,-3139.383251,3177.668413,-9379.864592
5600.804632,3656.232933,5761.916821,-7810.172966
5600.807180,1493.121302,-4153.940034,-10528.419440
5600.809728,-4115.654872,1741.974853,-9724.431046
5600.812276,2048.256146,1722.832272,-9762.716208
5600.814824,555.134843,669.990328,-9954.142016
5600.817373,-689.132909,-172.283227,-9322.436850
5600.819921,-497.707101,-2067.398726,-9801.001370
5600.822472,-765.703232,1244.267752,-9781.858789
5600.825024,-325.423874,-976.271621,-10528.419440
5600.827576,-133.998066,2009.970984,-9456.434915
5600.830129,-803.988394,765.703232,-9456.434915
5600.832681,918.843878,57.427742,-9571.290400
5600.835233,-497.707101,516.849682,-9743.573627
5600.837785,95.712904,823.130974,-10107.282662
5600.840338,-440.279358,-899.701298,-10011.569758
5600.842890,-1684.547110,-459.421939,-9360.722011
5600.845442,1033.699363,-401.994197,-9513.862658
5600.847994,-2660.818731,-2699.103893,-10758.130410
5600.850547,-2009.970984,995.414202,-9226.723946
5600.853099,2297.109696,-861.416136,-9552.147819
5600.855651,-861.416136,-5053.641331,-11121.839445
5600.858203,344.566454,5225.924558,-9035.298138
5600.860756,516.849682,-2986.242605,-10356.136213
5600.863308,-3215.953574,2258.824534,-10030.712339
5600.865860,1914.258080,4402.793584,-8039.883936
5600.868412,1014.556782,-7982.456194,-11485.548480
5600.870965,1416.550979,7255.038123,-8863.014910
5600.873517,3330.809059,-631.705166,-10011.569758
5600.876069,-1378.265818,5474.778109,-9265.009107
5600.878621,-191.425808,957.129040,-9571.290400
5600.881174,5474.778109,-669.990328,-9399.007173
5600.883726,-57.427742,-1186.840010,-10260.423309
5600.886278,-459.421939,1167.697429,-9762.716208
5600.888831,2354.537438,727.418070,-9111.868461
5600.891383,918.843878,4019.941968,-9571.290400
5600.893935,2507.678085,-478.564520,-10049.854920
5600.896487,-114.855485,2258.824534,-9437.292334
5600.899040,19.142581,1205.982590,-9494.720077
5600.901592,1761.117434,746.560651,-9781.858789
5600.904144,1225.125171,478.564520,-10049.854920
5600.906696,-153.140646,1722.832272,-9552.147819
5600.909249,1244.267752,325.423874,-9399.007173
5600.911801,2163.111630,1607.976787,-9188.438784
5600.914353,2565.105827,2679.961312,-9839.286531
5600.916905,3617.947771,1990.828403,-9839.286531
5600.919458,-1186.840010,-689.132909,-9475.577496
5600.922010,861.416136,5647.061336,-8518.448456
5600.924566,976.271621,2450.250342,-9896.714274
5600.927122,3292.523898,5627.918755,-9226.723946
5600.929678,-363.709035,-3235.096155,-10547.562021
5600.932234,-306.281293,4670.789715,-8748.159426
5600.934790,2967.100024,-803.988394,-9341.579430
5600.937346,-3369.094221,-4268.795518,-11638.689126
5600.939902,2373.680019,6585.047795,-8078.169098
5600.942458,1301.695494,-7676.174901,-10911.271056
5600.945014,-2584.248408,3120.240670,-9513.862658
5600.947571,-1186.840010,516.849682,-9590.432981
5600.950127,1607.976787,382.851616,-9820.143950
5600.952683,497.707101,1703.689691,-9877.571693
5600.955239,-2067.398726,-4058.227130,-10528.419440
5600.957795,306.281293,2871.387120,-8441.878133
5600.960351,-153.140646,-1531.406464,-9973.284597
5600.962907,-1052.841944,-1282.552914,-10662.417506
5600.965463,19.142581,2297.109696,-9245.866526
5600.968019,1091.127106,-1627.119368,-10107.282662
5600.970575,-1550.549045,899.701298,-9341.579430
5600.973131,-19.142581,631.705166,-9341.579430
5600.975687,1569.691626,95.712904,-10107.282662
5600.978243,-1014.556782,-535.992262,-10470.991698
5600.980799,-2277.967115,-306.281293,-9475.577496
5600.983355,1320.838075,765.703232,-9054.440718
5600.985912,-2565.105827,-4689.932296,-10853.843314
5600.988468,-2947.957443,172.283227,-9533.005238
5600.991024,2718.246474,2584.248408,-8901.300072
5600.993580,-1129.412267,-5359.922624,-11102.696864
5600.996136,631.705166,4402.793584,-8709.874264
5600.998692,-746.560651,-2909.672282,-10145.567824
5601.001248,-1703.689691,4670.789715,-9628.718142
5601.003804,2622.533570,7791.030386,-7465.606512
5601.006363,3024.527766,-6891.329088,-10930.413637
5601.008922,-1263.410333,4249.652938,-9877.571693
5601.011481,3120.240670,2086.541307,-8977.870395
5601.014041,631.705166,3235.096155,-9628.718142
5601.016600,-1282.552914,2986.242605,-9552.147819
5601.019159,5493.920690,-746.560651,-9667.003304
5601.021718,-593.420005,746.560651,-9628.718142
5601.024277,1186.840010,976.271621,-9667.003304
5601.026836,2622.533570,1244.267752,-8843.872330
5601.029395,2258.824534,3828.516160,-9743.573627
5601.031954,1588.834206,210.568389,-10164.710405
5601.034514,325.423874,2354.537438,-9111.868461
5601.037073,57.427742,287.138712,-9379.864592
5601.039632,995.414202,1244.267752,-9724.431046
5601.042191,995.414202,1378.265818,-10222.138147
5601.044750,1186.840010,842.273555,-9571.290400
5601.047309,1263.410333,363.709035,-9360.722011
5601.049868,1397.408398,2852.244539,-9207.581365
5601.052427,3483.949706,2220.539373,-10049.854920
5601.054987,-133.998066,593.420005,-9820.143950
5601.057546,2182.254211,4249.652938,-8805.587168
5601.060105,1933.400661,1895.115499,-9992.427178
5601.062664,191.425808,1378.265818,-10011.569758
5601.065223,574.277424,5819.344563,-8786.444587
5601.067782,3943.371645,2086.541307,-9131.011042
5601.070341,-1531.406464,-2277.967115,-10758.130410
5601.072900,1091.127106,5972.485210,-8365.307810
5601.075460,4039.084549,-1971.685822,-9475.577496
5601.078019,-2718.246474,-6355.336826,-11408.978157
5601.080578,-421.136778,5570.491013,-8135.596840
5601.083137,2009.970984,-3943.371645,-10796.415571
5601.085696,-3675.375514,1148.554848,-9647.860723
5601.088255,1799.402595,2239.681954,-9226.723946
5601.090814,1761.117434,267.996131,-9743.573627
5601.093374,-3101.098090,-2871.387120,-10068.997501
5601.095933,-899.701298,-708.275490,-9341.579430
5601.098492,957.129040,612.562586,-9667.003304
5601.101051,401.994197,133.998066,-9915.856854
5601.103610,-727.418070,1588.834206,-9399.007173
5601.106169,114.855485,478.564520,-9552.147819
5601.108728,1052.841944,76.570323,-9801.001370
5601.111287,-957.129040,363.709035,-9896.714274
5601.113847,-593.420005,708.275490,-9781.858789
5601.116406,-899.701298,-1607.976787,-9820.143950
5601.118965,-1397.408398,2373.680019,-9016.155557
5601.121524,-1799.402595,-3101.098090,-10451.849117
5601.124083,-1990.828403,-3713.660675,-10432.706536
5601.126642,344.566454,3330.809059,-9035.298138
5601.129204,765.703232,-4153.940034,-10451.849117
5601.131766,267.996131,2833.101958,-9341.579430
5601.134327,19.142581,-1607.976787,-10068.997501
5601.136889,-2986.242605,-5895.914886,-11619.546546
5601.139451,2737.389054,7523.034254,-7905.885870
5601.142013,6738.188442,-3962.514226,-9934.999435
5601.144574,-2220.539373,287.138712,-10490.134278
5601.147136,823.130974,6355.336826,-8346.165229
5601.149698,2756.531635,574.277424,-10528.419440
5601.152259,-1684.547110,4364.508422,-9303.294269
5601.154821,5283.352301,325.423874,-9169.296203
5601.157383,497.707101,-1607.976787,-10145.567824
5601.159945,-593.420005,2373.680019,-9513.862658
5601.162506,2009.970984,1741.974853,-9035.298138
5601.165068,3617.947771,2679.961312,-9839.286531
5601.167630,-114.855485,1722.832272,-9762.716208
5601.170191,957.129040,2450.250342,-8843.872330
5601.172753,669.990328,-440.279358,-9647.860723
5601.175315,248.853550,1493.121302,-9820.143950
5601.177877,1320.838075,1627.119368,-10222.138147
5601.180438,1627.119368,-153.140646,-9705.288466
5601.183000,842.273555,3349.951640,-8595.018779
5601.185562,2833.101958,957.129040,-9303.294269
5601.188124,2220.539373,803.988394,-10164.710405
5601.190685,937.986459,1512.263883,-9628.718142
5601.193247,2086.541307,3311.666478,-9437.292334
5601.195809,172.283227,1761.117434,-10088.140082
5601.198370,3349.951640,7408.178770,-8020.741355
5601.200932,248.853550,-2086.541307,-10011.569758
5601.203494,-2067.398726,3273.381317,-9743.573627
5601.206056,4058.227130,1186.840010,-9265.009107
5601.208617,-3330.809059,-8403.592971,-11868.400096
5601.211182,-3962.514226,2201.396792,-9111.868461
5601.213746,2469.392923,440.279358,-8901.300072
5601.216310,-459.421939,-1588.834206,-10949.556218
5601.218874,-3043.670347,3464.807125,-9533.005238
5601.221439,3464.807125,803.988394,-9437.292334
5601.224003,976.271621,497.707101,-9705.288466
5601.226567,-4077.369710,-3005.385186,-10279.565890
5601.229131,765.703232,2182.254211,-8882.157491
5601.231696,-421.136778,-2660.818731,-10834.700733
5601.234260,-306.281293,-133.998066,-10681.560086
5601.236824,382.851616,2354.537438,-8939.585234
5601.239388,344.566454,-995.414202,-9437.292334
5601.241953,-784.845813,727.418070,-9743.573627
5601.244517,267.996131,440.279358,-10049.854920
5601.247081,401.994197,-38.285162,-10222.138147
5601.249645,-1244.267752,-248.853550,-9667.003304
5601.252210,-899.701298,995.414202,-9226.723946
5601.254774,-1607.976787,-2545.963246,-9973.284597
5601.257338,-3139.383251,-3101.098090,-10413.563955
5601.259902,-1722.832272,363.709035,-10107.282662
5601.262467,1875.972918,-803.988394,-9494.720077
5601.265031,612.562586,1301.695494,-9494.720077
5601.267595,76.570323,267.996131,-9513.862658
5601.270159,-3426.521963,-3349.951640,-11198.409768
5601.272724,3503.092286,8307.880067,-7905.885870
5601.275288,4517.649069,-5934.200048,-10662.417506
5601.277852,-1895.115499,2603.390989,-9839.286531
5601.280416,1703.689691,3311.666478,-8652.446522
5601.282981,1301.695494,1990.828403,-10049.854920
5601.285545,-708.275490,5264.209720,-9092.725880
5601.288109,4709.074877,1741.974853,-9092.725880
5601.290673,1512.263883,-3043.670347,-10432.706536
5601.293238,-1856.830338,2239.681954,-9399.007173
5601.295802,2067.398726,1320.838075,-9111.868461
5601.298366,1588.834206,2335.394858,-10126.425243
5601.300930,1416.550979,3713.660675,-9705.288466
5601.303495,2469.392923,1244.267752,-9379.864592
5601.306059,-1244.267752,38.285162,-9303.294269
5601.308623,-248.853550,2009.970984,-9494.720077
5601.311187,1301.695494,976.271621,-10662.417506
5601.313753,2775.674216,2086.541307,-9705.288466
5601.316319,1971.685822,1569.691626,-8939.585234
5601.318885,2373.680019,1837.687757,-9150.153622
5601.321452,-248.853550,-267.996131,-10241.280728
5601.324018,3445.664544,5206.781978,-9303.294269
5601.326584,2679.961312,1627.119368,-10336.993632
5601.329150,-19.142581,765.703232,-9992.427178
5601.331716,-899.701298,4938.785846,-8097.311678
5601.334282,3445.664544,5398.207786,-8652.446522
5601.336848,172.283227,-4766.502619,-11179.267187
5601.339414,-4153.940034,3426.521963,-9992.427178
5601.341980,3828.516160,287.138712,-8786.444587
5601.344546,-2258.824534,-8078.169098,-11236.694930
5601.347112,-2009.970984,5187.639397,-8173.882002
5601.349678,2737.389054,-2852.244539,-10911.271056
5601.352244,-2871.387120,1148.554848,-10241.280728
5601.354810,1225.125171,2852.244539,-9226.723946
5601.357376,2469.392923,-478.564520,-9533.005238
5601.359942,-2737.389054,-2526.820666,-9379.864592
5601.362509,-2143.969050,-1301.695494,-10030.712339
5601.365075,1607.976787,746.560651,-10241.280728
5601.367641,746.560651,478.564520,-10088.140082
5601.370207,-918.843878,631.705166,-9054.440718
5601.372773,-38.285162,229.710970,-8882.157491
5601.375339,210.568389,-248.853550,-10068.997501
5601.377905,-76.570323,1167.697429,-10432.706536
5601.380471,401.994197,-631.705166,-10298.708470
5601.383037,-2335.394858,38.285162,-9207.581365
5601.385603,-2029.113565,-1320.838075,-9303.294269
5601.388169,-1301.695494,-4115.654872,-10490.134278
5601.390735,-248.853550,2258.824534,-9992.427178
5601.393301,1148.554848,-2239.681954,-10317.851051
5601.395867,1052.841944,1397.408398,-9284.151688
5601.398433,-1244.267752,-2009.970984,-9590.432981
5601.401000,-3043.670347,1282.552914,-10375.278794
5601.403566,2737.389054,6374.479406,-8346.165229
5601.406132,976.271621,-6967.899411,-11542.976222
5601.408698,-2565.105827,1359.123237,-10011.569758
5601.411264,1148.554848,5455.635528,-7848.458128
5601.413830,2488.535504,535.992262,-10394.421374
5601.416381,-1856.830338,4364.508422,-9647.860723
5601.418932,5570.491013,-248.853550,-9743.573627
5601.421482,842.273555,-287.138712,-9934.999435
5601.424033,287.138712,2660.818731,-9169.296203
5601.426584,1148.554848,172.283227,-9303.294269
5601.429135,-631.705166,2316.252277,-10049.854920
5601.431686,3732.803256,1780.260014,-10030.712339
5601.434237,2335.394858,765.703232,-9743.573627
5601.436788,-1512.263883,-708.275490,-9494.720077
5601.439338,19.142581,2354.537438,-8958.727814
5601.441889,2603.390989,631.705166,-10547.562021
5601.444440,1225.125171,1320.838075,-10088.140082
5601.446991,2507.678085,3407.379382,-8690.731683
5601.449542,3081.955509,210.568389,-9073.583299
5601.452093,-669.990328,-1473.978722,-10049.854920
5601.454644,1665.404530,5627.918755,-9169.296203
5601.457194,421.136778,3522.234867,-10241.280728
5601.459745,4460.221326,6699.903280,-8518.448456
5601.462296,-1435.693560,-2067.398726,-9360.722011
5601.464847,-746.560651,4536.791650,-8939.585234
5601.467398,4345.365842,-1205.982590,-10183.852986
5601.469949,-2660.818731,-4804.787781,-12059.825904
5601.472500,1627.119368,6278.766502,-7618.747158
5601.475050,76.570323,-7618.747158,-10260.423309
5601.477601,-2928.814862,2641.676150,-9322.436850
5601.480152,-229.710970,-191.425808,-9820.143950
5601.482703,3445.664544,114.855485,-10222.138147
5601.485254,-191.425808,478.564520,-9915.856854
5601.487805,-1933.400661,-1493.121302,-9647.860723
5601.490356,-1052.841944,-1244.267752,-8805.587168
5601.492906,-2182.254211,-1875.972918,-10490.134278
5601.495457,1167.697429,631.705166,-10413.563955
5601.498008,1895.115499,1512.263883,-9667.003304
5601.500559,-1263.410333,-803.988394,-9379.864592
5601.503110,-957.129040,880.558717,-8327.022648
5601.505661,1033.699363,172.283227,-10413.563955
5601.508211,0.000000,-287.138712,-10738.987829
5601.510762,-1359.123237,2086.541307,-9245.866526
5601.513313,-1722.832272,-3254.238736,-9437.292334
5601.515864,-3503.092286,-2967.100024,-9724.431046
5601.518418,784.845813,3235.096155,-9188.438784
5601.520973,593.420005,-5991.627790,-11600.403965
5601.523527,1646.261949,1512.263883,-9801.001370
5601.526082,-2794.816797,-1473.978722,-9284.151688
5601.528636,-2641.676150,2297.109696,-9801.001370
5601.531191,2373.680019,4919.643266,-8365.307810
5601.533745,612.562586,-5627.918755,-11581.261384
5601.536299,2450.250342,7408.178770,-9073.583299
5601.538854,2565.105827,-2163.111630,-9858.429112
5601.541408,1531.406464,1359.123237,-9896.714274
5601.543963,-1799.402595,3560.520029,-9628.718142
5601.546517,5781.059402,19.142581,-10068.997501
5601.549072,1033.699363,1818.545176,-9743.573627
5601.551626,1627.119368,2182.254211,-9379.864592
5601.554180,478.564520,-306.281293,-9322.436850
5601.556735,-1033.699363,2048.256146,-9801.001370
5601.559289,3407.379382,957.129040,-10011.569758
5601.561844,2507.678085,2622.533570,-9628.718142
5601.564398,-1244.267752,363.709035,-9533.005238
5601.566952,1339.980656,1914.258080,-8805.587168
5601.569507,1588.834206,650.847747,-10030.712339
5601.572061,2335.394858,2086.541307,-9992.427178
5601.574616,2871.387120,1818.545176,-9399.007173
5601.577170,-363.709035,1205.982590,-8824.729749
5601.579725,2354.537438,1607.976787,-9016.155557
5601.582279,2105.683888,1722.832272,-10451.849117
5601.584833,95.712904,3043.670347,-10260.423309
5601.587388,4249.652938,7235.895542,-8652.446522
5601.589942,-344.566454,-1971.685822,-8441.878133
5601.592497,-2297.109696,-1588.834206,-10336.993632
5601.595051,2756.531635,6317.051664,-8920.442653
5601.597606,1110.269686,-10030.712339,-12117.253646
5601.600160,-3866.801322,1550.549045,-9456.434915
5601.602714,1473.978722,-76.570323,-8441.878133
5601.605269,-574.277424,-1359.123237,-10241.280728
5601.607823,-3101.098090,3637.090352,-9341.579430
5601.610378,3388.236802,899.701298,-10164.710405
5601.612932,516.849682,-95.712904,-9954.142016
5601.615486,-5149.354235,-2584.248408,-10126.425243
5601.618041,95.712904,-401.994197,-8805.587168
5601.620599,-363.709035,-1780.260014,-10394.421374
5601.623156,-631.705166,1741.974853,-10624.132344
5601.625714,2067.398726,1818.545176,-9705.288466
5601.628272,-153.140646,-2086.541307,-9379.864592
5601.630829,-2392.822600,1875.972918,-8709.874264
5601.633387,1665.404530,-153.140646,-10700.702667
5601.635945,1607.976787,650.847747,-10547.562021
5601.638502,-3311.666478,-1148.554848,-9705.288466
5601.641060,-4402.793584,-2105.683888,-9188.438784
5601.643618,1761.117434,1033.699363,-8958.727814
5601.646175,-1320.838075,-5800.201982,-11523.833642
5601.648733,1780.260014,2297.109696,-9705.288466
5601.651291,-918.843878,516.849682,-9647.860723
5601.653848,861.416136,4804.787781,-8480.163294
5601.656406,-2584.248408,-4957.928427,-10260.423309
5601.658964,-133.998066,3330.809059,-9743.573627
5601.661521,7255.038123,1818.545176,-9437.292334
5601.664079,574.277424,-5053.641331,-11255.837510
5601.666637,-593.420005,7025.327154,-8499.305875
5601.669194,-133.998066,114.855485,-9418.149754
5601.671752,1531.406464,3254.238736,-9284.151688
5601.674310,4249.652938,5455.635528,-9131.011042
5601.676867,3177.668413,-3751.945837,-10815.558152
5601.679425,-2469.392923,1263.410333,-9513.862658
5601.681983,516.849682,1952.543242,-8901.300072
5601.684540,2603.390989,918.843878,-9858.429112
5601.687098,1435.693560,3694.518094,-9590.432981
5601.689656,-191.425808,861.416136,-9571.290400
5601.692213,1282.552914,57.427742,-9418.149754
5601.694771,-459.421939,2009.970984,-9265.009107
5601.697329,2277.967115,1569.691626,-10068.997501
5601.699886,3311.666478,1933.400661,-10030.712339
5601.702444,-229.710970,1914.258080,-9360.722011
5601.705002,2469.392923,1435.693560,-8709.874264
5601.707559,2201.396792,1282.552914,-10145.567824
5601.710117,-229.710970,2813.959378,-10432.706536
5601.712675,4900.500685,8020.741355,-8633.303941
5601.715232,2048.256146,574.277424,-8977.870395
5601.717790,-2679.961312,-555.134843,-9877.571693
5601.720348,3235.096155,5627.918755,-8441.878133
5601.722908,-382.851616,-10624.132344,-12385.249778
5601.725469,-2871.387120,2871.387120,-9245.866526
5601.728030,1531.406464,-1722.832272,-8977.870395
5601.730591,-937.986459,-382.851616,-10088.140082
5601.733151,-3388.236802,3503.092286,-9245.866526
5601.735712,3464.807125,19.142581,-9954.142016
5601.738273,2392.822600,-957.129040,-9954.142016
5601.740834,-4785.645200,-1665.404530,-10107.282662
5601.743394,-382.851616,-2641.676150,-9207.581365
5601.745955,-1646.261949,-1110.269686,-10279.565890
5601.748516,-19.142581,1148.554848,-10317.851051
5601.751077,2239.681954,1875.972918,-9858.429112
5601.753637,-478.564520,-1990.828403,-9609.575562
5601.756198,-1818.545176,1684.547110,-8575.876198
5601.758759,2258.824534,38.285162,-10394.421374
5601.761320,-1435.693560,133.998066,-10796.415571
5601.763880,-2488.535504,1167.697429,-8901.300072
5601.766441,-1952.543242,-3771.088418,-9475.577496
5601.769002,-382.851616,976.271621,-9590.432981
5601.771563,-650.847747,-1550.549045,-10126.425243
5601.774123,1799.402595,842.273555,-10356.136213
5601.776684,-1454.836141,-2009.970984,-10432.706536
5601.779245,-153.140646,5742.774240,-8767.302006
5601.781806,2239.681954,-19.142581,-9226.723946
5601.784366,-995.414202,-3311.666478,-10872.985894
5601.786927,344.566454,6776.473603,-9820.143950
5601.789488,3139.383251,76.570323,-9533.005238
5601.792048,-344.566454,3349.951640,-9284.151688
5601.794609,-1263.410333,1837.687757,-9169.296203
5601.797170,3464.807125,-555.134843,-10202.995566
5601.799731,2277.967115,5130.211654,-9111.868461
5601.802291,3177.668413,76.570323,-9992.427178
5601.804852,-1186.840010,-1091.127106,-9781.858789
5601.807413,-1205.982590,1588.834206,-9131.011042
5601.809974,3158.525832,38.285162,-9954.142016
5601.812534,2163.111630,2737.389054,-9667.003304
5601.815095,-612.562586,-76.570323,-9877.571693
5601.817656,1148.554848,1244.267752,-9131.011042
5601.820217,861.416136,1014.556782,-9609.575562
5601.822777,2239.681954,2220.539373,-9973.284597
5601.825340,2890.529701,1454.836141,-10011.569758
5601.827903,669.990328,-306.281293,-9303.294269
5601.830467,1473.978722,2947.957443,-8977.870395
5601.833030,191.425808,4000.799387,-9858.429112
5601.835593,4307.080680,8365.307810,-8518.448456
5601.838156,-287.138712,-2258.824534,-10451.849117
5601.840719,-2220.539373,4862.215523,-8786.444587
5601.843282,4268.795518,-478.564520,-9073.583299
5601.845845,-2067.398726,-6891.329088,-12021.540742
5601.848408,1148.554848,6661.618118,-8078.169098
5601.850972,95.712904,-6929.614250,-10547.562021
5601.853535,-2392.822600,2431.107762,-9418.149754
5601.856098,-191.425808,-459.421939,-10126.425243
5601.858661,880.558717,-1244.267752,-9954.142016
5601.861224,-516.849682,535.992262,-10241.280728
5601.863787,-38.285162,248.853550,-9686.145885
5601.866350,-2660.818731,-2660.818731,-9552.147819
5601.868913,-2335.394858,842.273555,-9456.434915
5601.871476,2124.826469,-631.705166,-10260.423309
5601.874040,1435.693560,1550.549045,-10298.708470
5601.876603,-689.132909,-574.277424,-9437.292334
5601.879166,-765.703232,842.273555,-8480.163294
5601.881729,1282.552914,976.271621,-9686.145885
5601.884292,-2201.396792,-2239.681954,-10758.130410
5601.886855,-2488.535504,1301.695494,-9188.438784
5601.889418,-899.701298,-2603.390989,-9533.005238
5601.891981,-765.703232,-1071.984525,-10030.712339
5601.894545,-2029.113565,-861.416136,-9494.720077
5601.897108,2067.398726,1244.267752,-9877.571693
5601.899671,-574.277424,-3081.955509,-11102.696864
5601.902234,-1512.263883,4287.938099,-8977.870395
5601.904797,2086.541307,1129.412267,-8652.446522
5601.907360,-880.558717,-5187.639397,-10700.702667
5601.909923,-1205.982590,5608.776174,-10241.280728
5601.912486,3005.385186,1646.261949,-9456.434915
5601.915049,784.845813,2392.822600,-9609.575562
5601.917613,-1320.838075,1952.543242,-9016.155557
5601.920176,3503.092286,-1416.550979,-10126.425243
5601.922739,1895.115499,5015.356170,-9245.866526
5601.925302,3101.098090,1167.697429,-10068.997501
5601.927867,-535.992262,-612.562586,-9839.286531
5601.930432,-1512.263883,1722.832272,-9207.581365
5601.932998,2450.250342,-363.709035,-9954.142016
5601.935563,2143.969050,2622.533570,-9724.431046
5601.938128,-631.705166,535.992262,-9973.284597
5601.940693,1856.830338,1493.121302,-9379.864592
5601.943258,1033.699363,1722.832272,-9399.007173
5601.945824,2718.246474,1359.123237,-9839.286531
5601.948389,1359.123237,-708.275490,-10030.712339
5601.950954,1971.685822,4230.510357,-8767.302006
5601.953519,2871.387120,3120.240670,-9475.577496
5601.956084,1225.125171,669.990328,-10241.280728
5601.958650,-1531.406464,5455.635528,-9111.868461
5601.961215,3177.668413,3503.092286,-8939.585234
5601.963780,-880.558717,-3694.518094,-10834.700733
5601.966345,746.560651,7618.747158,-8250.452325
5601.968910,3273.381317,-8288.737486,-9207.581365
5601.971476,-2277.967115,-7982.456194,-11830.114934
5601.974041,-2277.967115,3905.086483,-8441.878133
5601.976606,2737.389054,-3215.953574,-10509.276859
5601.979171,-3637.090352,1263.410333,-9915.856854
5601.981737,1454.836141,4747.360038,-8614.161360
5601.984302,2871.387120,-401.994197,-9667.003304
5601.986867,-3828.516160,-1627.119368,-10432.706536
5601.989432,-1339.980656,-3445.664544,-9609.575562
5601.991997,-382.851616,478.564520,-9686.145885
5601.994563,421.136778,2067.398726,-10279.565890
5601.997128,937.986459,-153.140646,-9399.007173
5601.999693,-344.566454,401.994197,-8729.016845
5602.002258,172.283227,1971.685822,-9360.722011
5602.004823,-172.283227,-2411.965181,-11274.980091
5602.007389,-2297.109696,1933.400661,-9609.575562
5602.009954,-1282.552914,-2239.681954,-9494.720077
5602.012519,267.996131,-210.568389,-9322.436850
5602.015084,-2775.674216,-2584.248408,-9877.571693
5602.017649,1129.412267,76.570323,-10298.708470
5602.020215,76.570323,-3330.809059,-11370.692995
5602.022780,-2124.826469,2986.242605,-9513.862658
5602.025345,2316.252277,2373.680019,-8039.883936
5602.027910,-555.134843,-5455.635528,-10643.274925
5602.030477,2239.681954,9092.725880,-8882.157491
5602.033044,2909.672282,-2469.392923,-11102.696864
5602.035610,-497.707101,3962.514226,-9705.288466
5602.038177,-669.990328,727.418070,-8863.014910
5602.040744,2239.681954,574.277424,-9360.722011
5602.043310,3120.240670,6317.051664,-8748.159426
5602.045877,2813.959378,1799.402595,-10145.567824
5602.048444,-191.425808,-918.843878,-9954.142016
5602.051010,-803.988394,1990.828403,-9054.440718
5602.053577,3292.523898,-1320.838075,-9628.718142
5602.056144,1091.127106,3196.810994,-9609.575562
5602.058711,-57.427742,612.562586,-9896.714274
5602.061277,2277.967115,1339.980656,-9456.434915
5602.063844,689.132909,1435.693560,-9418.149754
5602.066411,2584.248408,1282.552914,-9533.005238
5602.068977,1531.406464,-38.285162,-9877.571693
5602.071544,2201.396792,3292.523898,-9131.011042
5602.074111,937.986459,4019.941968,-9552.147819
5602.076677,3311.666478,2928.814862,-9513.862658
5602.079244,-2775.674216,1971.685822,-9820.143950
5602.081811,3043.670347,5761.916821,-8633.303941
5602.084378,-267.996131,-4709.074877,-10911.271056
5602.086944,-2354.537438,6029.912952,-8882.157491
5602.089511,4421.936165,-3464.807125,-9609.575562
5602.092078,-3732.803256,-5953.342629,-11370.692995
5602.094644,-2431.107762,3426.521963,-9169.296203
5602.097211,2469.392923,-1952.543242,-10566.704602
5602.099778,-2297.109696,-631.705166,-10145.567824
5602.102344,210.568389,5570.491013,-8365.307810
5602.104911,2871.387120,-95.712904,-9762.716208
5602.107478,-3254.238736,-1167.697429,-10336.993632
5602.110044,-2679.961312,-3101.098090,-9801.001370
5602.112611,995.414202,306.281293,-9858.429112
5602.115178,0.000000,2048.256146,-10509.276859
5602.117745,-114.855485,344.566454,-9341.579430
5602.120311,1875.972918,650.847747,-8575.876198
5602.122878,-2220.539373,-689.132909,-9915.856854
5602.125445,-880.558717,114.855485,-10624.132344
5602.128011,-1416.550979,-1301.695494,-10126.425243
5602.130578,899.701298,-1550.549045,-9552.147819
5602.133146,-2967.100024,-3043.670347,-9456.434915
5602.135714,-861.416136,-19.142581,-9054.440718
5602.138282,899.701298,1856.830338,-10107.282662
5602.140850,2316.252277,-248.853550,-10566.704602
5602.143418,-1875.972918,-4862.215523,-10451.849117
5602.145986,-382.851616,3407.379382,-8882.157491
5602.148554,6393.621987,1052.841944,-8595.018779
5602.151123,-1435.693560,-1875.972918,-11313.265253
5602.153691,-114.855485,7963.313613,-8805.587168
5602.156259,3713.660675,976.271621,-9934.999435
5602.158827,-937.986459,1856.830338,-8843.872330
5602.161395,4307.080680,-899.701298,-9418.149754
5602.163963,1646.261949,937.986459,-10317.851051
5602.166531,631.705166,3981.656806,-9647.860723
5602.169099,880.558717,995.414202,-9207.581365
5602.171667,1091.127106,995.414202,-9245.866526
5602.174235,1454.836141,2067.398726,-9169.296203
5602.176803,2105.683888,19.142581,-10145.567824
5602.179371,-650.847747,1416.550979,-10030.712339
5602.181939,899.701298,976.271621,-9322.436850
5602.184508,2545.963246,2431.107762,-9265.009107
5602.187076,918.843878,-516.849682,-9992.427178
5602.189644,3637.090352,4019.941968,-8920.442653
5602.192212,3943.371645,2182.254211,-9456.434915
5602.194780,1512.263883,421.136778,-10183.852986
5602.197348,-1971.685822,4421.936165,-9418.149754
5602.199916,2928.814862,4594.219392,-8480.163294
5602.202484,-248.853550,-3522.234867,-10968.698798
5602.205052,842.273555,7695.317482,-7982.456194
5602.207620,3024.527766,-8709.874264,-10911.271056
5602.210188,-4709.074877,-1895.115499,-10509.276859
5602.212756,-306.281293,306.281293,-9016.155557
5602.215324,1186.840010,-1531.406464,-10509.276859
5602.217892,-3369.094221,1684.547110,-9858.429112
5602.220461,1282.552914,5130.211654,-8729.016845
5602.223029,2699.103893,-1435.693560,-9954.142016
5602.225597,-3694.518094,-1110.269686,-10547.562021
5602.228165,-1856.830338,-1990.828403,-9686.145885
5602.230733,995.414202,-1607.976787,-9781.858789
5602.233301,-478.564520,2909.672282,-9992.427178
5602.235870,650.847747,1052.841944,-10241.280728
5602.238439,1091.127106,401.994197,-8977.870395
5602.241009,-248.853550,-593.420005,-9571.290400
5602.243578,-2603.390989,-133.998066,-10394.421374
5602.246147,-1550.549045,-880.558717,-10317.851051
5602.248717,1646.261949,248.853550,-9533.005238
5602.251286,-3062.812928,-4919.643266,-9954.142016
5602.253855,-57.427742,784.845813,-8729.016845
5602.256425,-555.134843,1339.980656,-9896.714274
5602.258994,2182.254211,3024.527766,-9705.288466
5602.261563,-2833.101958,-4843.072942,-10949.556218
5602.264133,1512.263883,5876.772306,-8231.309744
5602.266702,4977.071008,4498.506488,-7695.317482
5602.269271,-248.853550,-4804.787781,-11753.544611
5602.271840,-746.560651,8135.596840,-8997.012976
5602.274410,2392.822600,1205.982590,-9762.716208
5602.276979,861.416136,2699.103893,-8633.303941
5602.279548,4173.082614,555.134843,-9016.155557
5602.282118,1397.408398,-1971.685822,-10719.845248
5602.284687,-880.558717,4383.651003,-9533.005238
5602.287256,1282.552914,555.134843,-9513.862658
5602.289826,363.709035,1588.834206,-9399.007173
5602.292395,880.558717,1895.115499,-9092.725880
5602.294964,765.703232,287.138712,-9781.858789
5602.297533,421.136778,1550.549045,-9820.143950
5602.300103,1473.978722,995.414202,-9705.288466
5602.302672,574.277424,2316.252277,-9475.577496
5602.305241,3924.229064,650.847747,-9341.579430
5602.307811,2986.242605,2086.541307,-9456.434915
5602.310380,-727.418070,4345.365842,-9494.720077
5602.312949,4249.652938,4249.652938,-9399.007173
5602.315519,-2431.107762,-2756.531635,-10930.413637
5602.318089,-842.273555,6508.477472,-8843.872330
5602.320659,3943.371645,-1971.685822,-9418.149754
5602.323229,-1627.119368,-4766.502619,-11064.411702
5602.325799,1225.125171,6259.623922,-8001.598774
5602.328369,-478.564520,-7427.321350,-11236.694930
5602.330940,-2603.390989,2201.396792,-9705.288466
5602.333510,1627.119368,-1952.543242,-10183.852986
5602.336080,-1110.269686,-1741.974853,-10088.140082
5602.338650,-574.277424,2124.826469,-9839.286531
5602.341220,1320.838075,1933.400661,-9418.149754
5602.343791,-421.136778,-574.277424,-9552.147819
5602.346361,-3541.377448,-1435.693560,-9934.999435
5602.348931,1263.410333,-344.566454,-9456.434915
5602.351501,2124.826469,1416.550979,-10011.569758
5602.354071,-784.845813,0.000000,-10317.851051
5602.356641,-153.140646,229.710970,-8939.585234
5602.359212,-574.277424,57.427742,-9207.581365
5602.361782,-2431.107762,-2373.680019,-10853.843314
5602.364352,1052.841944,-421.136778,-9667.003304
5602.366922,-2775.674216,-3139.383251,-10222.138147
5602.369492,-1091.127106,229.710970,-8977.870395
5602.372063,976.271621,2239.681954,-9035.298138
5602.374633,1799.402595,-957.129040,-10451.849117
5602.377203,-2909.672282,-2029.113565,-11255.837510
5602.379773,191.425808,5359.922624,-8652.446522
5602.382343,6872.186507,-650.847747,-9016.155557
5602.384913,-1895.115499,-1263.410333,-10624.132344
5602.387484,76.570323,8709.874264,-8135.596840
5602.390054,4326.223261,1033.699363,-10604.989763
5602.392624,-1110.269686,1837.687757,-9456.434915
5602.395194,3464.807125,-1167.697429,-9169.296203
5602.397764,2986.242605,2852.244539,-9437.292334
5602.400335,1071.984525,2316.252277,-9992.427178
5602.402905,976.271621,612.562586,-9590.432981
5602.405475,593.420005,2048.256146,-9456.434915
5602.408045,1818.545176,-325.423874,-9590.432981
5602.410615,1359.123237,1684.547110,-9628.718142
5602.413185,114.855485,1033.699363,-9820.143950
5602.415756,1416.550979,555.134843,-9647.860723
5602.418326,-861.416136,3005.385186,-9322.436850
5602.420897,5455.635528,957.129040,-9552.147819
5602.423468,3598.805190,937.986459,-9877.571693
5602.426038,-1512.263883,3656.232933,-10107.282662
5602.428609,1875.972918,8499.305875,-8307.880067
5602.431180,1167.697429,-1799.402595,-10566.704602
5602.433751,-2986.242605,5513.063270,-9245.866526
5602.436322,4651.647134,-133.998066,-8920.442653
5602.438893,-1454.836141,-8709.874264,-11810.972354
5602.441464,172.283227,6833.901346,-7829.315547
5602.444034,-363.709035,-5953.342629,-10719.845248
5602.446605,-1914.258080,2163.111630,-9934.999435
5602.449176,306.281293,-612.562586,-10260.423309
5602.451747,3139.383251,-2316.252277,-9934.999435
5602.454318,-1588.834206,363.709035,-10049.854920
5602.456889,325.423874,1990.828403,-9456.434915
5602.459460,76.570323,-574.277424,-9552.147819
5602.462030,-3215.953574,-516.849682,-9954.142016
5602.464601,842.273555,-746.560651,-9418.149754
5602.467172,2239.681954,1378.265818,-9686.145885
5602.469743,-1493.121302,-574.277424,-10317.851051
5602.472314,478.564520,995.414202,-8805.587168
5602.474885,-976.271621,-1703.689691,-9590.432981
5602.477456,-2411.965181,-1588.834206,-10317.851051
5602.480026,459.421939,2124.826469,-8977.870395
5602.482597,-1684.547110,-4843.072942,-10394.421374
5602.485168,516.849682,-1282.552914,-9590.432981
5602.487739,-2488.535504,-1435.693560,-9781.858789
5602.490310,2718.246474,6470.192310,-9111.868461
5602.492881,363.709035,-3675.375514,-10911.271056
5602.495452,-2297.109696,2297.109696,-9475.577496
5602.498022,5570.491013,3713.660675,-8135.596840
5602.500593,-516.849682,-4575.076811,-11676.974288
5602.503164,-133.998066,5225.924558,-9839.286531
5602.505735,172.283227,1799.402595,-9801.001370
5602.508306,2699.103893,2718.246474,-8958.727814
5602.510877,4039.084549,3522.234867,-8575.876198
5602.513448,1435.693560,-2526.820666,-11083.554283
5602.516018,-1607.976787,4441.078746,-9571.290400
5602.518589,1569.691626,459.421939,-9533.005238
5602.521160,440.279358,1186.840010,-9590.432981
5602.523732,1110.269686,1665.404530,-9437.292334
5602.526303,1607.976787,746.560651,-9686.145885
5602.528875,516.849682,555.134843,-9686.145885
5602.531446,-382.851616,3311.666478,-9169.296203
5602.534018,4996.213589,-765.703232,-9896.714274
5602.536589,2297.109696,3215.953574,-9322.436850
5602.539160,708.275490,4651.647134,-8748.159426
5602.541732,3732.803256,899.701298,-9437.292334
5602.544303,-3407.379382,2239.681954,-10470.991698
5602.546875,2124.826469,5972.485210,-8729.016845
5602.549446,784.845813,-3464.807125,-10145.567824
5602.552018,-3235.096155,1588.834206,-9207.581365
5602.554589,2679.961312,1454.836141,-8461.020714
5602.557161,-1569.691626,-8135.596840,-11753.544611
5602.559732,-3196.810994,2029.113565,-9494.720077
5602.562304,2526.820666,-2890.529701,-10451.849117
5602.564875,-3292.523898,1282.552914,-9571.290400
5602.567447,650.847747,5647.061336,-8250.452325
5602.570018,2718.246474,-1665.404530,-10030.712339
5602.572589,-3273.381317,-1110.269686,-10968.698798
5602.575161,-2431.107762,-1703.689691,-9954.142016
5602.577732,1454.836141,-1378.265818,-9896.714274
5602.580304,-267.996131,1359.123237,-9762.716208
5602.582875,-1569.691626,1741.974853,-9743.573627
5602.585447,2067.398726,19.142581,-9609.575562
5602.588018,-2029.113565,-382.851616,-9705.288466
5602.590590,-2679.961312,-1205.982590,-9973.284597
5602.593161,784.845813,-516.849682,-9877.571693
5602.595733,-2354.537438,-3847.658741,-10566.704602
5602.598304,-861.416136,-229.710970,-8958.727814
5602.600876,-2009.970984,-1684.547110,-10241.280728
5602.603447,2756.531635,6987.041992,-8556.733618
5602.606019,899.701298,-3771.088418,-10528.419440
5602.608590,-2335.394858,1875.972918,-9973.284597
5602.611161,5800.201982,4345.365842,-7905.885870
5602.613733,-306.281293,-4919.643266,-11542.976222
5602.616304,-1454.836141,8116.454259,-8614.161360
5602.618876,4039.084549,2067.398726,-9628.718142
5602.621447,363.709035,1933.400661,-9341.579430
5602.624019,2871.387120,-38.285162,-9418.149754
5602.626590,1703.689691,-1473.978722,-10528.419440
5602.629162,-995.414202,3790.230998,-9494.720077
5602.631734,593.420005,-114.855485,-9667.003304
5602.634305,746.560651,1761.117434,-9188.438784
5602.636877,995.414202,612.562586,-9801.001370
5602.639448,2450.250342,1110.269686,-9743.573627
5602.642020,-708.275490,363.709035,-9705.288466
5602.644592,363.709035,2239.681954,-9284.151688
5602.647163,4881.358104,803.988394,-9686.145885
5602.649735,4307.080680,669.990328,-9973.284597
5602.652307,-1531.406464,2660.818731,-9379.864592
5602.654878,3905.086483,7484.749093,-8039.883936
5602.657450,-1110.269686,-2699.103893,-11428.120738
5602.660021,918.843878,7235.895542,-8997.012976
5602.662593,1454.836141,-3292.523898,-10088.140082
5602.665165,-2316.252277,823.130974,-9571.290400
5602.667736,2545.963246,2201.396792,-8384.450390
5602.670308,-1722.832272,-7944.171032,-11600.403965
5602.672880,-2737.389054,1741.974853,-10202.995566
5602.675451,842.273555,-1263.410333,-10375.278794
5602.678023,-784.845813,-3043.670347,-10068.997501
5602.680594,-1359.123237,5034.498750,-8307.880067
5602.683166,3196.810994,1397.408398,-9609.575562
5602.685738,-1320.838075,-1033.699363,-10490.134278
5602.688309,-2794.816797,-1282.552914,-9954.142016
5602.690881,1282.552914,-1071.984525,-9801.001370
5602.693453,612.562586,1665.404530,-9533.005238
5602.696024,-918.843878,267.996131,-10145.567824
5602.698596,-440.279358,555.134843,-9169.296203
5602.701167,-1703.689691,-1263.410333,-9647.860723
5602.703739,-459.421939,-1856.830338,-10509.276859
5602.706311,-2450.250342,-1110.269686,-10279.565890
5602.708882,-1550.549045,-210.568389,-8958.727814
5602.711454,1454.836141,0.000000,-9418.149754
5602.714025,-1205.982590,-4345.365842,-11121.839445
5602.716597,-708.275490,4632.504554,-9437.292334
5602.719169,3732.803256,2029.113565,-9111.868461
5602.721740,-1646.261949,-4268.795518,-10662.417506
5602.724312,-1588.834206,6087.340694,-9322.436850
5602.726884,3330.809059,2201.396792,-9303.294269
5602.729455,1339.980656,1320.838075,-10241.280728
5602.732027,-1263.410333,631.705166,-9705.288466
5602.734599,2794.816797,497.707101,-9513.862658
5602.737171,4919.643266,5015.356170,-8250.452325
5602.739743,803.988394,-1512.263883,-10509.276859
5602.742315,-899.701298,3330.809059,-9437.292334
5602.744887,995.414202,765.703232,-9456.434915
5602.747459,1263.410333,535.992262,-9609.575562
5602.750031,-114.855485,1454.836141,-9839.286531
5602.752602,1531.406464,1531.406464,-9533.005238
5602.755174,1454.836141,76.570323,-9667.003304
5602.757746,1512.263883,2584.248408,-9322.436850
5602.760318,3866.801322,3081.955509,-9475.577496
5602.762890,3005.385186,2373.680019,-9724.431046
5602.765462,1397.408398,1550.549045,-9150.153622
5602.768034,-497.707101,3732.803256,-9781.858789
5602.770606,842.273555,4039.084549,-9609.575562
5602.773178,-57.427742,-2986.242605,-10375.278794
5602.775749,-1301.695494,5493.920690,-8767.302006
5602.778321,3885.943902,-3369.094221,-9418.149754
5602.780893,-3426.521963,-5666.203917,-11198.409768
5602.783465,-2297.109696,918.843878,-9418.149754
5602.786037,1665.404530,-3081.955509,-10796.415571
5602.788609,-2775.674216,-210.568389,-9915.856854
5602.791181,248.853550,6546.762634,-7944.171032
5602.793753,3369.094221,-823.130974,-9705.288466
5602.796325,-2469.392923,-1110.269686,-10643.274925
5602.798896,-1167.697429,-1799.402595,-9915.856854
5602.801468,267.996131,-1225.125171,-9667.003304
5602.804040,-133.998066,2297.109696,-9513.862658
5602.806612,1454.836141,535.992262,-9896.714274
5602.809184,-727.418070,-76.570323,-9494.720077
5602.811756,-2009.970984,-650.847747,-9399.007173
5602.814328,516.849682,-1416.550979,-10222.138147
5602.816900,-2871.387120,-2431.107762,-10853.843314
5602.819472,-2201.396792,76.570323,-8920.442653
5602.822043,1761.117434,1205.982590,-8824.729749
5602.824615,114.855485,-4747.360038,-11045.269122
5602.827187,-2373.680019,2124.826469,-10145.567824
5602.829759,3005.385186,4307.080680,-8480.163294
5602.832314,-172.283227,-3675.375514,-10145.567824
5602.834869,-2545.963246,4115.654872,-9571.290400
5602.837424,2277.967115,4077.369710,-8614.161360
5602.839980,2373.680019,727.418070,-10413.563955
5602.842535,-1301.695494,727.418070,-9954.142016
5602.845090,2105.683888,-401.994197,-9820.143950
5602.847645,4957.928427,5168.496816,-8365.307810
5602.850200,363.709035,-899.701298,-10356.136213
5602.852755,-1493.121302,2794.816797,-9379.864592
5602.855310,478.564520,1244.267752,-9571.290400
5602.857865,3503.092286,344.566454,-9781.858789
5602.860421,976.271621,995.414202,-9839.286531
5602.862976,-344.566454,899.701298,-9437.292334
5602.865531,880.558717,689.132909,-9513.862658
5602.868086,3713.660675,3579.662610,-9399.007173
5602.870641,4517.649069,1359.123237,-9973.284597
5602.873196,-593.420005,803.988394,-9762.716208
5602.875751,4039.084549,7848.458128,-7886.743290
5602.878306,-823.130974,-1875.972918,-11026.126541
5602.880862,1014.556782,6814.758765,-9456.434915
5602.883417,2450.250342,133.998066,-9054.440718
5602.885972,-459.421939,-6393.621987,-11198.409768
5602.888527,1186.840010,5742.774240,-7733.602643
5602.891082,-1205.982590,-6585.047795,-10815.558152
5602.893637,-1512.263883,1914.258080,-10030.712339
5602.896192,708.275490,-2143.969050,-10872.985894
5602.898747,-2220.539373,-2565.105827,-10241.280728
5602.901303,-823.130974,6431.907149,-7886.743290
5602.903858,3809.373579,937.986459,-9399.007173
5602.906413,-1416.550979,-1282.552914,-10796.415571
5602.908968,-3349.951640,-133.998066,-10068.997501
5602.911523,1454.836141,-669.990328,-9360.722011
5602.914078,1416.550979,1282.552914,-9494.720077
5602.916633,-1722.832272,-344.566454,-10279.565890
5602.919189,-612.562586,574.277424,-9245.866526
5602.921744,-1473.978722,-1148.554848,-9552.147819
5602.924299,-803.988394,191.425808,-10011.569758
5602.926854,-2182.254211,-3905.086483,-10490.134278
5602.929409,-727.418070,-1952.543242,-9322.436850
5602.931964,-1359.123237,-3483.949706,-10738.987829
5602.934522,2756.531635,6872.186507,-8595.018779
5602.937079,2373.680019,-2756.531635,-10260.423309
5602.939637,-2641.676150,1607.976787,-10030.712339
5602.942194,4938.785846,6278.766502,-7465.606512
5602.944752,-95.712904,-5742.774240,-11600.403965
5602.947309,-1856.830338,6451.049730,-9092.725880
5602.949867,4192.225195,2641.676150,-9245.866526
5602.952424,1320.838075,1359.123237,-9399.007173
5602.954982,2105.683888,2584.248408,-9054.440718
5602.957539,2124.826469,1225.125171,-10011.569758
5602.960097,114.855485,1837.687757,-9954.142016
5602.962654,-344.566454,-153.140646,-9973.284597
5602.965212,1167.697429,1646.261949,-9131.011042
5602.967769,1569.691626,555.134843,-9915.856854
5602.970327,1052.841944,555.134843,-10107.282662
5602.972884,-899.701298,1359.123237,-9552.147819
5602.975442,4249.652938,1627.119368,-9399.007173
5602.977999,3235.096155,1875.972918,-9667.003304
5602.980557,-1320.838075,2105.683888,-9628.718142
5602.983114,4249.652938,6527.620053,-8173.882002
5602.985672,-191.425808,-899.701298,-10968.698798
5602.988229,784.845813,5991.627790,-9322.436850
5602.990787,-478.564520,-2852.244539,-10432.706536
5602.993344,-1339.980656,5398.207786,-8690.731683
5602.995902,3771.088418,-2986.242605,-9226.723946
5602.998459,-2565.105827,-6412.764568,-11370.692995
5603.001017,-2526.820666,0.000000,-9571.290400
5603.003574,1952.543242,-2086.541307,-10509.276859
5603.006132,-2928.814862,-344.566454,-9896.714274
5603.008689,-191.425808,6776.473603,-7714.460062
5603.011247,3560.520029,-555.134843,-9628.718142
5603.013804,-1952.543242,-1531.406464,-11121.839445
5603.016362,-1378.265818,-1875.972918,-10107.282662
5603.018919,287.138712,-76.570323,-9341.579430
5603.021477,-19.142581,1397.408398,-9475.577496
5603.024034,401.994197,535.992262,-9858.429112
5603.026592,-937.986459,593.420005,-9686.145885
5603.029149,-1301.695494,-1052.841944,-9762.716208
5603.031707,-727.418070,191.425808,-9820.143950
5603.034264,-2182.254211,-2565.105827,-10145.567824
5603.036824,248.853550,-2909.672282,-9877.571693
5603.039384,-2373.680019,-1684.547110,-9973.284597
5603.041944,3330.809059,6297.909083,-8671.589102
5603.044504,-95.712904,-4402.793584,-11064.411702
5603.047063,-1990.828403,5091.926493,-8939.585234
5603.049623,6431.907149,2660.818731,-8461.020714
5603.052183,-1627.119368,-4709.074877,-11466.405899
5603.054743,-1550.549045,4192.225195,-9801.001370
5603.057303,2239.681954,2718.246474,-9303.294269
5603.059862,2813.959378,1301.695494,-9150.153622
5603.062422,784.845813,1684.547110,-9188.438784
5603.064982,3292.523898,2297.109696,-9839.286531
5603.067542,535.992262,306.281293,-10298.708470
5603.070102,-612.562586,803.988394,-9628.718142
5603.072661,823.130974,1263.410333,-9111.868461
5603.075221,1397.408398,1014.556782,-9705.288466
5603.077781,1665.404530,650.847747,-10202.995566
5603.080341,669.990328,153.140646,-9667.003304
5603.082901,2373.680019,3962.514226,-9073.583299
5603.085460,5245.067139,1110.269686,-9915.856854
5603.088020,-1397.408398,76.570323,-10107.282662
5603.090580,3675.375514,8824.729749,-7944.171032
5603.093140,344.566454,-1397.408398,-10987.841379
5603.095700,1110.269686,6183.053598,-9475.577496
5603.098259,-1014.556782,-2545.963246,-9992.427178
5603.100819,-1665.404530,1761.117434,-9284.151688
5603.103379,1512.263883,5455.635528,-7695.317482
5603.105939,-803.988394,-6929.614250,-10872.985894
5603.108499,-1473.978722,1665.404530,-9820.143950
5603.111058,133.998066,-2220.539373,-10356.136213
5603.113618,-2718.246474,-3062.812928,-10241.280728
5603.116178,-861.416136,6259.623922,-7867.600709
5603.118738,3885.943902,650.847747,-9379.864592
5603.121298,-995.414202,-1837.687757,-10643.274925
5603.123857,-1818.545176,-1320.838075,-9647.860723
5603.126417,650.847747,-1052.841944,-9647.860723
5603.128977,-95.712904,593.420005,-9781.858789
5603.131537,-497.707101,669.990328,-9934.999435
5603.134097,-1014.556782,-1148.554848,-9781.858789
5603.136656,0.000000,210.568389,-9475.577496
5603.139218,-3254.238736,-3101.098090,-10681.560086
5603.141780,-2354.537438,-976.271621,-9820.143950
5603.144342,1378.265818,1703.689691,-9035.298138
5603.146904,-555.134843,-5245.067139,-11255.837510
5603.149465,-784.845813,4536.791650,-9743.573627
5603.152027,3503.092286,2986.242605,-7829.315547
5603.154589,2277.967115,-4249.652938,-10853.843314
5603.157151,-1741.974853,7044.469734,-9207.581365
5603.159713,2986.242605,2201.396792,-9322.436850
5603.162274,1933.400661,478.564520,-10336.993632
5603.164836,-1225.125171,708.275490,-9705.288466
5603.167398,3235.096155,631.705166,-9533.005238
5603.169960,3330.809059,4192.225195,-8748.159426
5603.172522,937.986459,1799.402595,-9934.999435
5603.175083,1837.687757,1435.693560,-9494.720077
5603.177645,612.562586,-612.562586,-9360.722011
5603.180207,325.423874,995.414202,-9456.434915
5603.182769,2373.680019,899.701298,-9896.714274
5603.185331,95.712904,-363.709035,-10030.712339
5603.187892,2871.387120,3445.664544,-8556.733618
5603.190454,3981.656806,746.560651,-9820.143950
5603.193016,516.849682,2986.242605,-9647.860723
5603.195578,2909.672282,2737.389054,-8786.444587
5603.198140,1531.406464,1416.550979,-10490.134278
5603.200702,1167.697429,5589.633594,-9360.722011
5603.203263,-1282.552914,-1512.263883,-10088.140082
5603.205825,-669.990328,4823.930362,-8767.302006
5603.208387,2967.100024,-3905.086483,-9667.003304
5603.210949,-2756.531635,-5493.920690,-11255.837510
5603.213511,-1512.263883,-401.994197,-9724.431046
5603.216072,937.986459,-2967.100024,-10662.417506
5603.218634,-3924.229064,248.853550,-10049.854920
5603.221196,19.142581,6623.332957,-7963.313613
5603.223758,3464.807125,-1416.550979,-9992.427178
5603.226320,-1914.258080,-1052.841944,-11006.983960
5603.228881,-1186.840010,-2048.256146,-10011.569758
5603.231443,555.134843,-287.138712,-9226.723946
5603.234005,-287.138712,2048.256146,-9705.288466
5603.236567,210.568389,-708.275490,-10260.423309
5603.239129,-1071.984525,937.986459,-9226.723946
5603.241692,593.420005,95.712904,-9609.575562
5603.244255,-3617.947771,-5283.352301,-10911.271056
5603.246819,-3407.379382,401.994197,-9245.866526
5603.249382,2143.969050,1588.834206,-8920.442653
5603.251946,995.414202,-4919.643266,-10987.841379
5603.254509,-2373.680019,3369.094221,-9590.432981
5603.257072,3790.230998,4249.652938,-8690.731683
5603.259636,-612.562586,-5168.496816,-11083.554283
5603.262199,1033.699363,11102.696864,-7886.743290
5603.264763,2679.961312,4555.934230,-8556.733618
5603.267326,3369.094221,746.560651,-10049.854920
5603.269889,-1225.125171,708.275490,-9858.429112
5603.272453,2431.107762,-172.283227,-9839.286531
5603.275016,3407.379382,3464.807125,-8863.014910
5603.277580,593.420005,2833.101958,-9915.856854
5603.280143,1569.691626,1703.689691,-9533.005238
5603.282706,516.849682,133.998066,-9571.290400
5603.285270,229.710970,421.136778,-9552.147819
5603.287833,669.990328,1071.984525,-9858.429112
5603.290397,2143.969050,191.425808,-9915.856854
5603.292960,1933.400661,2871.387120,-9111.868461
5603.295523,4192.225195,2756.531635,-9303.294269
5603.298087,-267.996131,-861.416136,-9934.999435
5603.300650,3675.375514,8078.169098,-8384.450390
5603.303213,516.849682,-363.709035,-10432.706536
5603.305777,1856.830338,5302.494882,-9494.720077
5603.308340,-1933.400661,-1627.119368,-10126.425243
5603.310904,-1761.117434,3273.381317,-8958.727814
5603.313467,2220.539373,4555.934230,-8097.311678
5603.316030,-880.558717,-7101.897477,-11255.837510
5603.318594,-1569.691626,1244.267752,-10049.854920
5603.321157,421.136778,-2737.389054,-10585.847182
5603.323721,-3675.375514,-1186.840010,-10241.280728
5603.326284,-229.710970,6833.901346,-7925.028451
5603.328847,3637.090352,-363.709035,-9858.429112
5603.331411,-1129.412267,-1435.693560,-11006.983960
5603.333974,-765.703232,-1933.400661,-9896.714274
5603.336538,-478.564520,-899.701298,-9686.145885
5603.339101,-708.275490,516.849682,-9839.286531
5603.341664,114.855485,574.277424,-9858.429112
5603.344229,-823.130974,-899.701298,-9915.856854
5603.346793,-1493.121302,1895.115499,-9303.294269
5603.349358,-2622.533570,-4804.787781,-10394.421374
5603.351922,-1282.552914,-3349.951640,-10241.280728
5603.354487,-1799.402595,535.992262,-9513.862658
5603.357051,3809.373579,784.845813,-9513.862658
5603.359615,-2756.531635,-2431.107762,-10853.843314
5603.362180,2450.250342,7905.885870,-8020.741355
5603.364744,5876.772306,3751.945837,-8346.165229
5603.367309,-1014.556782,-4881.358104,-11715.259450
5603.369873,-1818.545176,6814.758765,-8595.018779
5603.372438,6719.045861,3005.385186,-9016.155557
5603.375002,325.423874,746.560651,-9475.577496
5603.377567,823.130974,-114.855485,-9475.577496
5603.380131,4345.365842,2794.816797,-9475.577496
5603.382695,-210.568389,1493.121302,-10585.847182
5603.385260,459.421939,1933.400661,-9150.153622
5603.387824,2909.672282,1186.840010,-8709.874264
5603.390389,535.992262,421.136778,-9973.284597
5603.392953,-1703.689691,1339.980656,-10164.710405
5603.395518,4594.219392,2794.816797,-9341.579430
5603.398082,3196.810994,746.560651,-9973.284597
5603.400646,229.710970,4211.367776,-8824.729749
5603.403211,3388.236802,153.140646,-9150.153622
5603.405775,1722.832272,3943.371645,-10164.710405
5603.408340,38.285162,4153.940034,-9801.001370
5603.410904,-937.986459,-76.570323,-10164.710405
5603.413469,1091.127106,6010.770371,-8193.024582
5603.416033,1378.265818,-7695.317482,-10260.423309
5603.418598,-2335.394858,-3235.096155,-10758.130410
5603.421162,-497.707101,-2890.529701,-10298.708470
5603.423726,382.851616,191.425808,-10183.852986
5603.426291,-3771.088418,5321.637462,-8403.592971
5603.428855,650.847747,-2048.256146,-9724.431046
5603.431420,-746.560651,-1205.982590,-10107.282662
5603.433984,1091.127106,2277.967115,-9590.432981
5603.436549,612.562586,-995.414202,-10030.712339
5603.439113,-478.564520,-287.138712,-9226.723946
5603.441677,-1244.267752,1512.263883,-9360.722011
5603.444242,2029.113565,-842.273555,-10126.425243
5603.446807,-1531.406464,0.000000,-9801.001370
5603.449373,-229.710970,1588.834206,-9322.436850
5603.451938,-2909.672282,-5340.780043,-10853.843314
5603.454504,-3943.371645,-861.416136,-9399.007173
5603.457069,1741.974853,1225.125171,-8824.729749
5603.459635,2124.826469,-4096.512291,-10949.556218
5603.462200,-2622.533570,-2086.541307,-10624.132344
5603.464766,2297.109696,7733.602643,-8384.450390
5603.467331,5359.922624,-2507.678085,-9743.573627
5603.469897,-3215.953574,2545.963246,-10126.425243
5603.472462,1895.115499,5742.774240,-8384.450390
5603.475027,4345.365842,267.996131,-10068.997501
5603.477593,-918.843878,153.140646,-9858.429112
5603.480158,1627.119368,133.998066,-9552.147819
5603.482724,3043.670347,3158.525832,-9016.155557
5603.485289,401.994197,4077.369710,-10030.712339
5603.487855,1052.841944,612.562586,-9647.860723
5603.490420,880.558717,459.421939,-9111.868461
5603.492986,593.420005,880.558717,-9705.288466
5603.495551,593.420005,363.709035,-10202.995566
5603.498117,2163.111630,2316.252277,-9571.290400
5603.500682,3751.945837,1799.402595,-9188.438784
5603.503248,2335.394858,2526.820666,-9667.003304
5603.505813,1454.836141,631.705166,-9475.577496
5603.508378,2048.256146,4575.076811,-10490.134278
5603.510944,1033.699363,4804.787781,-9801.001370
5603.513509,-899.701298,765.703232,-9743.573627
5603.516075,1167.697429,6987.041992,-8422.735552
5603.518640,803.988394,-8575.876198,-10585.847182
5603.521206,-2201.396792,-2316.252277,-10509.276859
5603.523771,440.279358,-2622.533570,-10068.997501
5603.526337,172.283227,57.427742,-10164.710405
5603.528902,-3177.668413,5417.350366,-8212.167163
5603.531468,172.283227,-2699.103893,-10241.280728
5603.534033,1244.267752,-2967.100024,-10432.706536
5603.536599,-478.564520,516.849682,-10279.565890
5603.539164,1263.410333,-1569.691626,-9934.999435
5603.541730,-2029.113565,210.568389,-9131.011042
5603.544295,-1052.841944,957.129040,-9245.866526
5603.546860,1244.267752,-669.990328,-10260.423309
5603.549427,-1914.258080,306.281293,-9781.858789
5603.551994,76.570323,1301.695494,-9054.440718
5603.554560,-2699.103893,-4670.789715,-10547.562021
5603.557127,-2947.957443,-2545.963246,-9743.573627
5603.559693,-3503.092286,-3426.521963,-10490.134278
5603.562260,4096.512291,4881.358104,-8633.303941
5603.564826,95.712904,-3579.662610,-10566.704602
5603.567393,-1473.978722,6202.196179,-9169.296203
5603.569960,6049.055533,2182.254211,-8499.305875
5603.572526,-1952.543242,-3254.238736,-11217.552349
5603.575093,-995.414202,7523.034254,-8422.735552
5603.577659,6814.758765,2124.826469,-9303.294269
5603.580226,133.998066,76.570323,-9724.431046
5603.582792,306.281293,-650.847747,-9437.292334
5603.585359,3254.238736,1473.978722,-9743.573627
5603.587926,133.998066,2622.533570,-10298.708470
5603.590492,708.275490,478.564520,-9762.716208
5603.593059,1818.545176,555.134843,-8595.018779
5603.595625,-363.709035,899.701298,-10068.997501
5603.598192,1225.125171,765.703232,-10490.134278
5603.600758,2737.389054,1990.828403,-9647.860723
5603.603325,3388.236802,3464.807125,-9131.011042
5603.605891,95.712904,-229.710970,-9877.571693
5603.608458,3196.810994,7350.751027,-8537.591037
5603.611025,1186.840010,1244.267752,-10624.132344
5603.613591,1684.547110,6355.336826,-9667.003304
5603.616158,-401.994197,-1263.410333,-9533.005238
5603.618724,-2622.533570,-8059.026517,-11255.837510
5603.621291,1531.406464,3503.092286,-8269.594906
5603.623857,-133.998066,-5302.494882,-10509.276859
5603.626424,-842.273555,1435.693560,-10183.852986
5603.628991,-612.562586,-1320.838075,-9915.856854
5603.631558,-3503.092286,-2756.531635,-10068.997501
5603.634125,-937.986459,5895.914886,-8039.883936
5603.636692,4268.795518,401.994197,-9915.856854
5603.639259,-478.564520,-1435.693560,-10585.847182
5603.641826,-2143.969050,-1914.258080,-10011.569758
5603.644394,555.134843,1148.554848,-8843.872330
5603.646961,1014.556782,-363.709035,-10011.569758
5603.649528,-1435.693560,325.423874,-9973.284597
5603.652095,133.998066,1971.685822,-9245.866526
5603.654662,-3196.810994,-4728.217458,-10662.417506
5603.657230,-4249.652938,-2220.539373,-9801.001370
5603.659797,593.420005,1607.976787,-8824.729749
5603.662364,2622.533570,-3943.371645,-10566.704602
5603.664931,-2182.254211,478.564520,-10279.565890
5603.667498,1722.832272,8327.022648,-8346.165229
5603.670065,5283.352301,-1741.974853,-9724.431046
5603.672633,-3541.377448,1799.402595,-10260.423309
5603.675200,1435.693560,6412.764568,-8173.882002
5603.677767,4996.213589,172.283227,-10107.282662
5603.680334,-899.701298,153.140646,-9973.284597
5603.682901,1646.261949,-516.849682,-9667.003304
5603.685469,2431.107762,2928.814862,-9111.868461
5603.688036,1167.697429,3885.943902,-9628.718142
5603.690603,1741.974853,899.701298,-10088.140082
5603.693170,421.136778,248.853550,-9073.583299
5603.695737,-689.132909,1205.982590,-9418.149754
5603.698305,2909.672282,363.709035,-10298.708470
5603.700872,937.986459,1780.260014,-9858.429112
5603.703439,4096.512291,3943.371645,-8767.302006
5603.706006,1244.267752,-1359.123237,-10088.140082
5603.708573,3235.096155,6336.194245,-8461.020714
5603.711140,210.568389,1684.547110,-10202.995566
5603.713708,2297.109696,4345.365842,-9954.142016
5603.716275,-344.566454,-1091.127106,-9590.432981
5603.718842,-2565.105827,-1741.974853,-9896.714274
5603.721409,2699.103893,3101.098090,-8135.596840
5603.723976,-650.847747,-7446.463931,-11542.976222
5603.726544,-1780.260014,19.142581,-10164.710405
5603.729111,-248.853550,-3215.953574,-10681.560086
5603.731678,-4230.510357,2335.394858,-9456.434915
5603.734246,650.847747,5245.067139,-8039.883936
5603.736813,2909.672282,-2411.965181,-10413.563955
5603.739381,-689.132909,-1569.691626,-10662.417506
5603.741949,-1167.697429,421.136778,-9571.290400
5603.744516,1320.838075,-1205.982590,-9513.862658
5603.747084,-1933.400661,1129.412267,-9533.005238
5603.749652,593.420005,555.134843,-9590.432981
5603.752219,746.560651,765.703232,-9609.575562
5603.754787,-4211.367776,-2833.101958,-10202.995566
5603.757355,-3369.094221,-2718.246474,-9705.288466
5603.759923,57.427742,689.132909,-9303.294269
5603.762490,2124.826469,-3464.807125,-10413.563955
5603.765058,-1263.410333,-3828.516160,-11006.983960
5603.767626,2431.107762,8269.594906,-8384.450390
5603.770193,5149.354235,-1665.404530,-9513.862658
5603.772761,-3369.094221,2622.533570,-9973.284597
5603.775329,1263.410333,6489.334891,-8365.307810
5603.777896,5513.063270,153.140646,-9992.427178
5603.780464,-1416.550979,-861.416136,-10164.710405
5603.783032,1837.687757,133.998066,-9571.290400
5603.785599,2813.959378,2431.107762,-8997.012976
5603.788167,440.279358,3254.238736,-9954.142016
5603.790735,593.420005,1569.691626,-9705.288466
5603.793302,669.990328,-440.279358,-9150.153622
5603.795870,133.998066,1473.978722,-9245.866526
5603.798438,1588.834206,497.707101,-10547.562021
5603.801006,2277.967115,2182.254211,-9705.288466
5603.803573,4077.369710,3388.236802,-8939.585234
5603.806141,937.986459,-1665.404530,-10145.567824
5603.808709,2794.816797,6699.903280,-8403.592971
5603.811276,995.414202,1665.404530,-10202.995566
5603.813844,-669.990328,5436.492947,-9801.001370
5603.816412,1990.828403,2239.681954,-8499.305875
5603.818979,-2890.529701,-8097.311678,-11255.837510
5603.821547,1837.687757,4364.508422,-7905.885870
5603.824115,-19.142581,-5800.201982,-10566.704602
5603.826682,-1014.556782,1378.265818,-10279.565890
5603.829250,-1435.693560,-2277.967115,-10451.849117
5603.831818,-3464.807125,-1818.545176,-9839.286531
5603.834386,-153.140646,6202.196179,-7944.171032
5603.836933,3158.525832,1722.832272,-9647.860723
5603.839484,497.707101,-1282.552914,-10279.565890
5603.842035,-2699.103893,-172.283227,-9724.431046
5603.844586,133.998066,459.421939,-9131.011042
5603.847137,803.988394,-306.281293,-9992.427178
5603.849688,-306.281293,153.140646,-9896.714274
5603.852239,-2392.822600,38.285162,-9801.001370
5603.854790,-2852.244539,-2239.681954,-9992.427178
5603.857342,95.712904,-3809.373579,-9781.858789
5603.859893,-3962.514226,-3905.086483,-10260.423309
5603.862444,1703.689691,5072.783912,-8901.300072
5603.864995,5761.916821,-727.418070,-9973.284597
5603.867546,-2469.392923,1148.554848,-10356.136213
5603.870097,3081.955509,10719.845248,-6891.329088
5603.872648,823.130974,-4843.072942,-11198.409768
5603.875199,-2143.969050,5225.924558,-9322.436850
5603.877750,5800.201982,3235.096155,-9188.438784
5603.880301,2297.109696,-803.988394,-10049.854920
5603.882852,-325.423874,1320.838075,-9475.577496
5603.885403,2603.390989,1454.836141,-9724.431046
5603.887954,2124.826469,2373.680019,-9724.431046
5603.890505,-57.427742,823.130974,-9934.999435
5603.893056,1014.556782,708.275490,-9092.725880
5603.895607,1148.554848,1971.685822,-9743.573627
5603.898158,1665.404530,784.845813,-10336.993632
5603.900709,3464.807125,4039.084549,-9092.725880
5603.903260,1225.125171,937.986459,-9379.864592
5603.905811,3656.232933,2335.394858,-8939.585234
5603.908362,727.418070,3101.098090,-10126.425243
5603.910914,2163.111630,5302.494882,-9647.860723
5603.913465,-1684.547110,-1684.547110,-10241.280728
5603.916016,-2201.396792,4498.506488,-8537.591037
5603.918567,3541.377448,-3369.094221,-9054.440718
5603.921118,-1244.267752,-6202.196179,-11619.546546
5603.923669,-1837.687757,-1722.832272,-10260.423309
5603.926220,-153.140646,-2029.113565,-10375.278794
5603.928771,-3962.514226,5704.489078,-8327.022648
5603.931322,746.560651,-1071.984525,-9571.290400
5603.933873,95.712904,-1225.125171,-9992.427178
5603.936424,-1914.258080,325.423874,-10604.989763
5603.938961,1301.695494,325.423874,-9513.862658
5603.941498,-114.855485,-1148.554848,-9571.290400
5603.944035,-2450.250342,1225.125171,-9456.434915
5603.946571,1780.260014,57.427742,-9762.716208
5603.949108,-880.558717,440.279358,-9858.429112
5603.951645,-3656.232933,-1531.406464,-9915.856854
5603.954182,-689.132909,-4421.936165,-9934.999435
5603.956719,-3005.385186,-1531.406464,-10030.712339
5603.959256,2201.396792,5359.922624,-8537.591037
5603.961793,1741.974853,-4077.369710,-10662.417506
5603.964329,-631.705166,6183.053598,-9418.149754
5603.966866,5685.346498,3005.385186,-8767.302006
5603.969403,-1971.685822,-1320.838075,-10509.276859
5603.971940,-1282.552914,7599.604578,-8556.733618
5603.974477,7121.040058,1416.550979,-9609.575562
5603.977014,0.000000,-1071.984525,-10260.423309
5603.979551,631.705166,153.140646,-9609.575562
5603.982087,2392.822600,1148.554848,-9513.862658
5603.984624,1014.556782,2009.970984,-10222.138147
5603.987161,267.996131,2641.676150,-9705.288466
5603.989698,1741.974853,-401.994197,-9207.581365
5603.992235,555.134843,1780.260014,-9054.440718
5603.994772,1722.832272,957.129040,-10279.565890
5603.997309,3139.383251,3522.234867,-9801.001370
5603.999845,1550.549045,1914.258080,-9437.292334
5604.002382,3847.658741,1875.972918,-8901.300072
5604.004919,1148.554848,3177.668413,-9743.573627
5604.007456,2009.970984,5685.346498,-9647.860723
5604.009993,-1741.974853,-1033.699363,-10604.989763
5604.012530,-1397.408398,5149.354235,-8499.305875
5604.015067,3273.381317,-4268.795518,-9073.583299
5604.017603,-1091.127106,-5187.639397,-10987.841379
5604.020140,-1569.691626,-2718.246474,-10222.138147
5604.022677,-306.281293,-1186.840010,-10394.421374
5604.025214,-3196.810994,5819.344563,-8461.020714
5604.027751,478.564520,-2239.681954,-9743.573627
5604.030288,-267.996131,-287.138712,-10183.852986
5604.032825,-1148.554848,957.129040,-10470.991698
5604.035362,995.414202,-1550.549045,-10183.852986
5604.037898,-1167.697429,803.988394,-9303.294269
5604.040440,-899.701298,803.988394,-9456.434915
5604.042981,2029.113565,-248.853550,-9647.860723
5604.045523,-3407.379382,-1225.125171,-10030.712339
5604.048064,-4039.084549,-803.988394,-9781.858789
5604.050606,1339.980656,-1914.258080,-9571.290400
5604.053148,-4230.510357,-6489.334891,-10968.698798
5604.055689,1588.834206,5417.350366,-8384.450390
5604.058231,4709.074877,-2718.246474,-10164.710405
5604.060772,-2143.969050,4211.367776,-9992.427178
5604.063314,4153.940034,7255.038123,-8039.883936
5604.065855,-535.992262,-4421.936165,-11217.552349
5604.068397,-1071.984525,2009.970984,-9896.714274
5604.070938,2756.531635,2890.529701,-9150.153622
5604.073480,4651.647134,-574.277424,-9686.145885
5604.076021,-823.130974,1435.693560,-9571.290400
5604.078563,1167.697429,1148.554848,-9628.718142
5604.081104,1359.123237,1933.400661,-9915.856854
5604.083646,612.562586,1952.543242,-9533.005238
5604.086187,2699.103893,19.142581,-9054.440718
5604.088729,-133.998066,995.414202,-9877.571693
5604.091270,2182.254211,2105.683888,-10049.854920
5604.093812,4077.369710,2603.390989,-9628.718142
5604.096354,1167.697429,-1129.412267,-9724.431046
5604.098895,2086.541307,5685.346498,-8384.450390
5604.101437,2239.681954,2067.398726,-10107.282662
5604.103978,1320.838075,6278.766502,-9992.427178
5604.106520,-727.418070,-248.853550,-9647.860723
5604.109061,-2603.390989,-3311.666478,-10068.997501
5604.111603,2833.101958,3656.232933,-7791.030386
5604.114144,19.142581,-6795.616184,-11179.267187
5604.116686,-1933.400661,2316.252277,-10317.851051
5604.119227,-1875.972918,-803.988394,-10068.997501
5604.121769,-3522.234867,-2641.676150,-10049.854920
5604.124310,210.568389,5206.781978,-7925.028451
5604.126852,4153.940034,-1244.267752,-10107.282662
5604.129393,-842.273555,-765.703232,-10872.985894
5604.131935,-1856.830338,153.140646,-10068.997501
5604.134476,918.843878,267.996131,-9016.155557
5604.137018,-516.849682,-172.283227,-9399.007173
5604.139560,76.570323,1244.267752,-9724.431046
5604.142105,-2163.111630,-1550.549045,-10011.569758
5604.144651,-2239.681954,-3809.373579,-10662.417506
5604.147197,-1933.400661,172.283227,-9513.862658
5604.149743,1990.828403,-3598.805190,-9552.147819
5604.152289,-1761.117434,-2029.113565,-10643.274925
5604.154835,4173.082614,6987.041992,-8403.592971
5604.157381,1875.972918,-2603.390989,-10930.413637
5604.159927,-1607.976787,9418.149754,-8729.016845
5604.162472,2813.959378,1646.261949,-9035.298138
5604.165018,5206.781978,-38.285162,-9724.431046
5604.167564,-727.418070,-842.273555,-10662.417506
5604.170110,2143.969050,248.853550,-9915.856854
5604.172656,2545.963246,1971.685822,-9188.438784
5604.175202,-784.845813,2871.387120,-9571.290400
5604.177748,2603.390989,3081.955509,-9169.296203
5604.180293,1397.408398,-1148.554848,-10107.282662
5604.182839,-172.283227,1454.836141,-9188.438784
5604.185385,1569.691626,1397.408398,-9858.429112
5604.187931,3120.240670,2679.961312,-9839.286531
5604.190477,1110.269686,555.134843,-9284.151688
5604.193023,4536.791650,4747.360038,-8614.161360
5604.195569,612.562586,2029.113565,-10126.425243
5604.198115,1856.830338,4881.358104,-9858.429112
5604.200660,-2258.824534,-1225.125171,-10643.274925
5604.203206,-1473.978722,5532.205851,-8346.165229
5604.205752,3273.381317,-4862.215523,-9169.296203
5604.208298,-995.414202,-4785.645200,-11026.126541
5604.210844,-1493.121302,-3330.809059,-10547.562021
5604.213390,-535.992262,-2737.389054,-10681.560086
5604.215936,-3790.230998,3847.658741,-9418.149754
5604.218482,612.562586,1244.267752,-8786.444587
5604.221027,1071.984525,-1205.982590,-10049.854920
5604.223573,-669.990328,1990.828403,-10164.710405
5604.226119,1875.972918,-1435.693560,-10260.423309
5604.228665,-1837.687757,1014.556782,-9379.864592
5604.231211,-880.558717,899.701298,-9456.434915
5604.233757,2603.390989,57.427742,-9705.288466
5604.236303,-4134.797453,-1588.834206,-10183.852986
5604.238849,-4823.930362,-2488.535504,-10145.567824
5604.241394,344.566454,1052.841944,-9111.868461
5604.243944,-248.853550,-5838.487144,-10700.702667
5604.246493,-1722.832272,440.279358,-10202.995566
5604.249042,4000.799387,4613.361973,-8652.446522
5604.251592,535.992262,-3043.670347,-11045.269122
5604.254141,861.416136,11562.118803,-7944.171032
5604.256690,2737.389054,-823.130974,-9839.286531
5604.259239,535.992262,689.132909,-9954.142016
5604.261789,1148.554848,3158.525832,-9265.009107
5604.264338,4173.082614,612.562586,-9475.577496
5604.266887,1282.552914,1473.978722,-9322.436850
5604.269437,-689.132909,2411.965181,-9590.432981
5604.271986,2526.820666,1397.408398,-9628.718142
5604.274535,727.418070,1301.695494,-9724.431046
5604.277084,612.562586,1129.412267,-9131.011042
5604.279634,2526.820666,823.130974,-9590.432981
5604.282183,1971.685822,3732.803256,-9781.858789
5604.284732,937.986459,1378.265818,-9743.573627
5604.287282,5072.783912,4938.785846,-8461.020714
5604.289831,727.418070,1416.550979,-10126.425243
5604.292380,1971.685822,5857.629725,-9571.290400
5604.294929,-2316.252277,-1339.980656,-10681.560086
5604.297479,-1914.258080,5436.492947,-8652.446522
5604.300028,3196.810994,-4862.215523,-9169.296203
5604.302577,-727.418070,-4996.213589,-10892.128475
5604.305126,-1320.838075,-2813.959378,-10317.851051
5604.307676,-535.992262,-746.560651,-10260.423309
5604.310225,-2622.533570,5302.494882,-9437.292334
5604.312774,191.425808,1071.984525,-8652.446522
5604.315324,1454.836141,-1110.269686,-9762.716208
5604.317873,-248.853550,1186.840010,-10222.138147
5604.320422,631.705166,-1359.123237,-10470.991698
5604.322971,-1416.550979,823.130974,-9322.436850
5604.325521,-650.847747,1167.697429,-9226.723946
5604.328070,1110.269686,-114.855485,-9743.573627
5604.330619,-2813.959378,-1914.258080,-10068.997501
5604.333169,-4134.797453,-2048.256146,-10222.138147
5604.335718,-2335.394858,-440.279358,-9992.427178
5604.338267,1971.685822,-1818.545176,-9418.149754
5604.340816,-1952.543242,-3675.375514,-10700.702667
5604.343366,4651.647134,7235.895542,-8078.169098
5604.345918,2852.244539,-2488.535504,-10758.130410
5604.348471,-1780.260014,8633.303941,-9341.579430
5604.351023,2565.105827,3062.812928,-8748.159426
5604.353576,3311.666478,-1282.552914,-9858.429112
5604.356129,-1263.410333,1627.119368,-9437.292334
5604.358681,5168.496816,-478.564520,-9418.149754
5604.361234,2699.103893,976.271621,-9437.292334
5604.363786,-976.271621,2813.959378,-9877.571693
5604.366339,1416.550979,1933.400661,-9513.862658
5604.368891,1607.976787,976.271621,-9552.147819
5604.371444,1454.836141,1493.121302,-9092.725880
5604.373996,1895.115499,344.566454,-9973.284597
5604.376549,2163.111630,5379.065205,-9475.577496
5604.379102,2488.535504,-1703.689691,-10107.282662
5604.381654,3617.947771,5647.061336,-8748.159426
5604.384207,1263.410333,3905.086483,-9245.866526
5604.386759,1818.545176,5857.629725,-9705.288466
5604.389312,-478.564520,-133.998066,-9934.999435
5604.391864,-3483.949706,-3560.520029,-10547.562021
5604.394417,3694.518094,3177.668413,-8116.454259
5604.396969,229.710970,-6623.332957,-10681.560086
5604.399522,-1856.830338,-153.140646,-10107.282662
5604.402075,-1722.832272,-2737.389054,-10413.563955
5604.404627,-3675.375514,2163.111630,-9820.143950
5604.407180,918.843878,2622.533570,-8327.022648
5604.409732,3560.520029,-2009.970984,-10068.997501
5604.412285,-1665.404530,-1837.687757,-10509.276859
5604.414837,-746.560651,1665.404530,-9533.005238
5604.417390,2048.256146,-153.140646,-9628.718142
5604.419942,-114.855485,0.000000,-9724.431046
5604.422495,-2718.246474,-1091.127106,-9762.716208
5604.425048,-2622.533570,-899.701298,-9475.577496
5604.427600,229.710970,-2813.959378,-10145.567824
5604.430153,-4498.506488,-5608.776174,-11045.269122
5604.432705,746.560651,4862.215523,-8480.163294
5604.435258,5570.491013,-2163.111630,-9820.143950
5604.437810,-382.851616,1454.836141,-10298.708470
5604.440363,3101.098090,10088.140082,-7599.604578
5604.442916,57.427742,-4058.227130,-11715.259450
5604.445468,-2947.957443,6202.196179,-8882.157491
5604.448024,6010.770371,3694.518094,-8307.880067
5604.450579,5111.069074,-2048.256146,-10126.425243
5604.453135,-1110.269686,1607.976787,-9667.003304
5604.455690,1282.552914,2220.539373,-9628.718142
5604.458246,1799.402595,440.279358,-10241.280728
5604.460802,-555.134843,2431.107762,-9284.151688
5604.463357,2182.254211,593.420005,-8901.300072
5604.465913,1665.404530,976.271621,-9647.860723
5604.468468,1761.117434,3924.229064,-9743.573627
5604.471024,1129.412267,-172.283227,-10183.852986
5604.473579,4689.932296,5589.633594,-8307.880067
5604.476135,995.414202,2507.678085,-9494.720077
5604.478691,2297.109696,4555.934230,-9934.999435
5604.481246,-2584.248408,-612.562586,-10451.849117
5604.483802,-2584.248408,4766.502619,-8805.587168
5604.486357,3311.666478,-3158.525832,-8863.014910
5604.488913,-133.998066,-5972.485210,-10872.985894
5604.491469,-2086.541307,-3522.234867,-10298.708470
5604.494024,-976.271621,-937.986459,-10413.563955
5604.496580,-2852.244539,2947.957443,-9762.716208
5604.499135,172.283227,1205.982590,-8671.589102
5604.501691,899.701298,-19.142581,-9437.292334
5604.504246,593.420005,1339.980656,-9839.286531
5604.506802,765.703232,-1722.832272,-10470.991698
5604.509358,-1569.691626,1512.263883,-9437.292334
5604.511913,689.132909,1339.980656,-9245.866526
5604.514469,-708.275490,-2392.822600,-10088.140082
5604.517024,-3751.945837,153.140646,-9245.866526
5604.519580,-19.142581,-3235.096155,-10336.993632
5604.522136,-3694.518094,-7140.182638,-11351.550414
5604.524691,-421.136778,4957.928427,-8097.311678
5604.527247,2507.678085,-4575.076811,-10126.425243
5604.529802,650.847747,4689.932296,-9686.145885
5604.532358,5283.352301,5627.918755,-8480.163294
5604.534913,-1282.552914,-1435.693560,-11351.550414
5604.537469,-1856.830338,7867.600709,-8231.309744
5604.540025,6355.336826,1722.832272,-8786.444587
5604.542580,401.994197,-2163.111630,-10222.138147
5604.545136,650.847747,918.843878,-9934.999435
5604.547691,2239.681954,1397.408398,-9724.431046
5604.550249,-114.855485,1091.127106,-10298.708470
5604.552807,842.273555,3215.953574,-9341.579430
5604.555365,3426.521963,-880.558717,-9245.866526
5604.557923,-803.988394,1780.260014,-9628.718142
5604.560481,3005.385186,1971.685822,-10049.854920
5604.563039,133.998066,1320.838075,-10145.567824
5604.565597,4900.500685,5091.926493,-8384.450390
5604.568154,1799.402595,2067.398726,-9188.438784
5604.570712,2469.392923,3579.662610,-10049.854920
5604.573270,-3560.520029,555.134843,-10490.134278
5604.575828,-2105.683888,4862.215523,-8767.302006
5604.578386,3349.951640,-3560.520029,-8843.872330
5604.580944,-153.140646,-6412.764568,-11026.126541
5604.583502,-1684.547110,-3713.660675,-10049.854920
5604.586060,-1320.838075,-861.416136,-10126.425243
5604.588618,-2163.111630,5608.776174,-8824.729749
5604.591176,612.562586,1014.556782,-8614.161360
5604.593733,1225.125171,-172.283227,-9494.720077
5604.596291,57.427742,19.142581,-9934.999435
5604.598849,976.271621,-976.271621,-10068.997501
5604.601407,-1799.402595,1665.404530,-9494.720077
5604.603965,497.707101,1205.982590,-9533.005238
5604.606523,-363.709035,-2947.957443,-9724.431046
5604.609081,-4249.652938,574.277424,-9399.007173
5604.611639,631.705166,-1741.974853,-10126.425243
5604.614197,-3885.943902,-7293.323285,-11619.546546
5604.616754,-1339.980656,3885.943902,-8901.300072
5604.619312,5340.780043,-2641.676150,-9858.429112
5604.621870,746.560651,1397.408398,-10164.710405
5604.624428,3120.240670,11236.694930,-7714.460062
5604.626986,57.427742,-3254.238736,-11830.114934
5604.629544,-3196.810994,6412.764568,-8805.587168
5604.632102,5608.776174,2565.105827,-8729.016845
5604.634660,2469.392923,-2641.676150,-10356.136213
5604.637218,-937.986459,2277.967115,-9934.999435
5604.639776,2967.100024,516.849682,-9934.999435
5604.642333,2297.109696,1320.838075,-9973.284597
5604.644891,-516.849682,1512.263883,-9552.147819
5604.647449,2124.826469,765.703232,-8805.587168
5604.650007,1493.121302,1263.410333,-9781.858789
5604.652567,2277.967115,3120.240670,-10145.567824
5604.655127,1761.117434,-784.845813,-10126.425243
5604.657687,3617.947771,5934.200048,-8154.739421
5604.660247,2431.107762,2718.246474,-9131.011042
5604.662808,2679.961312,4364.508422,-10068.997501
5604.665368,-3483.949706,-95.712904,-9705.288466
5604.667928,-3656.232933,-4115.654872,-10470.991698
5604.670488,3885.943902,3483.949706,-7580.461997
5604.673048,555.134843,-7293.323285,-10700.702667
5604.675608,-2105.683888,-861.416136,-10088.140082
5604.678168,-2048.256146,-1512.263883,-10528.419440
5604.680728,-2469.392923,2373.680019,-9934.999435
5604.683288,555.134843,1282.552914,-8709.874264
5604.685848,1665.404530,95.712904,-9533.005238
5604.688409,-842.273555,191.425808,-10030.712339
5604.690969,-650.847747,1071.984525,-9954.142016
5604.693529,2258.824534,784.845813,-9494.720077
5604.696089,-2297.109696,-382.851616,-9705.288466
5604.698649,-1320.838075,-229.710970,-9169.296203
5604.701209,-2029.113565,-3464.807125,-9992.427178
5604.703769,-1914.258080,1607.976787,-10030.712339
5604.706329,-1665.404530,-5187.639397,-10317.851051
5604.708889,-1646.261949,-382.851616,-10088.140082
5604.711449,3943.371645,1761.117434,-9150.153622
5604.714009,3254.238736,-2584.248408,-10604.989763
5604.716570,-1607.976787,9245.866526,-9226.723946
5604.719130,2105.683888,3924.229064,-9303.294269
5604.721690,3273.381317,-153.140646,-9724.431046
5604.724250,-478.564520,1952.543242,-9131.011042
5604.726810,5570.491013,-1473.978722,-9801.001370
5604.729370,382.851616,440.279358,-9820.143950
5604.731930,-1167.697429,3962.514226,-9590.432981
5604.734490,3120.240670,1263.410333,-9590.432981
5604.737050,1071.984525,1339.980656,-9781.858789
5604.739610,-631.705166,1359.123237,-9150.153622
5604.742170,3292.523898,2239.681954,-9705.288466
5604.744731,57.427742,1435.693560,-10509.276859
5604.747291,5340.780043,4211.367776,-8614.161360
5604.749851,3120.240670,1167.697429,-9686.145885
5604.752411,1071.984525,4345.365842,-9494.720077
5604.754972,-1378.265818,4230.510357,-9437.292334
5604.757534,1320.838075,5972.485210,-8843.872330
5604.760095,-3158.525832,-10183.852986,-11408.978157
5604.762657,842.273555,-306.281293,-9188.438784
5604.765219,-1244.267752,-4230.510357,-10164.710405
5604.767780,-1225.125171,-172.283227,-9896.714274
5604.770342,-2239.681954,4900.500685,-8671.589102
5604.772903,-1512.263883,-1627.119368,-10394.421374
5604.775465,1397.408398,2009.970984,-8748.159426
5604.778026,1473.978722,-803.988394,-9399.007173
5604.780588,-38.285162,-1378.265818,-10547.562021
5604.783149,-2124.826469,1684.547110,-9475.577496
5604.785711,1875.972918,1837.687757,-9360.722011
5604.788272,-1320.838075,-3101.098090,-10222.138147
5604.790834,-4402.793584,-535.992262,-9169.296203
5604.793396,689.132909,784.845813,-9628.718142
5604.795957,-3292.523898,-8920.442653,-11944.970419
5604.798519,-2220.539373,4345.365842,-8709.874264
5604.801080,5187.639397,-2565.105827,-9667.003304
5604.803642,1301.695494,1205.982590,-10241.280728
5604.806203,3560.520029,10700.702667,-7293.323285
5604.808765,-325.423874,-3177.668413,-11753.544611
5604.811326,-2909.672282,6910.471669,-8939.585234
5604.813888,2737.389054,2737.389054,-8939.585234
5604.816449,5034.498750,-3062.812928,-10336.993632
5604.819011,-1646.261949,1684.547110,-9743.573627
5604.821573,1952.543242,2277.967115,-9245.866526
5604.824134,1378.265818,784.845813,-10336.993632
5604.826696,-440.279358,2067.398726,-9647.860723
5604.829257,3388.236802,593.420005,-8786.444587
5604.831819,918.843878,1014.556782,-9724.431046
