#time,accel_x,accel_y,accel_z
4821.762644,421.136778,631.705166,-9820.143950
4821.765196,440.279358,612.562586,-9705.288466
4821.767747,535.992262,823.130974,-9590.432981
4821.770298,459.421939,803.988394,-9762.716208
4821.772850,382.851616,631.705166,-9801.001370
4821.775401,478.564520,784.845813,-9667.003304
4821.777953,555.134843,784.845813,-9686.145885
4821.780504,516.849682,612.562586,-9781.858789
4821.783055,401.994197,765.703232,-9686.145885
4821.785607,401.994197,708.275490,-9839.286531
4821.788158,1225.125171,382.851616,-9820.143950
4821.790709,1052.841944,555.134843,-9667.003304
4821.793261,918.843878,-1148.554848,-9934.999435
4821.795812,1435.693560,-267.996131,-9647.860723
4821.798364,421.136778,746.560651,-9896.714274
4821.800915,4326.223261,918.843878,-9896.714274
4821.803466,3215.953574,2297.109696,-9399.007173
4821.806018,-1454.836141,-1875.972918,-9628.718142
4821.808571,784.845813,-5206.781978,-10777.272990
4821.811125,459.421939,727.418070,-9245.866526
4821.813679,650.847747,-1091.127106,-9647.860723
4821.816233,3005.385186,-937.986459,-10298.708470
4821.818787,-1569.691626,7025.327154,-9150.153622
4821.821340,-1091.127106,1320.838075,-10068.997501
4821.823894,-650.847747,3330.809059,-8958.727814
4821.826448,-1761.117434,2545.963246,-9207.581365
4821.829002,2163.111630,-3579.662610,-10815.558152
4821.831556,1799.402595,-2890.529701,-10432.706536
4821.834109,-3062.812928,3196.810994,-8824.729749
4821.836663,-1818.545176,1339.980656,-9686.145885
4821.839217,229.710970,4881.358104,-9131.011042
4821.841771,2316.252277,823.130974,-10107.282662
4821.844325,861.416136,478.564520,-9628.718142
4821.846878,-229.710970,918.843878,-9571.290400
4821.849432,-1684.547110,-38.285162,-9934.999435
4821.851986,631.705166,1186.840010,-9590.432981
4821.854540,1205.982590,650.847747,-9896.714274
4821.857093,153.140646,248.853550,-9762.716208
4821.859647,-382.851616,1588.834206,-9475.577496
4821.862201,497.707101,708.275490,-9896.714274
4821.864755,-172.283227,497.707101,-9724.431046
4821.867309,-1818.545176,3005.385186,-9437.292334
4821.869862,-2756.531635,1665.404530,-9877.571693
4821.872416,1435.693560,823.130974,-9552.147819
4821.874970,1435.693560,1091.127106,-9609.575562
4821.877524,76.570323,76.570323,-10356.136213
4821.880078,2009.970984,555.134843,-10126.425243
4821.882631,-3751.945837,8920.442653,-7982.456194
4821.885185,1244.267752,-1607.976787,-10298.708470
4821.887739,-1971.685822,4326.223261,-8786.444587
4821.890293,4594.219392,-5283.352301,-11026.126541
4821.892847,-2641.676150,3139.383251,-9341.579430
4821.895400,-497.707101,-3885.943902,-10528.419440
4821.897954,2622.533570,3656.232933,-8843.872330
4821.900508,-995.414202,7350.751027,-8786.444587
4821.903062,4287.938099,-8231.309744,-11849.257515
4821.905616,3158.525832,-880.558717,-9437.292334
4821.908169,-2316.252277,4058.227130,-8920.442653
4821.910723,2239.681954,-7465.606512,-11217.552349
4821.913277,535.992262,3790.230998,-9245.866526
4821.915830,2239.681954,-3311.666478,-10432.706536
4821.918384,3158.525832,-727.418070,-9877.571693
4821.920937,-1569.691626,4326.223261,-9226.723946
4821.923491,746.560651,1378.265818,-9207.581365
4821.926045,-497.707101,1320.838075,-9954.142016
4821.928598,2220.539373,-3713.660675,-10413.563955
4821.931152,2316.252277,-1837.687757,-10260.423309
4821.933706,2813.959378,-1225.125171,-9456.434915
4821.936259,57.427742,1627.119368,-9150.153622
4821.938813,-1033.699363,191.425808,-10624.132344
4821.941367,516.849682,1301.695494,-9954.142016
4821.943920,1990.828403,1837.687757,-9035.298138
4821.946474,1531.406464,-1339.980656,-9801.001370
4821.949027,1129.412267,363.709035,-9590.432981
4821.951581,229.710970,1033.699363,-9743.573627
4821.954135,555.134843,727.418070,-10413.563955
4821.956688,1110.269686,650.847747,-9513.862658
4821.959242,459.421939,516.849682,-9054.440718
4821.961796,631.705166,-555.134843,-9877.571693
4821.964349,1703.689691,1875.972918,-9858.429112
4821.966903,2852.244539,-650.847747,-10126.425243
4821.969457,4039.084549,-1761.117434,-9896.714274
4821.972010,-1703.689691,784.845813,-9207.581365
4821.974564,516.849682,-3790.230998,-10164.710405
4821.977117,1033.699363,1129.412267,-9418.149754
4821.979671,-516.849682,5455.635528,-9360.722011
4821.982225,3905.086483,-3943.371645,-11006.983960
4821.984778,516.849682,3847.658741,-8556.733618
4821.987332,1531.406464,-4862.215523,-10241.280728
4821.989886,-1416.550979,4517.649069,-8690.731683
4821.992439,57.427742,-957.129040,-10662.417506
4821.994993,5149.354235,-3349.951640,-10566.704602
4821.997547,-2775.674216,7063.612315,-8556.733618
4822.000100,-421.136778,-9150.153622,-11026.126541
4822.002654,2469.392923,-2526.820666,-10643.274925
4822.005208,-4173.082614,12538.390424,-8403.592971
4822.007761,2679.961312,-5723.631659,-11466.405899
4822.010315,-1684.547110,5608.776174,-8556.733618
4822.012870,1359.123237,-2086.541307,-10126.425243
4822.015424,-1933.400661,-593.420005,-9475.577496
4822.017979,95.712904,4555.934230,-9322.436850
4822.020534,2048.256146,-631.705166,-10643.274925
4822.023089,-784.845813,-535.992262,-9820.143950
4822.025644,-287.138712,2718.246474,-9188.438784
4822.028198,-746.560651,3349.951640,-9073.583299
4822.030753,574.277424,631.705166,-9743.573627
4822.033308,612.562586,1512.263883,-10241.280728
4822.035863,-2182.254211,3349.951640,-9360.722011
4822.038417,-76.570323,-1110.269686,-9820.143950
4822.040972,1646.261949,1875.972918,-9188.438784
4822.043527,459.421939,727.418070,-10107.282662
4822.046082,-421.136778,1091.127106,-9839.286531
4822.048637,-363.709035,650.847747,-9858.429112
4822.051191,421.136778,708.275490,-9437.292334
4822.053746,746.560651,689.132909,-9647.860723
4822.056301,229.710970,363.709035,-10030.712339
4822.058856,-287.138712,1952.543242,-9781.858789
4822.061411,-1473.978722,1397.408398,-9609.575562
4822.063965,-1684.547110,2086.541307,-9245.866526
4822.066520,1780.260014,191.425808,-9743.573627
4822.069075,-708.275490,1837.687757,-9188.438784
4822.071630,-229.710970,287.138712,-10413.563955
4822.074185,1761.117434,3158.525832,-10183.852986
4822.076739,-2622.533570,8824.729749,-8116.454259
4822.079294,2143.969050,-593.420005,-10222.138147
4822.081849,-2316.252277,4134.797453,-8690.731683
4822.084404,3617.947771,-5723.631659,-10968.698798
4822.086958,-3120.240670,3254.238736,-9418.149754
4822.089513,-57.427742,-4153.940034,-10777.272990
4822.092068,2584.248408,4670.789715,-8633.303941
4822.094623,-1071.984525,7216.752962,-8595.018779
4822.097178,5359.922624,-8939.585234,-11810.972354
4822.099732,3560.520029,-382.851616,-9647.860723
4822.102287,-2545.963246,4307.080680,-8958.727814
4822.104842,1359.123237,-7944.171032,-11408.978157
4822.107397,1148.554848,3139.383251,-9341.579430
4822.109952,2086.541307,-2373.680019,-9992.427178
4822.112506,4134.797453,-1148.554848,-10030.712339
4822.115060,-1435.693560,5493.920690,-9111.868461
4822.117613,-1359.123237,1071.984525,-9571.290400
4822.120167,1741.974853,-2641.676150,-10662.417506
4822.122720,1512.263883,-229.710970,-9686.145885
4822.125274,1301.695494,-516.849682,-10145.567824
4822.127828,1818.545176,516.849682,-9322.436850
4822.130381,1933.400661,-1741.974853,-9877.571693
4822.132935,-172.283227,1473.978722,-9781.858789
4822.135488,-631.705166,612.562586,-10164.710405
4822.138042,899.701298,535.992262,-9571.290400
4822.140595,1569.691626,229.710970,-9284.151688
4822.143149,976.271621,727.418070,-9724.431046
4822.145702,-19.142581,918.843878,-9915.856854
4822.148256,19.142581,38.285162,-9858.429112
4822.150809,382.851616,555.134843,-9609.575562
4822.153363,1971.685822,459.421939,-9533.005238
4822.155916,1435.693560,-248.853550,-9877.571693
4822.158470,3522.234867,-1282.552914,-9954.142016
4822.161023,1856.830338,1052.841944,-9571.290400
4822.163577,-1588.834206,1607.976787,-9686.145885
4822.166130,1607.976787,-3330.809059,-9934.999435
4822.168684,784.845813,-1684.547110,-9437.292334
4822.171237,1129.412267,1665.404530,-9820.143950
4822.173791,2775.674216,3885.943902,-9188.438784
4822.176344,2986.242605,1167.697429,-9322.436850
4822.178898,-976.271621,1914.258080,-9418.149754
4822.181451,2182.254211,-4230.510357,-10432.706536
4822.184005,-1052.841944,5704.489078,-8786.444587
4822.186558,2239.681954,-7465.606512,-11676.974288
4822.189112,1914.258080,4670.789715,-8575.876198
4822.191665,-2009.970984,5225.924558,-8901.300072
4822.194219,3637.090352,-7408.178770,-11045.269122
4822.196773,1359.123237,5915.057467,-9494.720077
4822.199326,344.566454,2718.246474,-9973.284597
4822.201880,-2239.681954,-95.712904,-9647.860723
4822.204433,765.703232,478.564520,-9820.143950
4822.206987,-1665.404530,-1301.695494,-9801.001370
4822.209540,1780.260014,-229.710970,-10088.140082
4822.212094,1837.687757,4000.799387,-9418.149754
4822.214647,-2794.816797,1531.406464,-9456.434915
4822.217201,287.138712,172.283227,-10298.708470
4822.219755,-1359.123237,4192.225195,-8882.157491
4822.222310,861.416136,-976.271621,-9992.427178
4822.224864,803.988394,1071.984525,-10068.997501
4822.227418,-880.558717,2641.676150,-9207.581365
4822.229972,-1607.976787,459.421939,-9762.716208
4822.232526,1397.408398,1588.834206,-9934.999435
4822.235080,1263.410333,382.851616,-9494.720077
4822.237635,172.283227,995.414202,-9533.005238
4822.240189,153.140646,669.990328,-10107.282662
4822.242743,-95.712904,631.705166,-9762.716208
4822.245297,382.851616,555.134843,-9399.007173
4822.247851,-516.849682,2067.398726,-9418.149754
4822.250405,-2182.254211,1416.550979,-10183.852986
4822.252959,1359.123237,612.562586,-9801.001370
4822.255514,-1512.263883,2220.539373,-9111.868461
4822.258068,-650.847747,-574.277424,-10126.425243
4822.260622,2411.965181,3962.514226,-9494.720077
4822.263176,-2431.107762,5934.200048,-8920.442653
4822.265730,133.998066,-1435.693560,-10624.132344
4822.268284,899.701298,899.701298,-9877.571693
4822.270838,-191.425808,2354.537438,-10068.997501
4822.273393,-3196.810994,1646.261949,-9647.860723
4822.275947,2124.826469,-4709.074877,-10490.134278
4822.278501,-191.425808,9226.723946,-8135.596840
4822.281055,-516.849682,-2163.111630,-10892.128475
4822.283609,3120.240670,-2775.674216,-9896.714274
4822.286163,-2871.387120,9705.288466,-7829.315547
4822.288718,2756.531635,-9628.718142,-12040.683323
4822.291272,57.427742,4230.510357,-8709.874264
4822.293826,2201.396792,-2660.818731,-10202.995566
4822.296380,1014.556782,-1167.697429,-9781.858789
4822.298934,3771.088418,1569.691626,-9054.440718
4822.301488,-880.558717,3139.383251,-9131.011042
4822.304042,-2009.970984,-1339.980656,-10566.704602
4822.306597,3330.809059,-1952.543242,-10413.563955
4822.309151,114.855485,4364.508422,-8384.450390
4822.311705,1703.689691,-2565.105827,-10490.134278
4822.314259,1741.974853,248.853550,-9571.290400
4822.316813,344.566454,76.570323,-9552.147819
4822.319366,2048.256146,-3235.096155,-10872.985894
4822.321920,765.703232,2584.248408,-9016.155557
4822.324473,-401.994197,153.140646,-9915.856854
4822.327027,708.275490,267.996131,-9762.716208
4822.329581,976.271621,1933.400661,-9035.298138
4822.332134,727.418070,-95.712904,-10260.423309
4822.334688,823.130974,1148.554848,-9934.999435
4822.337241,401.994197,574.277424,-9437.292334
4822.339795,1799.402595,-689.132909,-9724.431046
4822.342348,2890.529701,-210.568389,-9781.858789
4822.344902,574.277424,287.138712,-10088.140082
4822.347455,1761.117434,-459.421939,-10145.567824
4822.350009,631.705166,1205.982590,-8958.727814
4822.352563,-1703.689691,-3943.371645,-9915.856854
4822.355116,2813.959378,-2105.683888,-10681.560086
4822.357670,1416.550979,3560.520029,-9341.579430
4822.360223,1282.552914,2258.824534,-9150.153622
4822.362777,1014.556782,-1071.984525,-10164.710405
4822.365330,689.132909,-535.992262,-9571.290400
4822.367884,-1033.699363,3024.527766,-9245.866526
4822.370437,631.705166,-7599.604578,-11657.831707
4822.372991,2143.969050,2220.539373,-9226.723946
4822.375544,-2603.390989,7312.465866,-8652.446522
4822.378098,3560.520029,-7025.327154,-10872.985894
4822.380652,-2105.683888,10892.128475,-7752.745224
4822.383205,133.998066,-1378.265818,-10853.843314
4822.385759,-1569.691626,1952.543242,-9552.147819
4822.388312,1493.121302,-114.855485,-9954.142016
4822.390866,-1761.117434,-1780.260014,-9513.862658
4822.393419,1052.841944,-880.558717,-9934.999435
4822.395973,1225.125171,5187.639397,-9341.579430
4822.398526,-1818.545176,229.710970,-9839.286531
4822.401080,-1014.556782,2756.531635,-9762.716208
4822.403634,-1416.550979,2947.957443,-9399.007173
4822.406187,1301.695494,-1205.982590,-9743.573627
4822.408741,1167.697429,2297.109696,-9724.431046
4822.411294,-440.279358,-574.277424,-10049.854920
4822.413848,-995.414202,2067.398726,-9322.436850
4822.416401,-382.851616,1990.828403,-9705.288466
4822.418955,344.566454,133.998066,-9781.858789
4822.421509,153.140646,765.703232,-9418.149754
4822.424063,1052.841944,1091.127106,-9973.284597
4822.426617,-727.418070,708.275490,-9781.858789
4822.429171,76.570323,2316.252277,-9265.009107
4822.431725,-1033.699363,1110.269686,-9896.714274
4822.434279,1052.841944,-1473.978722,-10068.997501
4822.436834,-2143.969050,3847.658741,-9035.298138
4822.439388,-2335.394858,631.705166,-10356.136213
4822.441942,2890.529701,-2201.396792,-10260.423309
4822.444496,-746.560651,8748.159426,-8231.309744
4822.447050,2009.970984,1971.685822,-10011.569758
4822.449604,-2641.676150,2124.826469,-8901.300072
4822.452158,2565.105827,-3101.098090,-10547.562021
4822.454712,-3751.945837,1914.258080,-9686.145885
4822.457266,2086.541307,-5340.780043,-10604.989763
4822.459820,2182.254211,8901.300072,-8193.024582
4822.462375,-918.843878,1071.984525,-9973.284597
4822.464929,4019.941968,-5666.203917,-10585.847182
4822.467483,2565.105827,4919.643266,-9341.579430
4822.470037,-2565.105827,-1569.691626,-10030.712339
4822.472591,976.271621,-4517.649069,-10183.852986
4822.475145,3522.234867,1493.121302,-9839.286531
4822.477699,937.986459,-727.418070,-9686.145885
4822.480253,3713.660675,555.134843,-9456.434915
4822.482807,-1071.984525,4115.654872,-9131.011042
4822.485362,-1837.687757,-1875.972918,-10547.562021
4822.487916,3560.520029,-861.416136,-10183.852986
4822.490470,191.425808,3235.096155,-8575.876198
4822.493024,1071.984525,-3426.521963,-10375.278794
4822.495578,1282.552914,1703.689691,-9360.722011
4822.498132,516.849682,976.271621,-9762.716208
4822.500686,1339.980656,-2277.967115,-10547.562021
4822.503240,1914.258080,2067.398726,-9245.866526
4822.505794,210.568389,555.134843,-9475.577496
4822.508348,-114.855485,-382.851616,-10068.997501
4822.510903,765.703232,1703.689691,-9437.292334
4822.513457,1531.406464,421.136778,-9877.571693
4822.516011,976.271621,-133.998066,-9590.432981
4822.518565,2316.252277,229.710970,-9609.575562
4822.521119,2297.109696,-631.705166,-10107.282662
4822.523613,-344.566454,2699.103893,-9533.005238
4822.526107,2833.101958,-3177.668413,-10509.276859
4822.528601,2431.107762,-497.707101,-9265.009107
4822.531096,-3311.666478,2220.539373,-9188.438784
4822.533590,2660.818731,-6891.329088,-11466.405899
4822.536084,0.000000,3235.096155,-9092.725880
4822.538578,3751.945837,95.712904,-10126.425243
4822.541072,-2258.824534,6259.623922,-8193.024582
4822.543566,3349.951640,-2813.959378,-9992.427178
4822.546060,1033.699363,3349.951640,-9150.153622
4822.548555,-1473.978722,-1282.552914,-10298.708470
4822.551049,2871.387120,-6833.901346,-11408.978157
4822.553543,-2565.105827,10394.421374,-7618.747158
4822.556037,-842.273555,-2890.529701,-10145.567824
4822.558531,1588.834206,5436.492947,-9169.296203
4822.561025,57.427742,3905.086483,-9781.858789
4822.563519,-1665.404530,-918.843878,-10126.425243
4822.566013,803.988394,-880.558717,-10030.712339
4822.568508,-1856.830338,995.414202,-9494.720077
4822.571002,2526.820666,-4134.797453,-10700.702667
4822.573496,957.129040,5225.924558,-8977.870395
4822.575990,-1837.687757,1646.261949,-9399.007173
4822.578484,-1722.832272,3388.236802,-9743.573627
4822.580978,-937.986459,3024.527766,-9609.575562
4822.583472,1646.261949,-2067.398726,-9858.429112
4822.585967,1339.980656,2411.965181,-9571.290400
4822.588461,114.855485,1320.838075,-9533.005238
4822.590955,-1225.125171,612.562586,-9762.716208
4822.593449,708.275490,1512.263883,-9896.714274
4822.595943,1225.125171,555.134843,-9418.149754
4822.598437,210.568389,899.701298,-9399.007173
4822.600931,-765.703232,842.273555,-10107.282662
4822.603426,-612.562586,1799.402595,-9552.147819
4822.605920,1110.269686,1454.836141,-9533.005238
4822.608414,-2105.683888,727.418070,-9667.003304
4822.610908,-1665.404530,689.132909,-9743.573627
4822.613402,2124.826469,2641.676150,-9724.431046
4822.615896,-1167.697429,4173.082614,-9379.864592
4822.618390,497.707101,-401.994197,-10604.989763
4822.620885,2411.965181,2086.541307,-9686.145885
4822.623394,-3713.660675,6202.196179,-8097.311678
4822.625903,995.414202,-5149.354235,-10892.128475
4822.628412,95.712904,3005.385186,-9609.575562
4822.630921,-2871.387120,-1493.121302,-10509.276859
4822.633430,2928.814862,-4039.084549,-10681.560086
4822.635939,3215.953574,8748.159426,-8001.598774
4822.638448,-2086.541307,2316.252277,-9035.298138
4822.640958,2565.105827,-5895.914886,-10911.271056
4822.643467,-1722.832272,8288.737486,-8441.878133
4822.645976,2526.820666,-7312.465866,-11447.263318
4822.648485,669.990328,0.000000,-9284.151688
4822.650994,1339.980656,-535.992262,-9667.003304
4822.653503,3005.385186,-2737.389054,-10279.565890
4822.656012,-1225.125171,5934.200048,-8863.014910
4822.658521,-1435.693560,1186.840010,-9839.286531
4822.661031,4307.080680,-3809.373579,-9992.427178
4822.663540,1588.834206,3062.812928,-8843.872330
4822.666049,248.853550,-2756.531635,-10432.706536
4822.668558,1014.556782,-153.140646,-9724.431046
4822.671067,-38.285162,1971.685822,-9686.145885
4822.673576,1531.406464,-1875.972918,-10260.423309
4822.676085,1741.974853,2986.242605,-9016.155557
4822.678594,191.425808,-727.418070,-9896.714274
4822.681104,478.564520,574.277424,-9762.716208
4822.683613,2029.113565,1569.691626,-9513.862658
4822.686122,1454.836141,-727.418070,-10336.993632
4822.688631,1741.974853,-421.136778,-9379.864592
4822.691140,76.570323,1588.834206,-9169.296203
4822.693649,2794.816797,-1473.978722,-10470.991698
4822.696158,1933.400661,1627.119368,-9628.718142
4822.698667,-76.570323,-3445.664544,-10030.712339
4822.701177,38.285162,-95.712904,-9437.292334
4822.703698,842.273555,1454.836141,-9437.292334
4822.706219,478.564520,191.425808,-9858.429112
4822.708740,2641.676150,-2124.826469,-10738.987829
4822.711261,1129.412267,3101.098090,-9092.725880
4822.713782,-1186.840010,95.712904,-9341.579430
4822.716303,3847.658741,-5283.352301,-10853.843314
4822.718825,-2928.814862,9628.718142,-7771.887805
4822.721346,-1818.545176,-6144.768437,-11236.694930
4822.723867,3081.955509,19.142581,-10375.278794
4822.726388,-2526.820666,8786.444587,-8173.882002
4822.728909,1818.545176,-4862.215523,-10777.272990
4822.731430,-1186.840010,3522.234867,-9437.292334
4822.733951,1493.121302,803.988394,-9954.142016
4822.736473,421.136778,-861.416136,-9418.149754
4822.738994,-861.416136,4766.502619,-8863.014910
4822.741515,1244.267752,-4211.367776,-10892.128475
4822.744036,1186.840010,784.845813,-9667.003304
4822.746557,-2545.963246,4173.082614,-9552.147819
4822.749078,-1914.258080,1799.402595,-9743.573627
4822.751599,708.275490,4479.363907,-8901.300072
4822.754120,1473.978722,-1052.841944,-10030.712339
4822.756642,421.136778,172.283227,-9705.288466
4822.759163,-937.986459,2507.678085,-9647.860723
4822.761684,-765.703232,765.703232,-9973.284597
4822.764205,1033.699363,593.420005,-9552.147819
4822.766726,612.562586,937.986459,-9533.005238
4822.769247,-803.988394,765.703232,-9762.716208
4822.771768,593.420005,1148.554848,-9839.286531
4822.774290,-2545.963246,2411.965181,-9724.431046
4822.776811,-1627.119368,210.568389,-9858.429112
4822.779332,-1512.263883,3043.670347,-9245.866526
4822.781853,2258.824534,-1780.260014,-10183.852986
4822.784374,0.000000,4977.071008,-9054.440718
4822.786895,708.275490,4575.076811,-9877.571693
4822.789416,-1895.115499,1186.840010,-9552.147819
4822.791938,2718.246474,-4555.934230,-10681.560086
4822.794459,-3158.525832,4670.789715,-8882.157491
4822.796980,1454.836141,-6795.616184,-11064.411702
4822.799501,2833.101958,5513.063270,-9245.866526
4822.802022,-1359.123237,3905.086483,-9111.868461
4822.804552,4651.647134,-7637.889739,-10432.706536
4822.807082,-1646.261949,9226.723946,-8403.592971
4822.809612,267.996131,-6029.912952,-11370.692995
4822.812142,976.271621,2239.681954,-9111.868461
4822.814673,2852.244539,-133.998066,-10068.997501
4822.817203,478.564520,-497.707101,-9322.436850
4822.819733,3598.805190,172.283227,-9437.292334
4822.822263,-803.988394,3024.527766,-9418.149754
4822.824793,-899.701298,-3139.383251,-10700.702667
4822.827323,708.275490,2947.957443,-9781.858789
4822.829853,2871.387120,-2239.681954,-9896.714274
4822.832383,2105.683888,210.568389,-9016.155557
4822.834913,229.710970,1359.123237,-9590.432981
4822.837443,459.421939,-1378.265818,-10317.851051
4822.839973,0.000000,2201.396792,-9743.573627
4822.842504,1818.545176,-669.990328,-9973.284597
4822.845034,918.843878,1359.123237,-8958.727814
4822.847564,861.416136,-95.712904,-9992.427178
4822.850094,-497.707101,746.560651,-9915.856854
4822.852624,2258.824534,478.564520,-9820.143950
4822.855154,1761.117434,-842.273555,-10068.997501
4822.857684,1493.121302,976.271621,-9111.868461
4822.860214,2833.101958,-459.421939,-9743.573627
4822.862744,3713.660675,-2105.683888,-10126.425243
4822.865274,-2009.970984,3790.230998,-9111.868461
4822.867804,229.710970,-3311.666478,-10049.854920
4822.870335,574.277424,-2526.820666,-9915.856854
4822.872865,4728.217458,-248.853550,-10451.849117
4822.875395,-1435.693560,5034.498750,-9016.155557
4822.877925,3885.943902,-2928.814862,-10413.563955
4822.880455,-2124.826469,6355.336826,-8652.446522
4822.882985,-1895.115499,-6259.623922,-10604.989763
4822.885515,2909.672282,-1588.834206,-10164.710405
4822.888045,-2756.531635,9590.432981,-8116.454259
4822.890575,-1320.838075,-1359.123237,-10011.569758
4822.893105,957.129040,3177.668413,-9590.432981
4822.895635,-382.851616,5340.780043,-9092.725880
4822.898166,-2297.109696,-669.990328,-9820.143950
4822.900696,1110.269686,-19.142581,-10547.562021
4822.903226,-38.285162,-1186.840010,-9781.858789
4822.905763,574.277424,2411.965181,-8958.727814
4822.908301,306.281293,3330.809059,-9590.432981
4822.910839,1167.697429,-2201.396792,-10011.569758
4822.913377,-2852.244539,2699.103893,-9858.429112
4822.915914,-497.707101,2775.674216,-10126.425243
4822.918452,344.566454,631.705166,-9399.007173
4822.920990,1722.832272,765.703232,-9379.864592
4822.923528,574.277424,459.421939,-9839.286531
4822.926066,-689.132909,612.562586,-9954.142016
4822.928603,-421.136778,1569.691626,-9820.143950
4822.931141,669.990328,535.992262,-9705.288466
4822.933679,574.277424,746.560651,-9418.149754
4822.936217,-306.281293,478.564520,-9896.714274
4822.938754,-2067.398726,2794.816797,-9475.577496
4822.941292,-2392.822600,1856.830338,-9667.003304
4822.943830,1550.549045,689.132909,-9590.432981
4822.946368,172.283227,1454.836141,-9379.864592
4822.948905,-344.566454,1569.691626,-10202.995566
4822.951443,1416.550979,2871.387120,-10030.712339
4822.953981,-3349.951640,7657.032320,-8078.169098
4822.956519,3120.240670,-4421.936165,-10643.274925
4822.959056,-2316.252277,4211.367776,-8824.729749
4822.961594,0.000000,-5455.635528,-10930.413637
4822.964132,3235.096155,-6508.477472,-11370.692995
4822.966670,-612.562586,11600.403965,-7561.319416
4822.969207,153.140646,-5149.354235,-10853.843314
4822.971745,3101.098090,880.558717,-9513.862658
4822.974283,-1205.982590,3560.520029,-9131.011042
4822.976821,727.418070,-5781.059402,-11179.267187
4822.979358,3426.521963,1301.695494,-9743.573627
4822.981896,612.562586,325.423874,-9169.296203
4822.984434,3637.090352,-823.130974,-9686.145885
4822.986972,-631.705166,6106.483275,-8518.448456
4822.989510,-708.275490,-1052.841944,-10604.989763
4822.992047,1282.552914,478.564520,-10183.852986
4822.994585,3292.523898,-1320.838075,-9686.145885
4822.997123,1741.974853,-1186.840010,-9437.292334
4822.999661,57.427742,1799.402595,-9533.005238
4823.002198,133.998066,-1091.127106,-10145.567824
4823.004736,401.994197,1818.545176,-9801.001370
4823.007280,1703.689691,-784.845813,-10107.282662
4823.009824,1722.832272,593.420005,-9245.866526
4823.012369,-191.425808,421.136778,-9915.856854
4823.014913,708.275490,325.423874,-9973.284597
4823.017457,459.421939,1071.984525,-9628.718142
4823.020001,4402.793584,-1550.549045,-10279.565890
4823.022545,3081.955509,344.566454,-9150.153622
4823.025089,937.986459,-1741.974853,-9915.856854
4823.027633,-2258.824534,2163.111630,-9724.431046
4823.030178,172.283227,-1665.404530,-9839.286531
4823.032722,918.843878,-2871.387120,-9973.284597
4823.035266,5895.914886,-5206.781978,-11045.269122
4823.037810,-1588.834206,7178.467800,-8231.309744
4823.040354,555.134843,-3292.523898,-10585.847182
4823.042898,2258.824534,3445.664544,-9188.438784
4823.045443,-784.845813,3273.381317,-9207.581365
4823.047987,3043.670347,-9494.720077,-11925.827838
4823.050531,-1167.697429,9188.438784,-7733.602643
4823.053075,-1359.123237,-1741.974853,-10049.854920
4823.055619,421.136778,3675.375514,-9801.001370
4823.058163,-248.853550,4766.502619,-9399.007173
4823.060708,-1799.402595,957.129040,-10030.712339
4823.063252,1397.408398,-1703.689691,-10011.569758
4823.065796,-746.560651,-363.709035,-9609.575562
4823.068340,976.271621,-631.705166,-10241.280728
4823.070884,-574.277424,5206.781978,-9245.866526
4823.073428,861.416136,-957.129040,-9667.003304
4823.075972,-880.558717,2565.105827,-9647.860723
4823.078517,-2986.242605,3158.525832,-9896.714274
4823.081061,191.425808,-344.566454,-9858.429112
4823.083605,1531.406464,1818.545176,-9456.434915
4823.086149,267.996131,1110.269686,-9743.573627
4823.088693,-650.847747,-287.138712,-10088.140082
4823.091237,-210.568389,1473.978722,-9418.149754
4823.093782,1301.695494,440.279358,-9399.007173
4823.096326,-574.277424,1091.127106,-9839.286531
4823.098870,-555.134843,2124.826469,-9992.427178
4823.101414,-2775.674216,2297.109696,-9322.436850
4823.103958,0.000000,172.283227,-9647.860723
4823.106502,-306.281293,1378.265818,-9456.434915
4823.109009,-172.283227,631.705166,-10719.845248
4823.111516,3024.527766,1205.982590,-10317.851051
4823.114023,-3292.523898,8690.731683,-7733.602643
4823.116531,1933.400661,-4613.361973,-10662.417506
4823.119038,-1799.402595,4249.652938,-8882.157491
4823.121545,-1665.404530,-3120.240670,-10719.845248
4823.124052,2584.248408,-1607.976787,-10394.421374
4823.126559,-555.134843,9131.011042,-7829.315547
4823.129066,4326.223261,-8709.874264,-11332.407834
4823.131573,2105.683888,-2201.396792,-10030.712339
4823.134080,-1339.980656,6278.766502,-8824.729749
4823.136587,1129.412267,-6776.473603,-11676.974288
4823.139094,3483.949706,478.564520,-9609.575562
4823.141601,784.845813,918.843878,-8997.012976
4823.144108,3388.236802,-1416.550979,-9801.001370
4823.146615,-1014.556782,4039.084549,-8939.585234
4823.149122,-76.570323,-3483.949706,-10911.271056
4823.151629,191.425808,2833.101958,-9954.142016
4823.154136,3732.803256,-421.136778,-9571.290400
4823.156643,1378.265818,-1263.410333,-9322.436850
4823.159150,267.996131,-555.134843,-9915.856854
4823.161657,-95.712904,1129.412267,-10145.567824
4823.164164,-153.140646,1033.699363,-10088.140082
4823.166671,1971.685822,229.710970,-9494.720077
4823.169178,1473.978722,689.132909,-9265.009107
4823.171685,0.000000,401.994197,-10107.282662
4823.174192,210.568389,1703.689691,-9858.429112
4823.176700,3771.088418,-1895.115499,-10068.997501
4823.179207,3924.229064,76.570323,-9590.432981
4823.181714,1416.550979,-516.849682,-9590.432981
4823.184221,-1818.545176,1071.984525,-9609.575562
4823.186728,267.996131,-1895.115499,-9973.284597
4823.189235,229.710970,-803.988394,-10126.425243
4823.191742,5513.063270,-5532.205851,-11121.839445
4823.194249,-1856.830338,7025.327154,-8193.024582
4823.196756,1493.121302,-3675.375514,-10432.706536
4823.199263,1244.267752,4938.785846,-8671.589102
4823.201770,-823.130974,1320.838075,-9820.143950
4823.204277,2718.246474,-7733.602643,-11772.687192
4823.206784,-3139.383251,10413.563955,-7503.891674
4823.209303,210.568389,-4096.512291,-10107.282662
4823.211823,344.566454,4881.358104,-9571.290400
4823.214342,-287.138712,7580.461997,-8575.876198
4823.216862,-2335.394858,631.705166,-10126.425243
4823.219381,1512.263883,-1799.402595,-10470.991698
4823.221900,765.703232,-38.285162,-9284.151688
4823.224420,-823.130974,2928.814862,-9284.151688
4823.226939,-574.277424,2488.535504,-10164.710405
4823.229459,1454.836141,-1703.689691,-9877.571693
4823.231978,-650.847747,2833.101958,-9418.149754
4823.234497,-1416.550979,478.564520,-10222.138147
4823.237017,-1282.552914,3062.812928,-9035.298138
4823.239536,2029.113565,459.421939,-10030.712339
4823.242055,191.425808,1665.404530,-9226.723946
4823.244575,229.710970,516.849682,-9820.143950
4823.247094,306.281293,459.421939,-9973.284597
4823.249614,-363.709035,1818.545176,-8997.012976
4823.252133,-38.285162,1186.840010,-9839.286531
4823.254652,-1378.265818,2124.826469,-9992.427178
4823.257172,-1722.832272,1359.123237,-9590.432981
4823.259691,172.283227,-1454.836141,-9915.856854
4823.262211,-1244.267752,3215.953574,-9954.142016
4823.264730,2297.109696,4881.358104,-9667.003304
4823.267249,-1722.832272,6431.907149,-8805.587168
4823.269769,3483.949706,-2699.103893,-10470.991698
4823.272288,-3943.371645,3905.086483,-8556.733618
4823.274807,-133.998066,-7063.612315,-10872.985894
4823.277327,689.132909,6049.055533,-9092.725880
4823.279846,172.283227,76.570323,-10202.995566
4823.282366,4498.506488,-5474.778109,-10451.849117
4823.284885,-2699.103893,9820.143950,-7982.456194
4823.287404,-1933.400661,-1531.406464,-9820.143950
4823.289924,229.710970,-1435.693560,-10049.854920
4823.292443,3617.947771,1167.697429,-10260.423309
4823.294963,593.420005,0.000000,-9092.725880
4823.297482,2048.256146,-133.998066,-9724.431046
4823.300001,1339.980656,-3388.236802,-10394.421374
4823.302521,-363.709035,440.279358,-9494.720077
4823.305040,-1167.697429,4517.649069,-9839.286531
4823.307560,2048.256146,-727.418070,-10183.852986
4823.310089,4287.938099,-2392.822600,-9207.581365
4823.312619,1129.412267,1473.978722,-9245.866526
4823.315149,-1301.695494,-1301.695494,-10375.278794
4823.317679,880.558717,1990.828403,-9992.427178
4823.320208,1225.125171,0.000000,-10183.852986
4823.322738,1359.123237,287.138712,-8977.870395
4823.325268,-153.140646,1320.838075,-9379.864592
4823.327798,1569.691626,-1339.980656,-10547.562021
4823.330328,2029.113565,1263.410333,-9494.720077
4823.332858,3866.801322,-1799.402595,-10164.710405
4823.335387,-1033.699363,153.140646,-9781.858789
4823.337917,1684.547110,-3292.523898,-10164.710405
4823.340447,1454.836141,1186.840010,-8920.442653
4823.342977,-133.998066,2105.683888,-9456.434915
4823.345507,3426.521963,-4766.502619,-11217.552349
4823.348037,-133.998066,3694.518094,-8997.012976
4823.350566,-784.845813,-2258.824534,-9973.284597
4823.353096,4173.082614,344.566454,-9379.864592
4823.355626,-2526.820666,9513.862658,-8556.733618
4823.358156,899.701298,-9341.579430,-12174.681389
4823.360686,2565.105827,-2411.965181,-10394.421374
4823.363216,-2488.535504,7599.604578,-8269.594906
4823.365745,1339.980656,-5436.492947,-10968.698798
4823.368275,-95.712904,7925.028451,-8595.018779
4823.370805,-1378.265818,3445.664544,-9705.288466
4823.373335,784.845813,-2105.683888,-9954.142016
4823.375865,-325.423874,191.425808,-9437.292334
4823.378394,114.855485,440.279358,-9915.856854
4823.380924,-765.703232,3445.664544,-9245.866526
4823.383454,976.271621,1780.260014,-9705.288466
4823.385984,-153.140646,899.701298,-9590.432981
4823.388514,-1282.552914,2545.963246,-9379.864592
4823.391044,-497.707101,1129.412267,-9839.286531
4823.393573,1014.556782,784.845813,-9628.718142
4823.396103,306.281293,746.560651,-9686.145885
4823.398633,38.285162,957.129040,-9571.290400
4823.401163,-267.996131,344.566454,-9743.573627
4823.403693,-842.273555,1895.115499,-9207.581365
4823.406223,-861.416136,1952.543242,-9858.429112
4823.408752,1397.408398,344.566454,-9877.571693
4823.411290,-2411.965181,2545.963246,-9207.581365
4823.413828,-1703.689691,-19.142581,-10126.425243
4823.416366,2354.537438,3388.236802,-9724.431046
4823.418903,-1952.543242,8135.596840,-8518.448456
4823.421441,3924.229064,-2469.392923,-10662.417506
4823.423979,-3196.810994,3713.660675,-8767.302006
4823.426517,-38.285162,-6489.334891,-10566.704602
4823.429054,-880.558717,5800.201982,-9054.440718
4823.431592,-363.709035,6967.899411,-8671.589102
4823.434130,6680.760699,-8767.302006,-11600.403965
4823.436668,669.990328,7657.032320,-8441.878133
4823.439206,-1761.117434,-2469.392923,-9992.427178
4823.441743,114.855485,-267.996131,-9743.573627
4823.444281,3273.381317,1416.550979,-10202.995566
4823.446819,382.851616,-784.845813,-9322.436850
4823.449357,1952.543242,-191.425808,-9705.288466
4823.451894,2756.531635,-4555.934230,-10509.276859
4823.454432,-574.277424,2163.111630,-8997.012976
4823.456970,-1091.127106,4134.797453,-9954.142016
4823.459508,1741.974853,-210.568389,-9858.429112
4823.462045,3809.373579,803.988394,-8901.300072
4823.464583,2182.254211,-1454.836141,-9705.288466
4823.467121,-1301.695494,306.281293,-9571.290400
4823.469659,1167.697429,1186.840010,-10260.423309
4823.472196,1167.697429,516.849682,-10107.282662
4823.474734,631.705166,842.273555,-8939.585234
4823.477272,1588.834206,-957.129040,-9647.860723
4823.479810,1588.834206,-229.710970,-10068.997501
4823.482347,2737.389054,861.416136,-9839.286531
4823.484885,-229.710970,-459.421939,-10202.995566
4823.487423,2526.820666,-1282.552914,-9686.145885
4823.489961,1684.547110,1225.125171,-8499.305875
4823.492498,-535.992262,-1359.123237,-9781.858789
4823.495036,3675.375514,-5474.778109,-11810.972354
4823.497574,-2411.965181,5627.918755,-8748.159426
4823.500112,2928.814862,-3598.805190,-10413.563955
4823.502649,1263.410333,6833.901346,-8116.454259
4823.505187,-1627.119368,8537.591037,-8116.454259
4823.507725,1703.689691,-9379.864592,-12366.107197
4823.510263,-191.425808,7025.327154,-8537.591037
4823.512807,-1761.117434,-497.707101,-9743.573627
4823.515352,497.707101,669.990328,-9647.860723
4823.517897,708.275490,5704.489078,-8843.872330
4823.520442,-1914.258080,689.132909,-9934.999435
4823.522986,765.703232,-401.994197,-11064.411702
4823.525531,1033.699363,957.129040,-9131.011042
4823.528076,-2756.531635,3790.230998,-8537.591037
4823.530621,-153.140646,344.566454,-9954.142016
4823.533165,1550.549045,708.275490,-9513.862658
4823.535710,-421.136778,2316.252277,-9839.286531
4823.538255,-957.129040,57.427742,-10049.854920
4823.540799,-650.847747,2756.531635,-8997.012976
4823.543344,153.140646,708.275490,-9934.999435
4823.545889,440.279358,421.136778,-9896.714274
4823.548434,191.425808,976.271621,-9552.147819
4823.550978,-229.710970,478.564520,-10030.712339
4823.553523,-1320.838075,1531.406464,-9341.579430
4823.556068,-995.414202,2143.969050,-9743.573627
4823.558613,555.134843,-1454.836141,-10222.138147
4823.561157,-2009.970984,3522.234867,-8901.300072
4823.563702,-3043.670347,3828.516160,-9781.858789
4823.566247,2163.111630,-1033.699363,-10451.849117
4823.568791,-19.142581,8173.882002,-8575.876198
4823.571336,1799.402595,-1378.265818,-10336.993632
4823.573881,-2163.111630,3541.377448,-8403.592971
4823.576426,-4766.502619,3579.662610,-8997.012976
4823.578970,5264.209720,-8327.022648,-11868.400096
4823.581515,3139.383251,8461.020714,-8346.165229
4823.584060,-459.421939,-287.138712,-9820.143950
4823.586605,2201.396792,-3292.523898,-9801.001370
4823.589149,-1952.543242,6872.186507,-8403.592971
4823.591694,1722.832272,-3273.381317,-10968.698798
4823.594239,421.136778,-2163.111630,-10183.852986
4823.596783,1895.115499,1320.838075,-9399.007173
4823.599328,3981.656806,-1933.400661,-9647.860723
4823.601873,-650.847747,4000.799387,-8499.305875
4823.604418,0.000000,-2163.111630,-10815.558152
4823.606962,-95.712904,1186.840010,-10222.138147
4823.609507,1301.695494,823.130974,-9494.720077
4823.612052,3196.810994,-1071.984525,-9628.718142
4823.614603,650.847747,478.564520,-9322.436850
4823.617153,-153.140646,765.703232,-9992.427178
4823.619704,478.564520,1052.841944,-10260.423309
4823.622255,918.843878,-229.710970,-10011.569758
4823.624806,1933.400661,631.705166,-8901.300072
4823.627357,2277.967115,-1148.554848,-9590.432981
4823.629907,2105.683888,95.712904,-9896.714274
4823.632458,-1569.691626,2048.256146,-9934.999435
4823.635009,3177.668413,-3598.805190,-10719.845248
4823.637560,2545.963246,1473.978722,-8269.594906
4823.640111,19.142581,2469.392923,-9073.583299
4823.642661,1722.832272,-5455.635528,-11083.554283
4823.645212,-478.564520,4421.936165,-9494.720077
4823.647763,-19.142581,-1684.547110,-10394.421374
4823.650314,4268.795518,-535.992262,-9245.866526
4823.652865,-1493.121302,9590.432981,-7848.458128
4823.655415,669.990328,-9169.296203,-11944.970419
4823.657966,440.279358,6049.055533,-8939.585234
4823.660517,-1569.691626,1263.410333,-10183.852986
4823.663068,57.427742,-669.990328,-10643.274925
4823.665619,976.271621,7216.752962,-8173.882002
4823.668169,-2277.967115,3598.805190,-9513.862658
4823.670720,325.423874,-2679.961312,-10413.563955
4823.673271,612.562586,1378.265818,-9513.862658
4823.675822,-2297.109696,2947.957443,-9647.860723
4823.678373,114.855485,-1493.121302,-10049.854920
4823.680923,1588.834206,2526.820666,-9035.298138
4823.683474,-267.996131,1397.408398,-10126.425243
4823.686025,-229.710970,593.420005,-9858.429112
4823.688576,-1263.410333,2775.674216,-9647.860723
4823.691127,957.129040,-574.277424,-9992.427178
4823.693677,38.285162,1186.840010,-9322.436850
4823.696228,574.277424,1301.695494,-9915.856854
4823.698779,-669.990328,765.703232,-9954.142016
4823.701330,-1473.978722,2526.820666,-9111.868461
4823.703881,669.990328,-555.134843,-10164.710405
4823.706431,-2679.961312,2833.101958,-9284.151688
4823.708982,-2622.533570,2067.398726,-9513.862658
4823.711533,3215.953574,95.712904,-10145.567824
4823.714084,-95.712904,7791.030386,-8786.444587
4823.716639,1990.828403,-382.851616,-10241.280728
4823.719194,-2679.961312,4230.510357,-8231.309744
4823.721749,-2143.969050,-3541.377448,-10413.563955
4823.724304,1933.400661,-1761.117434,-10375.278794
4823.726859,-746.560651,7637.889739,-8575.876198
4823.729414,6106.483275,-8575.876198,-11696.116869
4823.731969,1665.404530,6431.907149,-8461.020714
4823.734524,-1550.549045,-1110.269686,-9341.579430
4823.737079,172.283227,-5991.627790,-11562.118803
4823.739634,3962.514226,535.992262,-9954.142016
4823.742189,1129.412267,2469.392923,-8920.442653
4823.744744,1359.123237,-1148.554848,-9820.143950
4823.747300,2545.963246,-2411.965181,-9858.429112
4823.749855,133.998066,153.140646,-9475.577496
4823.752410,-1148.554848,2105.683888,-10413.563955
4823.754965,1339.980656,708.275490,-9896.714274
4823.757520,2067.398726,1531.406464,-8805.587168
4823.760075,2507.678085,-1799.402595,-9934.999435
4823.762630,-95.712904,287.138712,-9475.577496
4823.765185,267.996131,1110.269686,-10202.995566
4823.767740,1741.974853,-382.851616,-10356.136213
4823.770295,1225.125171,880.558717,-8977.870395
4823.772850,2641.676150,-1205.982590,-9686.145885
4823.775405,2067.398726,-153.140646,-9896.714274
4823.777960,-344.566454,3177.668413,-9667.003304
4823.780515,1952.543242,-2909.672282,-10432.706536
4823.783070,3311.666478,-3503.092286,-9571.290400
4823.785625,1397.408398,-1665.404530,-9954.142016
4823.788180,-1856.830338,1473.978722,-9494.720077
4823.790736,1263.410333,-669.990328,-10241.280728
4823.793291,19.142581,6010.770371,-9169.296203
4823.795846,4785.645200,-6412.764568,-11026.126541
4823.798401,-746.560651,8135.596840,-7542.176835
4823.800956,-3292.523898,-344.566454,-10011.569758
4823.803511,2009.970984,-3617.947771,-11026.126541
4823.806066,-2737.389054,8595.018779,-8729.016845
4823.808621,1435.693560,-4670.789715,-11026.126541
4823.811176,-1186.840010,1741.974853,-8824.729749
4823.813731,1148.554848,4804.787781,-8863.014910
4823.816286,-229.710970,-1033.699363,-10451.849117
4823.818845,-497.707101,746.560651,-9743.573627
4823.821404,-1435.693560,2775.674216,-9705.288466
4823.823962,-363.709035,-19.142581,-9858.429112
4823.826521,1684.547110,1378.265818,-9284.151688
4823.829080,401.994197,1799.402595,-9513.862658
4823.831639,-1148.554848,440.279358,-10145.567824
4823.834197,19.142581,1818.545176,-9781.858789
4823.836756,1722.832272,650.847747,-9781.858789
4823.839315,-1033.699363,1091.127106,-9762.716208
4823.841874,784.845813,1014.556782,-9399.007173
4823.844432,-1167.697429,2182.254211,-9801.001370
4823.846991,-172.283227,-995.414202,-10279.565890
4823.849550,-3139.383251,4383.651003,-8824.729749
4823.852109,-2641.676150,555.134843,-10011.569758
4823.854668,3349.951640,-153.140646,-9954.142016
4823.857226,-1205.982590,10470.991698,-8173.882002
4823.859785,1722.832272,842.273555,-10317.851051
4823.862344,-3024.527766,4153.940034,-8327.022648
4823.864903,-746.560651,-4689.932296,-10624.132344
4823.867461,1320.838075,1071.984525,-9705.288466
4823.870020,-19.142581,3847.658741,-9188.438784
4823.872579,7465.606512,-7886.743290,-11676.974288
4823.875138,-631.705166,8365.307810,-8288.737486
4823.877696,-880.558717,-4421.936165,-10183.852986
4823.880255,-57.427742,1033.699363,-9341.579430
4823.882814,3120.240670,1722.832272,-9877.571693
4823.885373,1244.267752,1837.687757,-8958.727814
4823.887931,784.845813,-1071.984525,-10011.569758
4823.890490,3751.945837,-4230.510357,-10222.138147
4823.893049,-306.281293,2699.103893,-8441.878133
4823.895608,-1205.982590,631.705166,-10643.274925
4823.898166,1167.697429,363.709035,-10260.423309
4823.900729,2048.256146,2392.822600,-8709.874264
4823.903291,1684.547110,-2411.965181,-10126.425243
4823.905853,1014.556782,-459.421939,-9877.571693
4823.908415,918.843878,1895.115499,-9705.288466
4823.910977,918.843878,229.710970,-10528.419440
4823.913539,1627.119368,-421.136778,-9571.290400
4823.916101,2258.824534,248.853550,-8997.012976
4823.918663,-574.277424,133.998066,-10030.712339
4823.921225,3330.809059,-1990.828403,-10758.130410
4823.923787,2239.681954,2029.113565,-9226.723946
4823.926349,-344.566454,-1473.978722,-9628.718142
4823.928911,4249.652938,-6776.473603,-10872.985894
4823.931473,-3062.812928,4785.645200,-8365.307810
4823.934035,1435.693560,-3732.803256,-11370.692995
4823.936597,2431.107762,4996.213589,-8958.727814
4823.939159,593.420005,3713.660675,-8977.870395
4823.941721,1722.832272,-7312.465866,-11045.269122
4823.944283,-4230.510357,9781.858789,-7561.319416
4823.946845,153.140646,-4249.652938,-10892.128475
4823.949407,306.281293,4594.219392,-9954.142016
4823.951969,1033.699363,2105.683888,-9896.714274
4823.954531,-2029.113565,-880.558717,-8882.157491
4823.957093,574.277424,2565.105827,-9858.429112
4823.959655,689.132909,2947.957443,-9092.725880
4823.962217,-2967.100024,1263.410333,-9896.714274
4823.964779,823.130974,555.134843,-10604.989763
4823.967341,-306.281293,4268.795518,-8499.305875
4823.969904,1091.127106,-650.847747,-9533.005238
4823.972466,593.420005,1435.693560,-10222.138147
4823.975028,-1761.117434,1703.689691,-9686.145885
4823.977590,210.568389,669.990328,-9686.145885
4823.980152,1397.408398,421.136778,-10107.282662
4823.982714,76.570323,1186.840010,-9150.153622
4823.985276,-191.425808,1512.263883,-9954.142016
4823.987838,-746.560651,-114.855485,-10126.425243
4823.990400,-3330.809059,3043.670347,-9341.579430
4823.992962,-3369.094221,2450.250342,-9820.143950
4823.995524,1818.545176,-516.849682,-9801.001370
4823.998086,1225.125171,5034.498750,-9552.147819
4824.000648,1473.978722,1875.972918,-9934.999435
4824.003182,-3790.230998,4804.787781,-8154.739421
4824.005716,-1799.402595,-4000.799387,-10738.987829
4824.008250,2105.683888,-593.420005,-10030.712339
4824.010783,-344.566454,5570.491013,-8441.878133
4824.013317,6833.901346,-9016.155557,-12251.251712
4824.015851,631.705166,7216.752962,-8461.020714
4824.018385,-1531.406464,4900.500685,-8537.591037
4824.020919,-133.998066,-5340.780043,-11351.550414
4824.023453,3771.088418,1282.552914,-9571.290400
4824.025987,1703.689691,2526.820666,-9073.583299
4824.028521,650.847747,-1320.838075,-10164.710405
4824.031054,3924.229064,-3637.090352,-9877.571693
4824.033588,-382.851616,2775.674216,-8537.591037
4824.036122,-727.418070,-937.986459,-11160.124606
4824.038656,1052.841944,995.414202,-9954.142016
4824.041190,1148.554848,2258.824534,-8729.016845
4824.043724,1473.978722,-2335.394858,-10049.854920
4824.046258,650.847747,1359.123237,-9226.723946
4824.048791,574.277424,784.845813,-10183.852986
4824.051325,1091.127106,210.568389,-10145.567824
4824.053859,2239.681954,153.140646,-9188.438784
4824.056393,516.849682,-210.568389,-9494.720077
4824.058927,2813.959378,-689.132909,-9896.714274
4824.061461,2392.822600,1339.980656,-9667.003304
4824.063995,287.138712,-4268.795518,-10451.849117
4824.066529,3847.658741,-6757.331022,-10509.276859
4824.069062,-2507.678085,3847.658741,-8614.161360
4824.071596,2641.676150,-2239.681954,-10528.419440
4824.074130,-248.853550,6680.760699,-9111.868461
4824.076664,4000.799387,-4900.500685,-10949.556218
4824.079198,669.990328,4575.076811,-8441.878133
4824.081732,-3158.525832,3388.236802,-9169.296203
4824.084266,3024.527766,-4996.213589,-10777.272990
4824.086800,-3617.947771,8882.157491,-8480.163294
4824.089333,1856.830338,-4077.369710,-11428.120738
4824.091867,-2124.826469,516.849682,-8920.442653
4824.094401,669.990328,4479.363907,-8977.870395
4824.096935,0.000000,19.142581,-10030.712339
4824.099469,172.283227,976.271621,-9609.575562
4824.102003,-2794.816797,3694.518094,-9877.571693
4824.104544,229.710970,-2009.970984,-10566.704602
4824.107085,1359.123237,3215.953574,-8824.729749
4824.109626,-555.134843,880.558717,-9552.147819
4824.112167,440.279358,-363.709035,-10317.851051
4824.114708,-344.566454,9150.153622,-9111.868461
4824.117249,-153.140646,-440.279358,-10317.851051
4824.119790,229.710970,1033.699363,-9169.296203
4824.122331,1397.408398,2622.533570,-9035.298138
4824.124872,-3292.523898,-210.568389,-10585.847182
4824.127413,-2335.394858,2469.392923,-9552.147819
4824.129954,-1837.687757,3943.371645,-9360.722011
4824.132495,1282.552914,-1895.115499,-10049.854920
4824.135036,1588.834206,5608.776174,-9475.577496
4824.137578,2009.970984,2967.100024,-9877.571693
4824.140119,-3751.945837,4364.508422,-8729.016845
4824.142660,-3694.518094,-1225.125171,-10011.569758
4824.145201,3369.094221,-3254.238736,-10375.278794
4824.147742,19.142581,6967.899411,-8652.446522
4824.150283,2718.246474,-7657.032320,-11906.685258
4824.152824,2316.252277,3062.812928,-8690.731683
4824.155365,-1435.693560,1493.121302,-8977.870395
4824.157906,-344.566454,-3215.953574,-10853.843314
4824.160447,3158.525832,2450.250342,-9705.288466
4824.162988,1416.550979,1512.263883,-8997.012976
4824.165529,765.703232,-1454.836141,-9609.575562
4824.168070,3771.088418,-2986.242605,-9628.718142
4824.170611,-38.285162,2488.535504,-8997.012976
4824.173152,-937.986459,-1225.125171,-10892.128475
4824.175693,1493.121302,803.988394,-9762.716208
4824.178234,842.273555,1856.830338,-8939.585234
4824.180775,1646.261949,-1780.260014,-10107.282662
4824.183316,689.132909,1244.267752,-9284.151688
4824.185858,593.420005,727.418070,-10011.569758
4824.188399,1646.261949,-210.568389,-9954.142016
4824.190940,1684.547110,555.134843,-9245.866526
4824.193481,2105.683888,459.421939,-9399.007173
4824.196022,2833.101958,-1071.984525,-9820.143950
4824.198563,3349.951640,-2928.814862,-10394.421374
4824.201104,-363.709035,2852.244539,-9169.296203
4824.203645,1205.982590,-5130.211654,-10222.138147
4824.206192,-555.134843,1110.269686,-9360.722011
4824.208740,2756.531635,-2641.676150,-11006.983960
4824.211287,2545.963246,4211.367776,-8997.012976
4824.213834,-3866.801322,10241.280728,-8135.596840
4824.216382,-1148.554848,-7408.178770,-11102.696864
4824.218929,1722.832272,3751.945837,-8882.157491
4824.221476,-1091.127106,3215.953574,-9896.714274
4824.224024,-210.568389,-2067.398726,-10509.276859
4824.226571,1110.269686,6623.332957,-8575.876198
4824.229118,-2163.111630,631.705166,-10030.712339
4824.231666,76.570323,-2258.824534,-10279.565890
4824.234213,535.992262,3847.658741,-8595.018779
4824.236760,-1033.699363,1071.984525,-10030.712339
4824.239308,-153.140646,1282.552914,-9781.858789
4824.241855,57.427742,4594.219392,-8786.444587
4824.244402,880.558717,-1225.125171,-9705.288466
4824.246950,842.273555,1473.978722,-9494.720077
4824.249497,-172.283227,1091.127106,-9992.427178
4824.252044,-823.130974,344.566454,-9973.284597
4824.254592,1703.689691,1416.550979,-9399.007173
4824.257139,823.130974,669.990328,-9303.294269
4824.259687,-2622.533570,1684.547110,-9647.860723
4824.262234,-3464.807125,2105.683888,-9934.999435
4824.264781,-57.427742,2431.107762,-9724.431046
4824.267329,-593.420005,2124.826469,-9456.434915
4824.269876,1550.549045,1359.123237,-10183.852986
4824.272423,2507.678085,2143.969050,-9724.431046
4824.274971,-3407.379382,6049.055533,-8307.880067
4824.277518,-3081.955509,-2335.394858,-10413.563955
4824.280065,2354.537438,-1741.974853,-10222.138147
4824.282613,-229.710970,6297.909083,-8633.303941
4824.285160,4307.080680,-9150.153622,-12098.111066
4824.287707,2316.252277,-2660.818731,-9456.434915
4824.290255,-1033.699363,5589.633594,-8652.446522
4824.292802,-669.990328,-4804.787781,-11485.548480
4824.295349,4077.369710,765.703232,-9647.860723
4824.297897,1627.119368,3426.521963,-8958.727814
4824.300444,918.843878,-1607.976787,-10126.425243
4824.302991,4689.932296,-1646.261949,-9418.149754
4824.305539,-803.988394,1531.406464,-8690.731683
4824.308091,-708.275490,-2297.109696,-11045.269122
4824.310644,1607.976787,1895.115499,-9533.005238
4824.313197,918.843878,1071.984525,-9284.151688
4824.315750,1665.404530,-1761.117434,-9781.858789
4824.318303,689.132909,1531.406464,-9322.436850
4824.320856,631.705166,708.275490,-10260.423309
4824.323409,1703.689691,-459.421939,-10183.852986
4824.325962,229.710970,1588.834206,-8882.157491
4824.328515,4364.508422,-1971.685822,-9781.858789
4824.331068,3732.803256,172.283227,-9915.856854
4824.333621,-1780.260014,-708.275490,-9494.720077
4824.336173,2239.681954,-8384.450390,-11198.409768
4824.338726,-2450.250342,1856.830338,-8709.874264
4824.341279,3656.232933,-1952.543242,-10604.989763
4824.343832,-133.998066,6451.049730,-8709.874264
4824.346385,2297.109696,-3694.518094,-10509.276859
4824.348938,976.271621,2258.824534,-9628.718142
4824.351491,-4077.369710,6202.196179,-8939.585234
4824.354044,3637.090352,-5876.772306,-10624.132344
4824.356597,-2928.814862,8748.159426,-8231.309744
4824.359150,1435.693560,574.277424,-10222.138147
4824.361703,-2124.826469,-995.414202,-9284.151688
4824.364256,-440.279358,4364.508422,-9494.720077
4824.366808,-248.853550,1014.556782,-9590.432981
4824.369361,784.845813,172.283227,-9303.294269
4824.371914,-2277.967115,3158.525832,-10088.140082
4824.374467,-38.285162,-363.709035,-10145.567824
4824.377020,880.558717,3675.375514,-8614.161360
4824.379573,287.138712,-1071.984525,-10049.854920
4824.382126,229.710970,1454.836141,-9705.288466
4824.384679,-229.710970,1301.695494,-9801.001370
4824.387232,191.425808,363.709035,-10049.854920
4824.389785,-172.283227,650.847747,-9016.155557
4824.392338,-1052.841944,3541.377448,-9150.153622
4824.394891,-2986.242605,363.709035,-10643.274925
4824.397444,-1473.978722,3330.809059,-9073.583299
4824.399996,-478.564520,1990.828403,-9513.862658
4824.402549,746.560651,1435.693560,-10394.421374
4824.405102,2584.248408,2297.109696,-9628.718142
4824.407655,-784.845813,4957.928427,-8729.016845
4824.410185,-4307.080680,1205.982590,-9418.149754
4824.412714,4000.799387,-4594.219392,-10566.704602
4824.415244,1110.269686,7274.180704,-8805.587168
4824.417774,382.851616,-6623.332957,-11370.692995
4824.420303,3292.523898,-6623.332957,-10604.989763
4824.422833,-1435.693560,7255.038123,-8154.739421
4824.425362,-842.273555,-4364.508422,-10777.272990
4824.427892,3560.520029,-1052.841944,-10145.567824
4824.430422,1339.980656,4498.506488,-8958.727814
4824.432951,1244.267752,-1569.691626,-9762.716208
4824.435481,4843.072942,-1856.830338,-9475.577496
4824.438011,-727.418070,2086.541307,-9092.725880
4824.440540,-1052.841944,-2679.961312,-10892.128475
4824.443070,1359.123237,2699.103893,-9667.003304
4824.445599,1741.974853,-248.853550,-9399.007173
4824.448129,401.994197,-574.277424,-9245.866526
4824.450659,1454.836141,1837.687757,-9724.431046
4824.453188,38.285162,612.562586,-10298.708470
4824.455718,76.570323,-631.705166,-9820.143950
4824.458247,4575.076811,325.423874,-9265.009107
4824.460777,3464.807125,-746.560651,-9647.860723
4824.463307,1722.832272,-3120.240670,-10030.712339
4824.465836,937.986459,1837.687757,-9399.007173
4824.468366,-516.849682,2909.672282,-8518.448456
4824.470896,-535.992262,-1091.127106,-9877.571693
4824.473425,1818.545176,-248.853550,-10126.425243
4824.475955,5206.781978,-2086.541307,-10202.995566
4824.478484,-4326.223261,8499.305875,-8193.024582
4824.481014,-2373.680019,-3981.656806,-10624.132344
4824.483544,2143.969050,3579.662610,-9207.581365
4824.486073,-1052.841944,2986.242605,-9781.858789
4824.488603,-114.855485,-2086.541307,-10413.563955
4824.491132,1493.121302,4326.223261,-9054.440718
4824.493662,-3120.240670,4479.363907,-9092.725880
4824.496192,-363.709035,-3962.514226,-10509.276859
4824.498721,535.992262,3235.096155,-9341.579430
4824.501251,-267.996131,267.996131,-9992.427178
4824.503781,-1914.258080,2565.105827,-9533.005238
4824.506310,-38.285162,2431.107762,-9552.147819
4824.508840,1129.412267,-210.568389,-9609.575562
4824.511378,593.420005,650.847747,-9609.575562
4824.513916,-248.853550,1607.976787,-9858.429112
4824.516454,516.849682,172.283227,-9705.288466
4824.518991,-478.564520,1186.840010,-9207.581365
4824.521529,-267.996131,1895.115499,-9571.290400
4824.524067,-2986.242605,2373.680019,-9973.284597
4824.526605,-114.855485,1397.408398,-9647.860723
4824.529143,-1933.400661,3005.385186,-9169.296203
4824.531681,-267.996131,1397.408398,-10049.854920
4824.534219,3101.098090,1569.691626,-9896.714274
4824.536757,-2105.683888,6393.621987,-8556.733618
4824.539295,-2220.539373,-1741.974853,-10011.569758
4824.541833,4881.358104,-5895.914886,-10892.128475
4824.544371,2048.256146,7140.182638,-8652.446522
4824.546909,-574.277424,-4555.934230,-10796.415571
4824.549447,3062.812928,-1818.545176,-9513.862658
4824.551985,-76.570323,4498.506488,-8671.589102
4824.554523,-306.281293,-4709.074877,-10892.128475
4824.557060,3005.385186,2239.681954,-9437.292334
4824.559598,746.560651,3503.092286,-9016.155557
4824.562136,1014.556782,-2258.824534,-10413.563955
4824.564674,4460.221326,-1301.695494,-9494.720077
4824.567212,-229.710970,765.703232,-9245.866526
4824.569750,-421.136778,-1205.982590,-10547.562021
4824.572288,880.558717,2545.963246,-9724.431046
4824.574826,708.275490,-191.425808,-9667.003304
4824.577364,1569.691626,-727.418070,-9418.149754
4824.579902,861.416136,1014.556782,-9647.860723
4824.582440,-555.134843,593.420005,-10088.140082
4824.584978,1225.125171,765.703232,-10068.997501
4824.587516,3962.514226,-1225.125171,-9456.434915
4824.590054,4326.223261,-1933.400661,-9628.718142
4824.592591,-1359.123237,1588.834206,-9628.718142
4824.595129,2565.105827,-6393.621987,-11006.983960
4824.597667,-2852.244539,1684.547110,-8882.157491
4824.600205,3426.521963,-1129.412267,-10317.851051
4824.602743,842.273555,4670.789715,-9150.153622
4824.605281,3637.090352,-5283.352301,-10719.845248
4824.607819,-421.136778,5264.209720,-8709.874264
4824.610357,-3732.803256,3388.236802,-9456.434915
4824.612902,2813.959378,-6527.620053,-11006.983960
4824.615447,-1512.263883,7561.319416,-8537.591037
4824.617992,1512.263883,-1129.412267,-10566.704602
4824.620536,-497.707101,57.427742,-9207.581365
4824.623081,-1627.119368,5493.920690,-9073.583299
4824.625626,-861.416136,-1167.697429,-10432.706536
4824.628171,899.701298,918.843878,-9533.005238
4824.630716,-650.847747,1435.693560,-10011.569758
4824.633261,-2411.965181,1818.545176,-9724.431046
4824.635806,401.994197,2335.394858,-9475.577496
4824.638351,1761.117434,-401.994197,-9820.143950
4824.640895,19.142581,2411.965181,-9399.007173
4824.643440,229.710970,172.283227,-10260.423309
4824.645985,-631.705166,612.562586,-9533.005238
4824.648530,-459.421939,2163.111630,-9054.440718
4824.651075,-1875.972918,2354.537438,-9686.145885
4824.653620,-2124.826469,555.134843,-10222.138147
4824.656165,459.421939,842.273555,-9475.577496
4824.658709,-1875.972918,5015.356170,-9322.436850
4824.661254,2756.531635,1665.404530,-10049.854920
4824.663799,-1971.685822,7312.465866,-8231.309744
4824.666344,-1225.125171,-2239.681954,-10356.136213
4824.668889,2048.256146,-287.138712,-9628.718142
4824.671434,-1914.258080,5608.776174,-8633.303941
4824.673979,5187.639397,-11102.696864,-12385.249778
4824.676524,1856.830338,5704.489078,-8709.874264
4824.679068,650.847747,-1741.974853,-9456.434915
4824.681613,-344.566454,229.710970,-9456.434915
4824.684158,2488.535504,3866.801322,-9858.429112
4824.686703,344.566454,3273.381317,-8786.444587
4824.689248,1091.127106,-3560.520029,-10777.272990
4824.691793,3196.810994,325.423874,-9513.862658
4824.694338,1091.127106,-3330.809059,-9303.294269
4824.696883,708.275490,727.418070,-9954.142016
4824.699427,-631.705166,1244.267752,-10585.847182
4824.701972,248.853550,937.986459,-9035.298138
4824.704517,2545.963246,669.990328,-9054.440718
4824.707062,421.136778,459.421939,-9858.429112
4824.709607,-995.414202,899.701298,-9590.432981
4824.712152,3330.809059,-382.851616,-10011.569758
4824.714703,2622.533570,248.853550,-9092.725880
4824.717253,3924.229064,-2507.678085,-9628.718142
4824.719804,497.707101,2584.248408,-9724.431046
4824.722355,1378.265818,-5436.492947,-10700.702667
4824.724906,-2584.248408,-172.283227,-9169.296203
4824.727457,3751.945837,-1703.689691,-10681.560086
4824.730007,-421.136778,5436.492947,-8901.300072
4824.732558,1914.258080,-4364.508422,-10260.423309
4824.735109,1933.400661,-3349.951640,-10892.128475
4824.737660,-5264.209720,10585.847182,-7542.176835
4824.740211,880.558717,-5455.635528,-11102.696864
4824.742761,-382.851616,5972.485210,-9131.011042
4824.745312,1684.547110,-38.285162,-9992.427178
4824.747863,-1225.125171,-1301.695494,-9303.294269
4824.750414,-1397.408398,5359.922624,-9265.009107
4824.752965,-1052.841944,38.285162,-9992.427178
4824.755516,1167.697429,401.994197,-9341.579430
4824.758066,-535.992262,2163.111630,-10183.852986
4824.760617,-2220.539373,2373.680019,-9207.581365
4824.763168,133.998066,1091.127106,-9475.577496
4824.765719,1741.974853,-478.564520,-10030.712339
4824.768270,-76.570323,2163.111630,-9284.151688
4824.770820,-191.425808,306.281293,-10241.280728
4824.773371,363.709035,861.416136,-9705.288466
4824.775922,-2316.252277,2411.965181,-8843.872330
4824.778473,-1895.115499,1435.693560,-9839.286531
4824.781024,1282.552914,114.855485,-10336.993632
4824.783575,-2813.959378,-3005.385186,-8652.446522
4824.786125,1627.119368,2086.541307,-10470.991698
4824.788676,-1971.685822,4058.227130,-8805.587168
4824.791227,1091.127106,-2029.113565,-10011.569758
4824.793778,-3369.094221,5493.920690,-9111.868461
4824.796329,2431.107762,-5570.491013,-11026.126541
4824.798879,4173.082614,1186.840010,-9341.579430
4824.801430,-1703.689691,3905.086483,-8958.727814
4824.803981,4019.941968,-7963.313613,-11160.124606
4824.806532,-210.568389,6029.912952,-8365.307810
4824.809083,1129.412267,727.418070,-10566.704602
4824.811633,995.414202,-2737.389054,-10298.708470
4824.814184,1129.412267,3235.096155,-9150.153622
4824.816714,1512.263883,-957.129040,-9762.716208
4824.819245,3790.230998,-1301.695494,-9265.009107
4824.821775,210.568389,976.271621,-9609.575562
4824.824305,-95.712904,382.851616,-10662.417506
4824.826835,612.562586,918.843878,-9667.003304
4824.829365,1569.691626,612.562586,-8920.442653
4824.831895,-287.138712,-325.423874,-9552.147819
4824.834426,210.568389,1378.265818,-10088.140082
4824.836956,2565.105827,-248.853550,-10241.280728
4824.839486,1761.117434,-191.425808,-9399.007173
4824.842016,4115.654872,-2354.537438,-9609.575562
4824.844546,497.707101,2182.254211,-9245.866526
4824.847076,1320.838075,-2201.396792,-9954.142016
4824.849607,-1416.550979,-937.986459,-9896.714274
4824.852137,3560.520029,-4211.367776,-10892.128475
4824.854667,535.992262,5991.627790,-8403.592971
4824.857197,-133.998066,-612.562586,-9801.001370
4824.859727,1799.402595,-1665.404530,-10604.989763
4824.862257,-5379.065205,10279.565890,-7963.313613
4824.864787,1818.545176,-6508.477472,-11236.694930
4824.867318,-1569.691626,6833.901346,-8882.157491
4824.869848,1665.404530,-1091.127106,-9399.007173
4824.872378,-1531.406464,-2086.541307,-10030.712339
4824.874908,-784.845813,3426.521963,-9743.573627
4824.877438,-803.988394,3005.385186,-9226.723946
4824.879968,1014.556782,-650.847747,-9801.001370
4824.882499,-172.283227,2258.824534,-10126.425243
4824.885029,-1512.263883,708.275490,-9609.575562
4824.887559,-574.277424,2488.535504,-9207.581365
4824.890089,1588.834206,-248.853550,-10145.567824
4824.892619,-401.994197,1895.115499,-9245.866526
4824.895149,363.709035,440.279358,-10222.138147
4824.897680,-746.560651,1722.832272,-9647.860723
4824.900210,-2450.250342,2086.541307,-9131.011042
4824.902740,-344.566454,1531.406464,-9858.429112
4824.905270,-899.701298,957.129040,-9973.284597
4824.907800,-937.986459,3139.383251,-9475.577496
4824.910330,1780.260014,2048.256146,-10183.852986
4824.912860,-2833.101958,7121.040058,-8020.741355
4824.915391,995.414202,-3598.805190,-10470.991698
4824.917929,2718.246474,-2297.109696,-10222.138147
4824.920468,-1684.547110,6987.041992,-8499.305875
4824.923006,2469.392923,-9973.284597,-12117.253646
4824.925545,2469.392923,2737.389054,-8977.870395
4824.928083,669.990328,459.421939,-9054.440718
4824.930622,172.283227,-976.271621,-9801.001370
4824.933160,2622.533570,4230.510357,-9667.003304
4824.935699,574.277424,-287.138712,-9418.149754
4824.938237,1435.693560,-2201.396792,-10336.993632
4824.940776,1416.550979,555.134843,-9724.431046
4824.943314,2622.533570,-2545.963246,-9571.290400
4824.945853,478.564520,401.994197,-9954.142016
4824.948391,535.992262,2124.826469,-10164.710405
4824.950930,-459.421939,344.566454,-9513.862658
4824.953468,1914.258080,153.140646,-9265.009107
4824.956007,76.570323,650.847747,-9552.147819
4824.958545,1837.687757,-440.279358,-10241.280728
4824.961084,1933.400661,1052.841944,-9896.714274
4824.963623,3541.377448,-1933.400661,-9724.431046
4824.966161,-133.998066,-57.427742,-9437.292334
4824.968700,3158.525832,-4881.358104,-10432.706536
4824.971238,-1818.545176,-325.423874,-9379.864592
4824.973777,2507.678085,-1607.976787,-10566.704602
4824.976315,-612.562586,5570.491013,-8939.585234
4824.978854,3713.660675,-5704.489078,-10528.419440
4824.981392,1071.984525,5053.641331,-8748.159426
4824.983931,-3273.381317,4039.084549,-9418.149754
4824.986469,2584.248408,-3732.803256,-10796.415571
4824.989008,-3330.809059,8461.020714,-8193.024582
4824.991546,1301.695494,-1148.554848,-10260.423309
4824.994085,344.566454,325.423874,-9016.155557
4824.996623,-2143.969050,5915.057467,-8977.870395
4824.999162,-650.847747,-2603.390989,-10528.419440
4825.001700,708.275490,1741.974853,-9533.005238
4825.004239,-421.136778,1646.261949,-9973.284597
4825.006777,76.570323,382.851616,-9724.431046
4825.009316,-248.853550,3809.373579,-8863.014910
4825.011854,-172.283227,-1167.697429,-10107.282662
4825.014393,-76.570323,1397.408398,-9590.432981
4825.016931,1205.982590,880.558717,-9858.429112
4825.019477,-708.275490,1263.410333,-9801.001370
4825.022022,-2890.529701,2277.967115,-9150.153622
4825.024568,746.560651,1818.545176,-9590.432981
4825.027113,-1933.400661,1799.402595,-9915.856854
4825.029659,-880.558717,2143.969050,-9915.856854
4825.032204,2048.256146,1531.406464,-10107.282662
4825.034750,-2718.246474,7503.891674,-8135.596840
4825.037295,-76.570323,-2584.248408,-10375.278794
4825.039841,3828.516160,-4192.225195,-10490.134278
4825.042386,-784.845813,7905.885870,-8327.022648
4825.044932,248.853550,-8250.452325,-11772.687192
4825.047477,2565.105827,0.000000,-9418.149754
4825.050023,976.271621,1933.400661,-9169.296203
4825.052568,114.855485,-1722.832272,-10183.852986
4825.055114,2718.246474,4441.078746,-9322.436850
4825.057659,421.136778,784.845813,-9322.436850
4825.060205,1435.693560,-3349.951640,-10566.704602
4825.062750,1397.408398,689.132909,-9590.432981
4825.065296,2277.967115,-1952.543242,-9743.573627
4825.067841,401.994197,-210.568389,-9973.284597
4825.070387,918.843878,2048.256146,-10107.282662
4825.072932,-650.847747,957.129040,-9571.290400
4825.075478,957.129040,153.140646,-9188.438784
4825.078023,1875.972918,535.992262,-9379.864592
4825.080569,1071.984525,-133.998066,-10298.708470
4825.083114,3120.240670,-631.705166,-10126.425243
4825.085660,3158.525832,-344.566454,-9303.294269
4825.088205,3101.098090,-1282.552914,-9705.288466
4825.090751,2029.113565,-612.562586,-9092.725880
4825.093296,-1282.552914,382.851616,-9705.288466
4825.095842,2392.822600,-5493.920690,-11523.833642
4825.098387,2373.680019,3943.371645,-8843.872330
4825.100933,-784.845813,3924.229064,-9092.725880
4825.103478,2679.961312,-5302.494882,-10892.128475
4825.106024,-3139.383251,11351.550414,-7331.608446
4825.108569,-229.710970,-3349.951640,-11026.126541
4825.111115,-995.414202,3464.807125,-9820.143950
4825.113660,1263.410333,3675.375514,-8805.587168
4825.116206,-1588.834206,-2335.394858,-10222.138147
4825.118751,-421.136778,631.705166,-10164.710405
4825.121303,-803.988394,6068.198114,-8595.018779
4825.123855,784.845813,-497.707101,-10107.282662
4825.126407,-229.710970,2163.111630,-9896.714274
4825.128958,-1282.552914,535.992262,-9513.862658
4825.131510,191.425808,937.986459,-9513.862658
4825.134062,1225.125171,1167.697429,-9934.999435
4825.136613,-1741.974853,1512.263883,-9533.005238
4825.139165,-325.423874,842.273555,-9647.860723
4825.141717,-1761.117434,2526.820666,-9322.436850
4825.144269,-1129.412267,631.705166,-9686.145885
4825.146820,-1205.982590,1512.263883,-9667.003304
4825.149372,-1263.410333,3503.092286,-9724.431046
4825.151924,1761.117434,2871.387120,-9705.288466
4825.154475,-2737.389054,6661.618118,-8441.878133
4825.157027,2297.109696,-4307.080680,-10643.274925
4825.159579,363.709035,5340.780043,-8690.731683
4825.162131,-2220.539373,5532.205851,-8748.159426
4825.164682,5436.492947,-11581.261384,-12500.105262
4825.167234,1244.267752,5838.487144,-8652.446522
4825.169786,1186.840010,-2335.394858,-9571.290400
4825.172337,191.425808,1282.552914,-9111.868461
4825.174889,2316.252277,3751.945837,-10068.997501
4825.177441,784.845813,-3426.521963,-10394.421374
4825.179993,1627.119368,555.134843,-9571.290400
4825.182544,1263.410333,727.418070,-9801.001370
4825.185096,2411.965181,-2354.537438,-9188.438784
4825.187648,1856.830338,-727.418070,-10011.569758
4825.190199,535.992262,1914.258080,-10241.280728
4825.192751,-1110.269686,1052.841944,-9494.720077
4825.195303,1646.261949,210.568389,-9456.434915
4825.197855,1818.545176,669.990328,-9494.720077
4825.200406,1339.980656,0.000000,-9877.571693
4825.202963,3311.666478,-727.418070,-10279.565890
4825.205520,1588.834206,-248.853550,-9743.573627
4825.208077,2316.252277,-38.285162,-9245.866526
4825.210634,1493.121302,1071.984525,-8805.587168
4825.213191,-937.986459,593.420005,-9360.722011
4825.215748,899.701298,-4077.369710,-11294.122672
4825.218305,3311.666478,612.562586,-9801.001370
4825.220862,-2756.531635,6833.901346,-8575.876198
4825.223419,1378.265818,-6087.340694,-10738.987829
4825.225976,842.273555,8671.589102,-8059.026517
4825.228533,-1014.556782,535.992262,-10470.991698
4825.231089,-1512.263883,995.414202,-10011.569758
4825.233646,1550.549045,1856.830338,-9475.577496
4825.236203,-2469.392923,-1071.984525,-9743.573627
4825.238760,57.427742,-2182.254211,-10451.849117
4825.241317,-823.130974,6987.041992,-8556.733618
4825.243874,899.701298,248.853550,-9896.714274
4825.246431,-191.425808,1512.263883,-9437.292334
4825.248988,38.285162,2316.252277,-9111.868461
4825.251545,-478.564520,-440.279358,-9724.431046
4825.254102,976.271621,746.560651,-10011.569758
4825.256659,76.570323,1454.836141,-9858.429112
4825.259216,-1110.269686,1416.550979,-9609.575562
4825.261773,-2450.250342,1722.832272,-9628.718142
4825.264329,497.707101,-689.132909,-9647.860723
4825.266886,-2890.529701,5206.781978,-9131.011042
4825.269443,-1014.556782,2660.818731,-10356.136213
4825.272000,-1225.125171,2986.242605,-9322.436850
4825.274557,1646.261949,-1148.554848,-9934.999435
4825.277114,-4096.512291,6412.764568,-8327.022648
4825.279671,3139.383251,-6948.756830,-11006.983960
4825.282228,4287.938099,2565.105827,-9513.862658
4825.284785,-1378.265818,2794.816797,-9131.011042
4825.287342,3158.525832,-6967.899411,-10585.847182
4825.289899,746.560651,4268.795518,-8786.444587
4825.292456,-650.847747,-3062.812928,-10585.847182
4825.295013,4039.084549,-3388.236802,-10700.702667
4825.297570,995.414202,5589.633594,-9035.298138
4825.300126,1110.269686,-1339.980656,-9686.145885
4825.302683,2450.250342,-765.703232,-9437.292334
4825.305243,1454.836141,19.142581,-9724.431046
4825.307805,803.988394,-1014.556782,-9973.284597
4825.310366,325.423874,2182.254211,-9762.716208
4825.312927,382.851616,899.701298,-9667.003304
4825.315488,784.845813,-765.703232,-9150.153622
4825.318050,2163.111630,325.423874,-9571.290400
4825.320611,3445.664544,0.000000,-10011.569758
4825.323172,229.710970,-803.988394,-10030.712339
4825.325733,3407.379382,-1263.410333,-9628.718142
4825.328295,2048.256146,-153.140646,-8709.874264
4825.330856,-1148.554848,344.566454,-9226.723946
4825.333417,2967.100024,-5359.922624,-11715.259450
4825.335978,1473.978722,3215.953574,-9418.149754
4825.338540,-1110.269686,3120.240670,-9169.296203
4825.341101,2986.242605,-4326.223261,-10719.845248
4825.343662,-3464.807125,11944.970419,-7121.040058
4825.346223,-784.845813,3024.527766,-10030.712339
4825.348785,-1531.406464,-19.142581,-10260.423309
4825.351346,1033.699363,2124.826469,-9284.151688
4825.353907,-1646.261949,-3062.812928,-9992.427178
4825.356468,-1129.412267,2660.818731,-9494.720077
4825.359030,-574.277424,4862.215523,-9054.440718
4825.361591,1167.697429,-38.285162,-9992.427178
4825.364152,-38.285162,2143.969050,-10126.425243
4825.366713,-535.992262,-459.421939,-9571.290400
4825.369274,-210.568389,1033.699363,-9379.864592
4825.371836,325.423874,287.138712,-10145.567824
4825.374397,-229.710970,1186.840010,-9743.573627
4825.376958,-937.986459,2622.533570,-9437.292334
4825.379519,-1741.974853,421.136778,-10030.712339
4825.382081,-440.279358,-114.855485,-9341.579430
4825.384642,-2737.389054,5321.637462,-9131.011042
4825.387203,267.996131,3369.094221,-10126.425243
4825.389764,-899.701298,2392.822600,-9552.147819
4825.392326,2009.970984,1091.127106,-10604.989763
4825.394887,-2067.398726,6297.909083,-8212.167163
4825.397448,-880.558717,-4096.512291,-10566.704602
4825.400009,3962.514226,-3369.094221,-10547.562021
4825.402571,-1818.545176,6910.471669,-8403.592971
4825.405132,4575.076811,-7791.030386,-11255.837510
4825.407697,153.140646,3847.658741,-8518.448456
4825.410262,-861.416136,-2029.113565,-10145.567824
4825.412826,3426.521963,-2105.683888,-10375.278794
4825.415391,880.558717,7274.180704,-8748.159426
4825.417956,1282.552914,727.418070,-9552.147819
4825.420521,2450.250342,-1665.404530,-9322.436850
4825.423086,1473.978722,267.996131,-9399.007173
4825.425651,765.703232,-995.414202,-10317.851051
4825.428215,650.847747,1933.400661,-10030.712339
4825.430780,1512.263883,1110.269686,-9437.292334
4825.433345,-555.134843,-727.418070,-9341.579430
4825.435910,2679.961312,-803.988394,-9934.999435
4825.438475,3483.949706,-19.142581,-10049.854920
4825.441040,19.142581,57.427742,-10049.854920
4825.443604,3426.521963,-5570.491013,-10183.852986
4825.446169,-191.425808,-689.132909,-8748.159426
4825.448734,2545.963246,-1378.265818,-10202.995566
4825.451299,-555.134843,3215.953574,-9705.288466
4825.453864,4096.512291,-4479.363907,-10700.702667
4825.456428,-1110.269686,7408.178770,-8346.165229
4825.458993,-3426.521963,535.992262,-9781.858789
4825.461558,2469.392923,-1071.984525,-9992.427178
4825.464123,-1799.402595,7733.602643,-8671.589102
4825.466688,-497.707101,-1837.687757,-10719.845248
4825.469253,574.277424,2297.109696,-8920.442653
4825.471817,-3503.092286,3713.660675,-9016.155557
4825.474382,57.427742,-4728.217458,-10834.700733
4825.476947,-172.283227,5398.207786,-9111.868461
4825.479512,478.564520,957.129040,-10183.852986
4825.482077,19.142581,2143.969050,-9494.720077
4825.484642,-995.414202,1186.840010,-9303.294269
4825.487206,172.283227,-306.281293,-9360.722011
4825.489771,612.562586,976.271621,-10202.995566
4825.492336,-784.845813,1895.115499,-9590.432981
4825.494901,-1397.408398,1473.978722,-9533.005238
4825.497466,-516.849682,0.000000,-9686.145885
4825.500031,-3560.520029,4249.652938,-8805.587168
4825.502595,-1473.978722,2622.533570,-10183.852986
4825.505160,1359.123237,746.560651,-10490.134278
4825.507725,803.988394,5513.063270,-8805.587168
4825.510293,-2641.676150,2411.965181,-9035.298138
4825.512861,3292.523898,-4096.512291,-9820.143950
4825.515429,4268.795518,4287.938099,-8997.012976
4825.517997,-1378.265818,880.558717,-9781.858789
4825.520564,2679.961312,-6719.045861,-10796.415571
4825.523132,1493.121302,3330.809059,-8958.727814
4825.525700,-497.707101,-2852.244539,-10164.710405
4825.528268,3656.232933,2373.680019,-9245.866526
4825.530836,344.566454,5895.914886,-8824.729749
4825.533404,1646.261949,-4900.500685,-10930.413637
4825.535972,1473.978722,114.855485,-9552.147819
4825.538540,650.847747,-2316.252277,-9475.577496
4825.541107,440.279358,-363.709035,-9762.716208
4825.543675,1282.552914,2354.537438,-9992.427178
4825.546243,57.427742,1282.552914,-9686.145885
4825.548811,708.275490,-612.562586,-9226.723946
4825.551379,2163.111630,-574.277424,-9513.862658
4825.553947,3062.812928,-669.990328,-10088.140082
4825.556515,765.703232,1741.974853,-9992.427178
4825.559082,3560.520029,-4383.651003,-10470.991698
4825.561650,593.420005,-1071.984525,-8805.587168
4825.564218,1435.693560,574.277424,-9226.723946
4825.566786,-1167.697429,5302.494882,-9245.866526
4825.569354,2526.820666,-4728.217458,-10911.271056
4825.571922,1263.410333,5953.342629,-8824.729749
4825.574490,-3024.527766,4517.649069,-9035.298138
4825.577057,2450.250342,-4402.793584,-10490.134278
4825.579625,-2258.824534,8480.163294,-8212.167163
4825.582193,478.564520,-1588.834206,-10834.700733
4825.584761,842.273555,3024.527766,-9341.579430
4825.587329,-3081.955509,593.420005,-9360.722011
4825.589897,0.000000,-4460.221326,-10911.271056
4825.592465,382.851616,4441.078746,-9131.011042
4825.595033,-401.994197,1301.695494,-10126.425243
4825.597600,-38.285162,937.986459,-9667.003304
4825.600168,-421.136778,1646.261949,-9265.009107
4825.602736,-57.427742,-382.851616,-9762.716208
4825.605304,-306.281293,1282.552914,-10068.997501
4825.607872,-574.277424,1627.119368,-9762.716208
4825.610440,-1225.125171,2258.824534,-9265.009107
4825.613010,-1167.697429,1684.547110,-9379.864592
4825.615580,-2545.963246,2354.537438,-9360.722011
4825.618150,1703.689691,3637.090352,-9858.429112
4825.620720,-1875.972918,6144.768437,-9150.153622
4825.623290,2603.390989,-3177.668413,-10413.563955
4825.625860,-2335.394858,7006.184573,-8097.311678
4825.628430,-287.138712,-5608.776174,-10700.702667
4825.631000,3617.947771,-2239.681954,-10145.567824
4825.633570,-1473.978722,6642.475538,-8690.731683
4825.636140,4364.508422,-8231.309744,-11485.548480
4825.638710,306.281293,2699.103893,-8307.880067
4825.641280,306.281293,861.416136,-10107.282662
4825.643850,2277.967115,-4919.643266,-11121.839445
4825.646420,1167.697429,5895.914886,-8709.874264
4825.648990,1129.412267,-210.568389,-9762.716208
4825.651560,2373.680019,-1512.263883,-9456.434915
4825.654130,1378.265818,861.416136,-9245.866526
4825.656700,918.843878,-497.707101,-10681.560086
4825.659270,191.425808,1225.125171,-9762.716208
4825.661840,1225.125171,306.281293,-9552.147819
4825.664410,1282.552914,-1071.984525,-9552.147819
4825.666980,2890.529701,-248.853550,-9513.862658
4825.669550,555.134843,555.134843,-9992.427178
4825.672120,4211.367776,-3139.383251,-10700.702667
4825.674690,2220.539373,1225.125171,-8652.446522
4825.677260,650.847747,631.705166,-9322.436850
4825.679830,-210.568389,-2545.963246,-10585.847182
4825.682400,4000.799387,-1741.974853,-10490.134278
4825.684970,-3713.660675,8652.446522,-8461.020714
4825.687540,-1091.127106,-5111.069074,-10853.843314
4825.690110,2335.394858,6221.338760,-8499.305875
4825.692680,-689.132909,3905.086483,-9322.436850
4825.695250,-1895.115499,133.998066,-10164.710405
4825.697820,1148.554848,2258.824534,-9762.716208
4825.700390,-421.136778,-1225.125171,-9934.999435
4825.702960,-516.849682,-1454.836141,-9820.143950
4825.705530,-765.703232,6508.477472,-8690.731683
4825.708100,823.130974,497.707101,-9973.284597
4825.710670,153.140646,2335.394858,-9705.288466
4825.713240,-593.420005,-287.138712,-9858.429112
4825.715811,306.281293,1244.267752,-8997.012976
4825.718383,306.281293,899.701298,-10068.997501
4825.720955,229.710970,574.277424,-9954.142016
4825.723526,-1129.412267,4402.793584,-9035.298138
4825.726098,-3407.379382,229.710970,-10030.712339
4825.728670,-2584.248408,1225.125171,-9322.436850
4825.731241,1895.115499,5149.354235,-9494.720077
4825.733813,-1837.687757,5340.780043,-9552.147819
4825.736385,2756.531635,-3196.810994,-10738.987829
4825.738957,-2469.392923,7637.889739,-8059.026517
4825.741528,-535.992262,-6297.909083,-10624.132344
4825.744100,3541.377448,-1722.832272,-10145.567824
4825.746672,-918.843878,6470.192310,-8633.303941
4825.749243,4019.941968,-8518.448456,-11696.116869
4825.751815,229.710970,2660.818731,-8250.452325
4825.754387,133.998066,765.703232,-9858.429112
4825.756958,2584.248408,-4900.500685,-11026.126541
4825.759530,1416.550979,6833.901346,-8441.878133
4825.762102,1052.841944,-689.132909,-9839.286531
4825.764673,1646.261949,-1665.404530,-9628.718142
4825.767245,803.988394,-440.279358,-9456.434915
4825.769817,1339.980656,-401.994197,-9858.429112
4825.772388,555.134843,2258.824534,-10068.997501
4825.774960,1244.267752,555.134843,-9456.434915
4825.777532,1473.978722,-1799.402595,-9667.003304
4825.780103,2871.387120,-133.998066,-9705.288466
4825.782675,689.132909,1837.687757,-9896.714274
4825.785247,3905.086483,-4728.217458,-10834.700733
4825.787818,1454.836141,-995.414202,-9073.583299
4825.790390,1071.984525,-95.712904,-9226.723946
4825.792962,-478.564520,-976.271621,-10088.140082
4825.795533,4230.510357,-2469.392923,-10758.130410
4825.798105,-3637.090352,6546.762634,-8748.159426
4825.800677,-3311.666478,3369.094221,-9322.436850
4825.803249,2545.963246,-3081.955509,-10413.563955
4825.805820,-1952.543242,8403.592971,-8059.026517
4825.808392,-535.992262,-1129.412267,-10604.989763
4825.810964,823.130974,3158.525832,-9609.575562
4825.813535,-2201.396792,-1071.984525,-9896.714274
4825.816107,-650.847747,-1091.127106,-9877.571693
4825.818680,-957.129040,6412.764568,-8863.014910
4825.821253,1378.265818,172.283227,-9954.142016
4825.823826,823.130974,1569.691626,-9724.431046
4825.826399,-1014.556782,650.847747,-9494.720077
4825.828972,19.142581,401.994197,-9284.151688
4825.831545,-76.570323,1091.127106,-10126.425243
4825.834118,-708.275490,1244.267752,-9762.716208
4825.836691,497.707101,1607.976787,-9303.294269
4825.839264,-4441.078746,3158.525832,-9647.860723
4825.841837,-2890.529701,803.988394,-9475.577496
4825.844410,3330.809059,210.568389,-10317.851051
4825.846983,-1607.976787,9131.011042,-9035.298138
4825.849556,-2584.248408,3235.096155,-8824.729749
4825.852129,2699.103893,-3369.094221,-9552.147819
4825.854702,-1761.117434,7886.743290,-8212.167163
4825.857275,823.130974,-9954.142016,-12251.251712
4825.859848,2431.107762,210.568389,-9781.858789
4825.862421,2277.967115,-899.701298,-9781.858789
4825.864994,19.142581,555.134843,-8824.729749
4825.867567,1665.404530,4938.785846,-9054.440718
4825.870140,1454.836141,-3694.518094,-10681.560086
4825.872713,1665.404530,-593.420005,-10987.841379
4825.875286,1033.699363,401.994197,-9743.573627
4825.877859,1205.982590,-2526.820666,-9399.007173
4825.880432,1933.400661,918.843878,-9245.866526
4825.883005,229.710970,1588.834206,-10298.708470
4825.885578,669.990328,153.140646,-9915.856854
4825.888151,1856.830338,1110.269686,-9188.438784
4825.890724,2928.814862,-2239.681954,-9858.429112
4825.893297,95.712904,708.275490,-9513.862658
4825.895870,4977.071008,-1607.976787,-10528.419440
4825.898443,2469.392923,-210.568389,-8920.442653
4825.901016,-1110.269686,1627.119368,-8767.302006
4825.903589,784.845813,-4709.074877,-10547.562021
4825.906162,3349.951640,-325.423874,-10030.712339
4825.908735,-2947.957443,6661.618118,-9494.720077
4825.911308,1990.828403,-5857.629725,-11026.126541
4825.913881,363.709035,9954.142016,-7369.893608
4825.916454,-555.134843,880.558717,-9801.001370
4825.919027,-1550.549045,1512.263883,-9820.143950
4825.921601,880.558717,2699.103893,-9839.286531
4825.924176,-555.134843,-2737.389054,-10432.706536
4825.926750,-2220.539373,2890.529701,-9035.298138
4825.929324,-574.277424,3407.379382,-9169.296203
4825.931898,1761.117434,612.562586,-9667.003304
4825.934473,325.423874,2947.957443,-9571.290400
4825.937047,-746.560651,-918.843878,-10126.425243
4825.939621,248.853550,1895.115499,-9092.725880
4825.942195,823.130974,861.416136,-9973.284597
4825.944769,-650.847747,-172.283227,-10068.997501
4825.947344,267.996131,1780.260014,-9265.009107
4825.949918,-4421.936165,3713.660675,-9571.290400
4825.952492,-3330.809059,1205.982590,-9590.432981
4825.955066,2909.672282,-153.140646,-10241.280728
4825.957641,-555.134843,7752.745224,-9303.294269
4825.960215,-861.416136,76.570323,-9801.001370
4825.962789,2411.965181,1741.974853,-8671.589102
4825.965363,-2718.246474,4957.928427,-8556.733618
4825.967937,4651.647134,-12327.822035,-12634.103328
4825.970512,1473.978722,5302.494882,-9035.298138
4825.973086,3139.383251,19.142581,-9858.429112
4825.975660,57.427742,-574.277424,-9322.436850
4825.978234,2048.256146,5359.922624,-8729.016845
4825.980809,1473.978722,-2086.541307,-10336.993632
4825.983383,1646.261949,-2201.396792,-10624.132344
4825.985957,535.992262,1780.260014,-9743.573627
4825.988531,2143.969050,-1971.685822,-9188.438784
4825.991105,995.414202,2009.970984,-9111.868461
4825.993680,976.271621,-880.558717,-10624.132344
4825.996254,861.416136,210.568389,-9877.571693
4825.998828,1493.121302,1301.695494,-9226.723946
4826.001402,3254.238736,-2756.531635,-9896.714274
4826.003977,746.560651,3349.951640,-9073.583299
4826.006551,4192.225195,-3828.516160,-10777.272990
4826.009125,1837.687757,-2526.820666,-9437.292334
4826.011699,631.705166,1550.549045,-8977.870395
4826.014273,-516.849682,-2526.820666,-10088.140082
4826.016848,3847.658741,-2584.248408,-10279.565890
4826.019422,-3771.088418,9016.155557,-8729.016845
4826.021996,-3656.232933,2105.683888,-9475.577496
4826.024571,2048.256146,-2775.674216,-10375.278794
4826.027147,-1186.840010,8633.303941,-8020.741355
4826.029722,-1665.404530,-727.418070,-10068.997501
4826.032298,727.418070,3005.385186,-9571.290400
4826.034873,-1071.984525,-2009.970984,-10241.280728
4826.037448,-1952.543242,1148.554848,-9399.007173
4826.040024,-727.418070,4268.795518,-9016.155557
4826.042599,1493.121302,650.847747,-9686.145885
4826.045175,-459.421939,1722.832272,-9647.860723
4826.047750,-210.568389,-19.142581,-9954.142016
4826.050325,-401.994197,1110.269686,-9341.579430
4826.052901,363.709035,1301.695494,-10068.997501
4826.055476,19.142581,1435.693560,-9705.288466
4826.058051,-2411.965181,1588.834206,-9379.864592
4826.060627,-3732.803256,1875.972918,-9915.856854
4826.063202,38.285162,4345.365842,-9054.440718
4826.065778,-1225.125171,3598.805190,-9686.145885
4826.068353,3407.379382,-612.562586,-10796.415571
4826.070928,-1933.400661,8078.169098,-7771.887805
4826.073504,-880.558717,-4632.504554,-10375.278794
4826.076079,3330.809059,-4268.795518,-10566.704602
4826.078655,-1531.406464,7657.032320,-8154.739421
4826.081230,4211.367776,-7657.032320,-11619.546546
4826.083805,401.994197,1952.543242,-8690.731683
4826.086381,478.564520,1091.127106,-9571.290400
4826.088956,3081.955509,-4938.785846,-10949.556218
4826.091532,803.988394,6355.336826,-8633.303941
4826.094107,1014.556782,-612.562586,-9820.143950
4826.096682,2316.252277,-976.271621,-9628.718142
4826.099258,995.414202,-555.134843,-9647.860723
4826.101833,1033.699363,133.998066,-9552.147819
4826.104408,1607.976787,1895.115499,-10068.997501
4826.106984,650.847747,574.277424,-9456.434915
4826.109559,2603.390989,-2182.254211,-9781.858789
4826.112135,1129.412267,2737.389054,-9379.864592
4826.114710,4077.369710,-4383.651003,-10738.987829
4826.117285,3043.670347,-1627.119368,-9552.147819
4826.119861,-612.562586,2756.531635,-8843.872330
4826.122436,-19.142581,-5493.920690,-10470.991698
4826.125012,3541.377448,-363.709035,-9973.284597
4826.127588,-2545.963246,6336.194245,-9437.292334
4826.130164,-3426.521963,-1856.830338,-10413.563955
4826.132740,2277.967115,1397.408398,-9820.143950
4826.135316,-899.701298,6987.041992,-8346.165229
4826.137892,-2163.111630,38.285162,-9781.858789
4826.140468,650.847747,2239.681954,-10030.712339
4826.143044,248.853550,-3407.379382,-10490.134278
4826.145620,-2890.529701,4115.654872,-8882.157491
4826.148196,-344.566454,1818.545176,-9762.716208
4826.150772,1856.830338,1320.838075,-9418.149754
4826.153348,229.710970,2392.822600,-9533.005238
4826.155924,-1091.127106,-344.566454,-9973.284597
4826.158500,153.140646,1359.123237,-9169.296203
4826.161076,114.855485,1933.400661,-9896.714274
4826.163652,957.129040,267.996131,-9801.001370
4826.166229,-3369.094221,3828.516160,-8863.014910
4826.168805,-3273.381317,746.560651,-10336.993632
4826.171381,1378.265818,2775.674216,-9399.007173
4826.173957,-2756.531635,7905.885870,-8633.303941
4826.176533,3617.947771,-3541.377448,-11389.835576
4826.179109,-2775.674216,7140.182638,-8212.167163
4826.181685,-1722.832272,-937.986459,-9781.858789
4826.184261,3388.236802,-9456.434915,-11562.118803
4826.186837,-2067.398726,8384.450390,-8269.594906
4826.189413,4670.789715,-5819.344563,-11236.694930
4826.191989,574.277424,1837.687757,-8863.014910
4826.194565,-133.998066,-957.129040,-9724.431046
4826.197141,3885.943902,-2622.533570,-10241.280728
4826.199717,401.994197,7178.467800,-8652.446522
4826.202293,1071.984525,-2469.392923,-10145.567824
4826.204870,1339.980656,-1320.838075,-9571.290400
4826.207446,1761.117434,-708.275490,-9494.720077
4826.210022,842.273555,842.273555,-9762.716208
4826.212598,899.701298,1205.982590,-10107.282662
4826.215174,1110.269686,-287.138712,-9552.147819
4826.217750,3081.955509,-861.416136,-9341.579430
4826.220326,1378.265818,2182.254211,-9571.290400
4826.222902,4039.084549,-4115.654872,-10413.563955
4826.225478,2297.109696,-2182.254211,-9724.431046
4826.228054,535.992262,1263.410333,-9131.011042
4826.230630,-2067.398726,3560.520029,-8786.444587
4826.233207,3751.945837,-5666.203917,-11006.983960
4826.235783,1186.840010,8001.598774,-8767.302006
4826.238359,-3732.803256,2890.529701,-9437.292334
4826.240935,1875.972918,-2622.533570,-10394.421374
4826.243512,-1263.410333,8384.450390,-7867.600709
4826.246088,-1722.832272,-287.138712,-10011.569758
4826.248664,535.992262,2526.820666,-9896.714274
4826.251241,-248.853550,-2469.392923,-10298.708470
4826.253817,-880.558717,-516.849682,-9896.714274
4826.256393,-880.558717,5072.783912,-8958.727814
4826.258969,727.418070,38.285162,-9973.284597
4826.261546,19.142581,1856.830338,-9609.575562
4826.264122,-153.140646,478.564520,-9667.003304
4826.266698,-440.279358,918.843878,-9475.577496
4826.269274,-95.712904,1339.980656,-10011.569758
4826.271851,19.142581,0.000000,-9877.571693
4826.274427,-4039.084549,4173.082614,-9035.298138
4826.277003,-3445.664544,1665.404530,-10145.567824
4826.279579,-650.847747,746.560651,-9781.858789
4826.282156,1167.697429,3751.945837,-10145.567824
4826.284732,-1397.408398,3158.525832,-9628.718142
4826.287308,2565.105827,-2277.967115,-9245.866526
4826.289885,-1320.838075,8327.022648,-7925.028451
4826.292461,1397.408398,-10030.712339,-12193.823970
4826.295037,957.129040,-133.998066,-9628.718142
4826.297613,2584.248408,-1722.832272,-10068.997501
4826.300190,535.992262,803.988394,-9092.725880
4826.302766,1091.127106,5149.354235,-8307.880067
4826.305342,1454.836141,440.279358,-9934.999435
4826.307918,1416.550979,-3426.521963,-10815.558152
4826.310495,0.000000,1761.117434,-9571.290400
4826.313071,1799.402595,-2794.816797,-9705.288466
4826.315647,1875.972918,2584.248408,-8901.300072
4826.318224,306.281293,-497.707101,-10241.280728
4826.320800,1186.840010,57.427742,-9513.862658
4826.323376,1952.543242,1569.691626,-9399.007173
4826.325952,880.558717,-1569.691626,-10202.995566
4826.328529,4785.645200,-3426.521963,-10011.569758
4826.331105,3464.807125,229.710970,-9207.581365
4826.333681,-1110.269686,440.279358,-9226.723946
4826.336258,153.140646,-4211.367776,-10011.569758
4826.338834,3579.662610,-535.992262,-10088.140082
4826.341410,-2718.246474,5321.637462,-9494.720077
4826.343987,2316.252277,-5474.778109,-11274.980091
4826.346563,344.566454,11466.405899,-7235.895542
4826.349139,-650.847747,516.849682,-9724.431046
4826.351715,-1971.685822,1722.832272,-9667.003304
4826.354292,727.418070,1990.828403,-9896.714274
4826.356868,861.416136,-3043.670347,-10490.134278
4826.359444,-3885.943902,4096.512291,-8786.444587
4826.362021,57.427742,421.136778,-9934.999435
4826.364597,1473.978722,3254.238736,-9111.868461
4826.367173,-363.709035,669.990328,-9934.999435
4826.369749,-57.427742,-38.285162,-9820.143950
4826.372326,-133.998066,1722.832272,-9533.005238
4826.374902,133.998066,555.134843,-10183.852986
4826.377478,-1397.408398,-38.285162,-9743.573627
4826.380055,-3369.094221,4192.225195,-9054.440718
4826.382631,-2660.818731,3177.668413,-9915.856854
4826.385207,382.851616,-1588.834206,-10126.425243
4826.387784,-803.988394,6393.621987,-9494.720077
4826.390360,95.712904,1129.412267,-10145.567824
4826.392936,1971.685822,2794.816797,-8346.165229
4826.395512,-1512.263883,5359.922624,-8461.020714
4826.398089,4938.785846,-12902.099459,-12557.533005
4826.400665,-325.423874,4134.797453,-8901.300072
4826.403241,2699.103893,-1761.117434,-10451.849117
4826.405818,861.416136,19.142581,-9245.866526
4826.408394,1091.127106,6049.055533,-8346.165229
4826.410970,2718.246474,-4153.940034,-10509.276859
4826.413546,803.988394,-19.142581,-9915.856854
4826.416123,-133.998066,1875.972918,-9896.714274
4826.418699,1339.980656,-2086.541307,-9590.432981
4826.421275,1780.260014,1033.699363,-9131.011042
4826.423852,899.701298,516.849682,-10088.140082
4826.426428,401.994197,-593.420005,-9954.142016
4826.429004,2431.107762,1359.123237,-9207.581365
4826.431581,1627.119368,535.992262,-9743.573627
4826.434157,4383.651003,-3445.664544,-10279.565890
4826.436733,2756.531635,-1952.543242,-9686.145885
4826.439309,153.140646,1301.695494,-9073.583299
4826.441886,-1071.984525,-3024.527766,-9820.143950
4826.444462,4364.508422,-2813.959378,-10547.562021
4826.447038,-3311.666478,8097.311678,-9092.725880
4826.449615,210.568389,-5187.639397,-10987.841379
4826.452191,2124.826469,-803.988394,-10068.997501
4826.454767,-1148.554848,8135.596840,-7944.171032
4826.457344,-2603.390989,19.142581,-10049.854920
4826.459920,689.132909,1933.400661,-10068.997501
4826.462496,650.847747,-2584.248408,-10298.708470
4826.465073,-3694.518094,2947.957443,-8939.585234
4826.467649,-57.427742,1129.412267,-9915.856854
4826.470225,1205.982590,3215.953574,-9226.723946
4826.472801,172.283227,133.998066,-10068.997501
4826.475378,-153.140646,899.701298,-9628.718142
4826.477954,612.562586,1052.841944,-9552.147819
4826.480530,708.275490,1244.267752,-10011.569758
4826.483107,-3005.385186,1990.828403,-9284.151688
4826.485683,-2679.961312,1914.258080,-9647.860723
4826.488259,593.420005,3828.516160,-9552.147819
4826.490836,-2641.676150,4307.080680,-8997.012976
4826.493412,2699.103893,-3407.379382,-11600.403965
4826.495988,-2297.109696,7101.897477,-8422.735552
4826.498565,1416.550979,-5072.783912,-10317.851051
4826.501141,3924.229064,-1186.840010,-9877.571693
4826.503717,-746.560651,5015.356170,-8499.305875
4826.506293,2392.822600,-6853.043926,-11160.124606
4826.508870,2029.113565,248.853550,-10126.425243
4826.511446,382.851616,-2220.539373,-9820.143950
4826.514022,4173.082614,-2277.967115,-10183.852986
4826.516599,401.994197,6297.909083,-8595.018779
4826.519175,344.566454,-2756.531635,-10145.567824
4826.521751,1416.550979,-76.570323,-9858.429112
4826.524328,76.570323,-899.701298,-9896.714274
4826.526904,2029.113565,497.707101,-9284.151688
4826.529480,689.132909,1588.834206,-10107.282662
4826.532057,1071.984525,-1569.691626,-9896.714274
4826.534633,555.134843,1818.545176,-9054.440718
4826.537209,4651.647134,-2239.681954,-10394.421374
4826.539786,3464.807125,-1722.832272,-9494.720077
4826.542362,-842.273555,1435.693560,-8997.012976
4826.544939,1320.838075,-5761.916821,-10547.562021
4826.547515,1416.550979,1014.556782,-9150.153622
4826.550091,-1186.840010,2852.244539,-10145.567824
4826.552668,3541.377448,-4900.500685,-11523.833642
4826.555244,-3273.381317,14108.082050,-6546.762634
4826.557821,478.564520,-2009.970984,-10011.569758
4826.560397,-2909.672282,2297.109696,-9437.292334
4826.562974,325.423874,1416.550979,-10183.852986
4826.565550,1033.699363,-2622.533570,-10413.563955
4826.568127,-3885.943902,3081.955509,-8901.300072
4826.570703,727.418070,976.271621,-9628.718142
4826.573280,19.142581,4536.791650,-8671.589102
4826.575856,-153.140646,153.140646,-9858.429112
4826.578433,478.564520,76.570323,-9552.147819
4826.581009,-440.279358,2277.967115,-9284.151688
4826.583586,937.986459,-287.138712,-10202.995566
4826.586162,-2947.957443,2775.674216,-9054.440718
4826.588738,-2584.248408,2009.970984,-9360.722011
4826.591315,1071.984525,3139.383251,-9552.147819
4826.593891,-3330.809059,5206.781978,-9111.868461
4826.596468,1378.265818,-708.275490,-10585.847182
4826.599044,-2622.533570,5283.352301,-8997.012976
4826.601621,4326.223261,-4728.217458,-9858.429112
4826.604197,1895.115499,7446.463931,-8039.883936
4826.606774,-765.703232,-4460.221326,-10872.985894
4826.609350,535.992262,-3943.371645,-10260.423309
4826.611927,1875.972918,-114.855485,-10030.712339
4826.614503,669.990328,-2143.969050,-9781.858789
4826.617080,3311.666478,3503.092286,-8690.731683
4826.619656,1875.972918,1818.545176,-9686.145885
4826.622232,1205.982590,-2718.246474,-10241.280728
4826.624809,-248.853550,880.558717,-9743.573627
4826.627385,1225.125171,-1397.408398,-9762.716208
4826.629961,1741.974853,1588.834206,-9169.296203
4826.632538,803.988394,-95.712904,-10183.852986
4826.635114,267.996131,172.283227,-9628.718142
4826.637690,1225.125171,1895.115499,-8977.870395
4826.640267,5608.776174,-3579.662610,-10566.704602
4826.642843,4173.082614,-689.132909,-9475.577496
4826.645419,-1761.117434,2029.113565,-9054.440718
4826.647996,1454.836141,-7350.751027,-10356.136213
4826.650572,1952.543242,1703.689691,-9169.296203
4826.653148,-1244.267752,2067.398726,-10107.282662
4826.655725,3081.955509,-4211.367776,-11198.409768
4826.658301,-3541.377448,14088.939469,-6929.614250
4826.660877,631.705166,3943.371645,-8958.727814
4826.663454,-2507.678085,631.705166,-9705.288466
4826.666030,325.423874,1531.406464,-10241.280728
4826.668606,1263.410333,-2143.969050,-10279.565890
4826.671183,-3560.520029,3215.953574,-8863.014910
4826.673759,478.564520,1665.404530,-9571.290400
4826.676335,-153.140646,3694.518094,-9111.868461
4826.678912,1052.841944,76.570323,-10068.997501
4826.681488,191.425808,-229.710970,-9858.429112
4826.684065,172.283227,2258.824534,-9475.577496
4826.686641,38.285162,-440.279358,-10145.567824
4826.689217,-2641.676150,4211.367776,-8939.585234
4826.691794,-2986.242605,1110.269686,-9820.143950
4826.694370,2354.537438,612.562586,-9628.718142
4826.696946,-3905.086483,9303.294269,-8441.878133
4826.699523,1895.115499,-1933.400661,-11179.267187
4826.702099,-3005.385186,6336.194245,-8480.163294
4826.704675,3656.232933,-5857.629725,-10490.134278
4826.707252,4287.938099,1799.402595,-9341.579430
4826.709828,-2143.969050,7197.610381,-8039.883936
4826.712404,3120.240670,-5666.203917,-11198.409768
4826.714981,765.703232,1071.984525,-9245.866526
4826.717557,861.416136,-1397.408398,-9781.858789
4826.720133,3598.805190,-172.283227,-9992.427178
4826.722710,1129.412267,4153.940034,-9054.440718
4826.725286,899.701298,-2584.248408,-9992.427178
4826.727861,401.994197,1071.984525,-9820.143950
4826.730437,937.986459,-1799.402595,-9973.284597
4826.733013,1588.834206,2411.965181,-8824.729749
4826.735589,1339.980656,-401.994197,-10298.708470
4826.738165,-114.855485,650.847747,-9054.440718
4826.740741,3617.947771,-440.279358,-9571.290400
4826.743317,4536.791650,-1761.117434,-10432.706536
4826.745893,440.279358,-3120.240670,-9705.288466
4826.748469,2833.101958,-2507.678085,-9877.571693
4826.751045,-1875.972918,2641.676150,-8690.731683
4826.753621,4115.654872,-5608.776174,-10758.130410
4826.756197,-2182.254211,9609.575562,-8633.303941
4826.758773,-2450.250342,-2871.387120,-8958.727814
4826.761349,1971.685822,-5915.057467,-10643.274925
4826.763925,-1416.550979,8556.733618,-7714.460062
4826.766501,-2584.248408,1167.697429,-9954.142016
4826.769077,421.136778,1454.836141,-10011.569758
4826.771653,650.847747,-976.271621,-10202.995566
4826.774229,-3254.238736,612.562586,-9245.866526
4826.776805,-153.140646,1473.978722,-9705.288466
4826.779381,842.273555,3311.666478,-9245.866526
4826.781957,382.851616,19.142581,-10164.710405
4826.784532,-708.275490,2124.826469,-9131.011042
4826.787108,1052.841944,689.132909,-10030.712339
4826.789684,-3254.238736,2067.398726,-9724.431046
4826.792260,-2105.683888,1569.691626,-9284.151688
4826.794836,-1263.410333,4019.941968,-9265.009107
4826.797412,-1129.412267,1071.984525,-10088.140082
4826.799988,-842.273555,2718.246474,-10164.710405
4826.802564,-210.568389,3120.240670,-9705.288466
4826.805140,2392.822600,1378.265818,-8843.872330
4826.807716,2718.246474,7216.752962,-8001.598774
4826.810292,-727.418070,-3158.525832,-10490.134278
4826.812868,516.849682,-4938.785846,-10566.704602
4826.815444,1722.832272,-2048.256146,-10451.849117
4826.818020,1167.697429,-555.134843,-9552.147819
4826.820596,1569.691626,5436.492947,-8537.591037
4826.823172,4039.084549,-2967.100024,-10222.138147
4826.825748,-38.285162,1684.547110,-9418.149754
4826.828323,-574.277424,-363.709035,-10470.991698
4826.830898,937.986459,-1225.125171,-9686.145885
4826.833473,1799.402595,2163.111630,-8920.442653
4826.836049,1225.125171,-306.281293,-10145.567824
4826.838624,344.566454,38.285162,-9609.575562
4826.841199,2622.533570,1990.828403,-9111.868461
4826.843774,4536.791650,-3273.381317,-10260.423309
4826.846349,2947.957443,-3215.953574,-10164.710405
4826.848924,995.414202,1933.400661,-9284.151688
4826.851500,-861.416136,-3617.947771,-9667.003304
4826.854075,3215.953574,-2431.107762,-10030.712339
4826.856650,-2354.537438,7350.751027,-8537.591037
4826.859225,-3254.238736,-459.421939,-10394.421374
4826.861800,2124.826469,497.707101,-10068.997501
4826.864376,-746.560651,7637.889739,-7905.885870
4826.866951,-3369.094221,421.136778,-9609.575562
4826.869526,306.281293,1761.117434,-10336.993632
4826.872101,1110.269686,-1933.400661,-10336.993632
4826.874676,-2756.531635,1416.550979,-9016.155557
4826.877252,-191.425808,3369.094221,-9245.866526
4826.879827,-650.847747,2986.242605,-9188.438784
4826.882402,-19.142581,-708.275490,-10202.995566
4826.884977,765.703232,784.845813,-9781.858789
4826.887552,1454.836141,1837.687757,-9265.009107
4826.890128,-3254.238736,1282.552914,-9858.429112
4826.892703,-2105.683888,2297.109696,-9322.436850
4826.895278,-1148.554848,4019.941968,-8997.012976
4826.897853,-1091.127106,325.423874,-10126.425243
4826.900428,-765.703232,3273.381317,-10317.851051
4826.903004,-957.129040,3005.385186,-9762.716208
4826.905579,1665.404530,1473.978722,-8709.874264
4826.908154,3101.098090,6585.047795,-8135.596840
4826.910729,-478.564520,-2699.103893,-10241.280728
4826.913304,612.562586,-5130.211654,-10777.272990
4826.915880,1607.976787,-1627.119368,-10413.563955
4826.918455,1301.695494,-516.849682,-9303.294269
4826.921030,2603.390989,3254.238736,-9092.725880
4826.923605,2392.822600,1052.841944,-9762.716208
4826.926180,1301.695494,-535.992262,-9743.573627
4826.928755,-459.421939,631.705166,-10126.425243
4826.931330,650.847747,-2239.681954,-10068.997501
4826.933905,1607.976787,3139.383251,-8690.731683
4826.936479,1646.261949,-1052.841944,-10490.134278
4826.939054,-784.845813,574.277424,-9475.577496
4826.941629,4287.938099,497.707101,-9265.009107
4826.944203,4307.080680,-2201.396792,-10145.567824
4826.946778,-1320.838075,-38.285162,-9667.003304
4826.949353,4134.797453,-7427.321350,-11026.126541
4826.951927,-2411.965181,5417.350366,-7867.600709
4826.954502,976.271621,-5876.772306,-10949.556218
4826.957077,2411.965181,5379.065205,-9322.436850
4826.959651,-2622.533570,6699.903280,-9322.436850
4826.962226,2029.113565,-4632.504554,-10624.132344
4826.964800,-1359.123237,8729.016845,-7408.178770
4826.967375,-3062.812928,1071.984525,-9801.001370
4826.969950,19.142581,-229.710970,-10068.997501
4826.972524,-38.285162,1684.547110,-9399.007173
4826.975099,-2526.820666,248.853550,-9762.716208
4826.977674,555.134843,727.418070,-9839.286531
4826.980248,153.140646,4287.938099,-9073.583299
4826.982823,440.279358,-1244.267752,-10317.851051
4826.985398,1033.699363,2411.965181,-9092.725880
4826.987972,-114.855485,1033.699363,-9724.431046
4826.990547,-2411.965181,2086.541307,-9820.143950
4826.993122,-3407.379382,3905.086483,-8786.444587
4826.995696,1148.554848,-2258.824534,-10317.851051
4826.998271,-2469.392923,7963.313613,-9150.153622
4827.000845,382.851616,1301.695494,-10470.991698
4827.003420,-650.847747,6910.471669,-7905.885870
4827.005995,325.423874,-3158.525832,-10088.140082
4827.008569,4689.932296,-7580.461997,-10624.132344
4827.011144,-2258.824534,7771.887805,-8039.883936
4827.013719,2622.533570,-7025.327154,-11887.542677
4827.016293,1167.697429,1148.554848,-8901.300072
4827.018868,2297.109696,937.986459,-9667.003304
4827.021443,3656.232933,-2890.529701,-10547.562021
4827.024017,459.421939,3924.229064,-8595.018779
4827.026592,823.130974,-2029.113565,-10317.851051
4827.029167,267.996131,976.271621,-9858.429112
4827.031741,918.843878,-727.418070,-9437.292334
4827.034315,1856.830338,1646.261949,-9092.725880
4827.036890,574.277424,-153.140646,-10470.991698
4827.039464,1110.269686,555.134843,-9303.294269
4827.042038,4689.932296,-1244.267752,-9552.147819
4827.044613,2163.111630,-3656.232933,-10451.849117
4827.047187,1741.974853,459.421939,-9245.866526
4827.049761,-287.138712,-1531.406464,-9265.009107
4827.052336,2833.101958,-3713.660675,-10183.852986
4827.054910,-2947.957443,7714.460062,-9073.583299
4827.057484,937.986459,-4747.360038,-11447.263318
4827.060059,937.986459,8403.592971,-8365.307810
4827.062633,-459.421939,3235.096155,-8863.014910
4827.065207,-2335.394858,1033.699363,-9131.011042
4827.067781,-287.138712,1071.984525,-10413.563955
4827.070356,842.273555,-976.271621,-10183.852986
4827.072930,-1703.689691,363.709035,-9226.723946
4827.075504,-248.853550,4153.940034,-9188.438784
4827.078079,-574.277424,2469.392923,-9303.294269
4827.080653,153.140646,497.707101,-9686.145885
4827.083227,1033.699363,-401.994197,-10222.138147
4827.085802,-612.562586,1837.687757,-9609.575562
4827.088376,-1033.699363,1531.406464,-9801.001370
4827.090950,-3330.809059,2048.256146,-9647.860723
4827.093525,1014.556782,516.849682,-9265.009107
4827.096099,-2947.957443,7484.749093,-8767.302006
4827.098673,1569.691626,-229.710970,-11274.980091
4827.101248,-3292.523898,6087.340694,-8671.589102
4827.103822,3713.660675,-5111.069074,-10068.997501
4827.106396,4919.643266,1837.687757,-9073.583299
4827.108970,-1339.980656,2105.683888,-8920.442653
4827.111545,1512.263883,-6833.901346,-11370.692995
4827.114119,2105.683888,-823.130974,-10470.991698
4827.116693,1416.550979,-1703.689691,-9590.432981
4827.119268,2373.680019,1320.838075,-9533.005238
4827.121842,1914.258080,1607.976787,-9399.007173
4827.124416,1301.695494,-478.564520,-9628.718142
4827.126991,689.132909,631.705166,-10241.280728
4827.129565,421.136778,-1493.121302,-10068.997501
4827.132139,1914.258080,2545.963246,-8614.161360
4827.134714,669.990328,-1186.840010,-10451.849117
4827.137287,1186.840010,995.414202,-9245.866526
4827.139861,4134.797453,-1282.552914,-9647.860723
4827.142434,2373.680019,-3809.373579,-10566.704602
4827.145008,1646.261949,555.134843,-9016.155557
4827.147581,459.421939,-1741.974853,-9322.436850
4827.150155,2545.963246,-3311.666478,-10088.140082
4827.152728,-2756.531635,6699.903280,-9150.153622
4827.155302,1665.404530,-5111.069074,-11638.689126
4827.157876,-172.283227,10049.854920,-8039.883936
4827.160449,210.568389,2373.680019,-9111.868461
4827.163023,-2297.109696,1416.550979,-8997.012976
4827.165596,-363.709035,1282.552914,-10528.419440
4827.168170,516.849682,-842.273555,-10241.280728
4827.170743,-1129.412267,172.283227,-9494.720077
4827.173317,-842.273555,3694.518094,-9245.866526
4827.175890,-76.570323,1646.261949,-9418.149754
4827.178464,899.701298,1301.695494,-9609.575562
4827.181037,401.994197,-95.712904,-10088.140082
4827.183611,-363.709035,1646.261949,-9647.860723
4827.186185,-382.851616,2431.107762,-9762.716208
4827.188758,-3751.945837,1952.543242,-9609.575562
4827.191332,478.564520,-1454.836141,-9667.003304
4827.193905,-2450.250342,8403.592971,-8805.587168
4827.196479,1205.982590,421.136778,-11217.552349
4827.199052,-2201.396792,6929.614250,-8327.022648
4827.201626,2316.252277,-4364.508422,-10222.138147
4827.204199,4153.940034,-3330.809059,-9762.716208
4827.206773,-1416.550979,5206.781978,-8269.594906
4827.209347,1990.828403,-6929.614250,-11791.829773
4827.211920,2220.539373,38.285162,-9934.999435
4827.214494,1416.550979,-1665.404530,-9705.288466
4827.217067,2526.820666,-880.558717,-10049.854920
4827.219641,1627.119368,1416.550979,-9111.868461
4827.222214,1378.265818,229.710970,-9686.145885
4827.224788,229.710970,1320.838075,-10279.565890
4827.227361,823.130974,-1646.261949,-9934.999435
4827.229935,2411.965181,1933.400661,-8767.302006
4827.232509,-842.273555,-401.994197,-10432.706536
4827.235082,2967.100024,-1205.982590,-9647.860723
4827.237656,3828.516160,765.703232,-9169.296203
4827.240229,-478.564520,-1473.978722,-10528.419440
4827.242802,4249.652938,-6776.473603,-10336.993632
4827.245376,-1071.984525,3713.660675,-8039.883936
4827.247949,2871.387120,-6087.340694,-11102.696864
4827.250522,-1052.841944,8384.450390,-8499.305875
4827.253095,-2833.101958,2277.967115,-10183.852986
4827.255669,1971.685822,-1569.691626,-10566.704602
4827.258242,-842.273555,8193.024582,-7580.461997
4827.260815,-3043.670347,1550.549045,-9169.296203
4827.263389,-363.709035,440.279358,-10413.563955
4827.265962,57.427742,861.416136,-9743.573627
4827.268535,-937.986459,-1186.840010,-9743.573627
4827.271108,-631.705166,3196.810994,-9590.432981
4827.273682,-153.140646,2718.246474,-9207.581365
4827.276255,746.560651,497.707101,-9647.860723
4827.278828,38.285162,19.142581,-9992.427178
4827.281402,-440.279358,2335.394858,-9494.720077
4827.283975,-2124.826469,2488.535504,-9934.999435
4827.286548,-2967.100024,1952.543242,-9360.722011
4827.289121,-2392.822600,2986.242605,-9092.725880
4827.291695,-612.562586,2143.969050,-10681.560086
4827.294268,-823.130974,3617.947771,-10126.425243
4827.296841,2737.389054,727.418070,-9150.153622
4827.299415,-708.275490,6814.758765,-7465.606512
4827.301988,3713.660675,-10624.132344,-11791.829773
4827.304561,-38.285162,535.992262,-9801.001370
4827.307135,1799.402595,-2603.390989,-10796.415571
4827.309708,1665.404530,957.129040,-8882.157491
4827.312281,2163.111630,2584.248408,-9226.723946
4827.314854,4536.791650,-1799.402595,-9820.143950
4827.317428,-172.283227,2201.396792,-9111.868461
4827.320001,267.996131,-1473.978722,-10700.702667
4827.322574,478.564520,-727.418070,-9973.284597
4827.325148,861.416136,2431.107762,-9131.011042
4827.327721,478.564520,-1225.125171,-9820.143950
4827.330294,2507.678085,1339.980656,-8901.300072
4827.332867,2928.814862,421.136778,-9590.432981
4827.335441,1914.258080,-4613.361973,-10911.271056
4827.338014,2124.826469,-57.427742,-9456.434915
4827.340587,937.986459,-478.564520,-8709.874264
4827.343141,2507.678085,-4364.508422,-9858.429112
4827.345694,-2928.814862,6106.483275,-9647.860723
4827.348247,669.990328,-4766.502619,-11868.400096
4827.350800,1837.687757,650.847747,-10126.425243
4827.353352,-229.710970,7848.458128,-8020.741355
4827.355905,-2086.541307,995.414202,-8997.012976
4827.358458,-689.132909,1205.982590,-10528.419440
4827.361011,287.138712,-880.558717,-10509.276859
4827.363564,-344.566454,-306.281293,-9494.720077
4827.366117,-1014.556782,3254.238736,-9265.009107
4827.368670,-401.994197,2756.531635,-9245.866526
4827.371223,727.418070,593.420005,-9743.573627
4827.373776,382.851616,842.273555,-9915.856854
4827.376329,-746.560651,2029.113565,-9686.145885
4827.378882,-2354.537438,2009.970984,-10030.712339
4827.381434,-2335.394858,2373.680019,-9322.436850
4827.383987,-937.986459,1052.841944,-9054.440718
4827.386540,-1761.117434,4670.789715,-10011.569758
4827.389093,306.281293,1627.119368,-10834.700733
4827.391646,2373.680019,5302.494882,-8537.591037
4827.394199,-497.707101,3751.945837,-8307.880067
4827.396752,6087.340694,-12327.822035,-11523.833642
4827.399305,267.996131,-2048.256146,-10107.282662
4827.401858,1512.263883,-2392.822600,-10911.271056
4827.404411,2124.826469,210.568389,-9322.436850
4827.406964,1569.691626,4268.795518,-8786.444587
4827.409516,3732.803256,-2545.963246,-10049.854920
4827.412069,38.285162,918.843878,-9169.296203
4827.414622,401.994197,-803.988394,-10451.849117
4827.417175,976.271621,-382.851616,-10145.567824
4827.419728,937.986459,1703.689691,-9418.149754
4827.422281,-708.275490,-172.283227,-9628.718142
4827.424834,3694.518094,-1014.556782,-9686.145885
4827.427387,3503.092286,1167.697429,-9513.862658
4827.429940,1014.556782,-3579.662610,-10566.704602
4827.432493,2775.674216,-2182.254211,-10030.712339
4827.435046,1225.125171,1205.982590,-8365.307810
4827.437598,2450.250342,-4862.215523,-9801.001370
4827.440151,-3120.240670,5857.629725,-9513.862658
4827.442704,459.421939,-4785.645200,-12002.398162
4827.445260,95.712904,9265.009107,-10451.849117
4827.447815,-593.420005,7963.313613,-8039.883936
4827.450370,-2392.822600,1550.549045,-8863.014910
4827.452926,-344.566454,765.703232,-10375.278794
4827.455481,325.423874,-612.562586,-10470.991698
4827.458036,-497.707101,-38.285162,-9571.290400
4827.460591,-765.703232,2373.680019,-9360.722011
4827.463147,-421.136778,2775.674216,-9226.723946
4827.465702,421.136778,1205.982590,-9628.718142
4827.468257,114.855485,-38.285162,-9801.001370
4827.470813,-401.994197,1473.978722,-9915.856854
4827.473368,-2852.244539,2775.674216,-9858.429112
4827.475923,-593.420005,1512.263883,-9437.292334
4827.478479,-2852.244539,3426.521963,-8633.303941
4827.481034,-516.849682,2833.101958,-10336.993632
4827.483589,-1091.127106,3464.807125,-10432.706536
4827.486144,2986.242605,95.712904,-9399.007173
4827.488700,-229.710970,6259.623922,-7561.319416
4827.491255,2469.392923,-9877.571693,-11294.122672
4827.493810,-153.140646,-325.423874,-9820.143950
4827.496366,2622.533570,-1225.125171,-10758.130410
4827.498921,1990.828403,-574.277424,-9801.001370
4827.501476,1167.697429,4498.506488,-8499.305875
4827.504032,3809.373579,-1052.841944,-9801.001370
4827.506587,-191.425808,421.136778,-9341.579430
4827.509142,727.418070,-1971.685822,-10566.704602
4827.511697,976.271621,937.986459,-9896.714274
4827.514253,574.277424,1454.836141,-9552.147819
4827.516808,-229.710970,-995.414202,-9418.149754
4827.519363,3751.945837,-497.707101,-9150.153622
4827.521919,4421.936165,-153.140646,-10011.569758
4827.524474,-1052.841944,-38.285162,-10126.425243
4827.527029,4498.506488,-7121.040058,-10892.128475
4827.529585,-612.562586,3464.807125,-7791.030386
4827.532140,2469.392923,-7178.467800,-10528.419440
4827.534695,-516.849682,7235.895542,-9131.011042
4827.537250,-3177.668413,4326.223261,-10279.565890
4827.539806,1914.258080,-2392.822600,-10604.989763
4827.542361,-803.988394,9226.723946,-7350.751027
4827.544916,-3024.527766,2143.969050,-9284.151688
4827.547474,-669.990328,-995.414202,-10375.278794
4827.550031,19.142581,1722.832272,-9973.284597
4827.552589,0.000000,-1780.260014,-10011.569758
4827.555146,-995.414202,2277.967115,-9245.866526
4827.557704,-267.996131,4287.938099,-8958.727814
4827.560261,918.843878,-784.845813,-10030.712339
4827.562819,38.285162,2354.537438,-9360.722011
4827.565376,-1110.269686,937.986459,-10126.425243
4827.567934,-2833.101958,1339.980656,-9915.856854
4827.570491,133.998066,957.129040,-8805.587168
4827.573048,-3196.810994,7140.182638,-8633.303941
4827.575606,574.277424,-114.855485,-11294.122672
4827.578163,-478.564520,8671.589102,-8499.305875
4827.580721,918.843878,-2431.107762,-10126.425243
4827.583278,4211.367776,-6814.758765,-10107.282662
4827.585836,-2239.681954,5838.487144,-7637.889739
4827.588393,2163.111630,-7580.461997,-11772.687192
4827.590951,2603.390989,344.566454,-10088.140082
4827.593508,2105.683888,1263.410333,-9628.718142
4827.596066,1933.400661,-899.701298,-9954.142016
4827.598623,1780.260014,899.701298,-8958.727814
4827.601181,497.707101,1703.689691,-9054.440718
4827.603738,823.130974,-2411.965181,-11121.839445
4827.606295,631.705166,2565.105827,-9379.864592
4827.608853,325.423874,-306.281293,-9647.860723
4827.611410,3043.670347,38.285162,-9169.296203
4827.613968,3005.385186,-133.998066,-8958.727814
4827.616525,3177.668413,-3426.521963,-10853.843314
4827.619083,3483.949706,-2756.531635,-10260.423309
4827.621640,1071.984525,861.416136,-8269.594906
4827.624198,2852.244539,-5111.069074,-9992.427178
4827.626755,-3713.660675,6297.909083,-9016.155557
4827.629313,248.853550,-4383.651003,-11753.544611
4827.631870,612.562586,8671.589102,-8958.727814
4827.634428,401.994197,4383.651003,-9035.298138
4827.636985,-2182.254211,1607.976787,-8365.307810
4827.639543,-555.134843,880.558717,-10317.851051
4827.642100,-1129.412267,-382.851616,-10088.140082
4827.644657,-593.420005,-325.423874,-10011.569758
4827.647215,401.994197,1263.410333,-9877.571693
4827.649755,-842.273555,3273.381317,-8748.159426
4827.652295,95.712904,1435.693560,-9456.434915
4827.654834,478.564520,784.845813,-9954.142016
4827.657374,-1014.556782,1990.828403,-9781.858789
4827.659914,-2488.535504,1971.685822,-9992.427178
4827.662454,478.564520,976.271621,-9647.860723
4827.664994,-3847.658741,5857.629725,-8116.454259
4827.667534,823.130974,1225.125171,-11083.554283
4827.670073,-2182.254211,6795.616184,-9016.155557
4827.672613,3407.379382,-4402.793584,-10509.276859
4827.675153,5015.356170,-765.703232,-9360.722011
4827.677693,-1780.260014,2660.818731,-8097.311678
4827.680233,1473.978722,-6948.756830,-11083.554283
4827.682773,3426.521963,-1033.699363,-10719.845248
4827.685312,1856.830338,-765.703232,-9839.286531
4827.687852,1225.125171,3924.229064,-8729.016845
4827.690392,2756.531635,1780.260014,-9207.581365
4827.692932,133.998066,631.705166,-8729.016845
4827.695472,727.418070,-1856.830338,-10872.985894
4827.698012,1263.410333,1588.834206,-10145.567824
4827.700551,382.851616,516.849682,-9303.294269
4827.703091,2392.822600,-976.271621,-9437.292334
4827.705631,3177.668413,-210.568389,-9188.438784
4827.708171,3617.947771,-2239.681954,-10375.278794
4827.710711,1091.127106,1493.121302,-10011.569758
4827.713251,2890.529701,-4134.797453,-9820.143950
4827.715790,2679.961312,-4460.221326,-9379.864592
4827.718330,-3617.947771,5589.633594,-9092.725880
4827.720870,363.709035,-4000.799387,-11830.114934
4827.723410,708.275490,8882.157491,-8805.587168
4827.725950,0.000000,3981.656806,-9303.294269
4827.728490,-2029.113565,1244.267752,-8595.018779
4827.731029,-899.701298,1914.258080,-9801.001370
4827.733569,-1205.982590,-1129.412267,-10375.278794
4827.736109,-325.423874,1091.127106,-9820.143950
4827.738649,382.851616,1167.697429,-9858.429112
4827.741189,-861.416136,2545.963246,-8958.727814
4827.743729,535.992262,1435.693560,-9265.009107
4827.746268,-535.992262,880.558717,-9877.571693
4827.748808,-880.558717,1722.832272,-9858.429112
4827.751352,-2431.107762,2297.109696,-9973.284597
4827.753897,-440.279358,-210.568389,-9513.862658
4827.756441,-3273.381317,6393.621987,-8307.880067
4827.758985,210.568389,2220.539373,-10719.845248
4827.761529,-325.423874,7925.028451,-8805.587168
4827.764073,1397.408398,-2469.392923,-10260.423309
4827.766617,4536.791650,-6623.332957,-10413.563955
4827.769161,-2699.103893,5034.498750,-7542.176835
4827.771706,1875.972918,-7101.897477,-11485.548480
4827.774250,3158.525832,363.709035,-10088.140082
4827.776794,2335.394858,1033.699363,-9781.858789
4827.779338,1799.402595,-440.279358,-9915.856854
4827.781882,2029.113565,1531.406464,-8863.014910
4827.784426,-57.427742,861.416136,-9131.011042
4827.786970,823.130974,-2871.387120,-11121.839445
4827.789515,497.707101,3675.375514,-9494.720077
4827.792059,995.414202,-689.132909,-9877.571693
4827.794603,2048.256146,-765.703232,-9092.725880
4827.797147,4173.082614,-765.703232,-8939.585234
4827.799691,669.990328,-1875.972918,-10949.556218
4827.802235,4364.508422,-6508.477472,-11313.265253
4827.804780,-478.564520,1990.828403,-7905.885870
4827.807324,2488.535504,-6699.903280,-10241.280728
4827.809868,-1646.261949,7025.327154,-8327.022648
4827.812412,-2986.242605,4115.654872,-10394.421374
4827.814956,2526.820666,-1244.267752,-11389.835576
4827.817500,-918.843878,8920.442653,-7752.745224
4827.820044,-3177.668413,1014.556782,-8997.012976
4827.822589,-382.851616,306.281293,-10088.140082
4827.825133,-19.142581,267.996131,-9724.431046
4827.827677,133.998066,-1225.125171,-10509.276859
4827.830221,-267.996131,1033.699363,-9781.858789
4827.832765,-669.990328,4307.080680,-8499.305875
4827.835309,-133.998066,-363.709035,-9820.143950
4827.837853,306.281293,2067.398726,-9743.573627
4827.840398,-2297.109696,2354.537438,-9781.858789
4827.842942,-2163.111630,631.705166,-10394.421374
4827.845486,-937.986459,1263.410333,-9303.294269
4827.848030,-3273.381317,5398.207786,-8767.302006
4827.850574,-1416.550979,2833.101958,-10643.274925
4827.853122,3637.090352,1990.828403,-9379.864592
4827.855670,555.134843,6336.194245,-8173.882002
4827.858218,2507.678085,-10700.702667,-11466.405899
4827.860766,-574.277424,-746.560651,-9131.011042
4827.863314,2239.681954,-3445.664544,-10509.276859
4827.865863,2029.113565,937.986459,-9571.290400
4827.868411,2277.967115,3503.092286,-9513.862658
4827.870959,1990.828403,-1914.258080,-9954.142016
4827.873507,1014.556782,-1378.265818,-9418.149754
4827.876055,976.271621,1550.549045,-9437.292334
4827.878603,440.279358,-1550.549045,-10566.704602
4827.881151,823.130974,3292.523898,-9552.147819
4827.883699,2163.111630,-2163.111630,-10030.712339
4827.886247,2220.539373,-689.132909,-8729.016845
4827.888795,4307.080680,-1167.697429,-9552.147819
4827.891343,1320.838075,1129.412267,-10566.704602
4827.893891,3158.525832,-4651.647134,-10394.421374
4827.896439,1091.127106,-229.710970,-8537.591037
4827.898987,-3062.812928,3081.955509,-9092.725880
4827.901535,976.271621,-4364.508422,-11523.833642
4827.904083,-669.990328,11676.974288,-8575.876198
4827.906631,669.990328,2220.539373,-9820.143950
4827.909179,-2373.680019,1990.828403,-8748.159426
4827.911728,-1531.406464,2545.963246,-9360.722011
4827.914276,-1780.260014,-1933.400661,-10126.425243
4827.916824,287.138712,1531.406464,-9762.716208
4827.919372,382.851616,1110.269686,-10164.710405
4827.921920,-210.568389,612.562586,-9399.007173
4827.924468,-842.273555,3426.521963,-8882.157491
4827.927016,-459.421939,-210.568389,-9858.429112
4827.929564,-1033.699363,2258.824534,-9647.860723
4827.932112,-2201.396792,2775.674216,-10049.854920
4827.934663,-823.130974,-2009.970984,-10164.710405
4827.937215,-2947.957443,7369.893608,-7944.171032
4827.939767,-421.136778,3426.521963,-9973.284597
4827.942318,-1091.127106,6393.621987,-9073.583299
4827.944870,3062.812928,-1818.545176,-10509.276859
4827.947421,4804.787781,-5551.348432,-11466.405899
4827.949973,-3426.521963,3598.805190,-8097.311678
4827.952524,2488.535504,-5187.639397,-10777.272990
4827.955076,2297.109696,1052.841944,-9437.292334
4827.957627,2316.252277,880.558717,-9973.284597
4827.960179,1646.261949,612.562586,-9973.284597
4827.962730,1646.261949,2373.680019,-8614.161360
4827.965282,459.421939,-1282.552914,-9399.007173
4827.967833,1071.984525,-2067.398726,-10719.845248
4827.970385,287.138712,2947.957443,-9762.716208
