#time,accel_x,accel_y,accel_z
4951.012251,593.420005,746.560651,-9647.860723
4951.014822,478.564520,669.990328,-9667.003304
4951.017394,421.136778,669.990328,-9647.860723
4951.019965,497.707101,727.418070,-9686.145885
4951.022537,497.707101,861.416136,-9724.431046
4951.025108,344.566454,612.562586,-9705.288466
4951.027679,861.416136,1320.838075,-9513.862658
4951.030251,1014.556782,19.142581,-9705.288466
4951.032822,306.281293,1550.549045,-9571.290400
4951.035393,1397.408398,823.130974,-9590.432981
4951.037964,2029.113565,1665.404530,-9571.290400
4951.040535,1933.400661,497.707101,-9628.718142
4951.043107,2143.969050,2909.672282,-9150.153622
4951.045678,3464.807125,976.271621,-9571.290400
4951.048249,-3292.523898,-612.562586,-9954.142016
4951.050820,287.138712,9667.003304,-8843.872330
4951.053391,3369.094221,3388.236802,-10241.280728
4951.055963,1493.121302,-2507.678085,-9667.003304
4951.058534,-555.134843,-287.138712,-8020.741355
4951.061105,823.130974,-6585.047795,-10528.419440
4951.063676,-1914.258080,287.138712,-10872.985894
4951.066247,-3866.801322,2967.100024,-9973.284597
4951.068819,2411.965181,0.000000,-9399.007173
4951.071390,1684.547110,2124.826469,-8384.450390
4951.073961,-2316.252277,1397.408398,-10068.997501
4951.076532,-38.285162,-421.136778,-10298.708470
4951.079103,-2029.113565,-1952.543242,-10528.419440
4951.081675,248.853550,1205.982590,-9399.007173
4951.084246,1914.258080,-2354.537438,-9590.432981
4951.086817,-153.140646,2163.111630,-8901.300072
4951.089388,-1225.125171,1435.693560,-10011.569758
4951.091959,-248.853550,38.285162,-10394.421374
4951.094531,459.421939,1531.406464,-9150.153622
4951.097102,1052.841944,-516.849682,-9533.005238
4951.099673,287.138712,95.712904,-9628.718142
4951.102244,-459.421939,1397.408398,-9667.003304
4951.104815,727.418070,-516.849682,-10164.710405
4951.107387,-555.134843,306.281293,-9705.288466
4951.109958,-899.701298,76.570323,-9609.575562
4951.112529,-2603.390989,229.710970,-9934.999435
4951.115100,-1033.699363,555.134843,-9513.862658
4951.117671,497.707101,-1148.554848,-9781.858789
4951.120243,1244.267752,2086.541307,-9934.999435
4951.122814,650.847747,-2316.252277,-9954.142016
4951.125385,689.132909,-2622.533570,-9647.860723
4951.127956,-3790.230998,-593.420005,-9820.143950
4951.130527,2277.967115,1780.260014,-9724.431046
4951.133099,-1531.406464,-1033.699363,-10394.421374
4951.135670,3522.234867,5321.637462,-8633.303941
4951.138241,1607.976787,-3579.662610,-9762.716208
4951.140812,-4230.510357,1148.554848,-10049.854920
4951.143383,2909.672282,4651.647134,-8614.161360
4951.145955,478.564520,-6642.475538,-11676.974288
4951.148526,-1914.258080,7637.889739,-8805.587168
4951.151097,5704.489078,-2354.537438,-9609.575562
4951.153668,-3656.232933,-287.138712,-9647.860723
4951.156239,842.273555,6451.049730,-8384.450390
4951.158810,5876.772306,-1282.552914,-11064.411702
4951.161382,-650.847747,1761.117434,-9418.149754
4951.163953,1378.265818,4804.787781,-8480.163294
4951.166524,861.416136,-2813.959378,-10260.423309
4951.169095,-2048.256146,401.994197,-10068.997501
4951.171666,4096.512291,4555.934230,-9399.007173
4951.174238,2679.961312,-650.847747,-10566.704602
4951.176809,-2699.103893,459.421939,-9571.290400
4951.179380,382.851616,1627.119368,-8652.446522
4951.181951,3828.516160,516.849682,-10068.997501
4951.184522,1129.412267,2852.244539,-10164.710405
4951.187093,-459.421939,2182.254211,-9207.581365
4951.189665,1014.556782,114.855485,-9265.009107
4951.192236,363.709035,784.845813,-9341.579430
4951.194807,631.705166,1110.269686,-9896.714274
4951.197378,1665.404530,899.701298,-10279.565890
4951.199949,-363.709035,765.703232,-9552.147819
4951.202521,-114.855485,784.845813,-9073.583299
4951.205092,2679.961312,937.986459,-9590.432981
4951.207663,650.847747,210.568389,-10183.852986
4951.210234,2699.103893,1550.549045,-9552.147819
4951.212805,1780.260014,803.988394,-9571.290400
4951.215377,95.712904,516.849682,-9533.005238
4951.217948,459.421939,5379.065205,-8977.870395
4951.220519,1856.830338,5991.627790,-9609.575562
4951.223090,1799.402595,363.709035,-10222.138147
4951.225661,1167.697429,2622.533570,-8977.870395
4951.228232,727.418070,-2431.107762,-9647.860723
4951.230804,823.130974,574.277424,-9418.149754
4951.233375,-114.855485,-2201.396792,-9992.427178
4951.235946,-191.425808,-957.129040,-10738.987829
4951.238516,4153.940034,8556.733618,-8078.169098
4951.241087,-765.703232,-3962.514226,-10145.567824
4951.243658,-4843.072942,4134.797453,-9513.862658
4951.246229,3694.518094,3560.520029,-8480.163294
4951.248799,-823.130974,-9322.436850,-12155.538808
4951.251370,497.707101,5264.209720,-8595.018779
4951.253941,765.703232,-5627.918755,-10336.993632
4951.256512,-2431.107762,3483.949706,-9150.153622
4951.259083,-2105.683888,1416.550979,-9915.856854
4951.261653,4211.367776,2775.674216,-9207.581365
4951.264224,574.277424,-306.281293,-10107.282662
4951.266795,-2411.965181,-4058.227130,-10298.708470
4951.269366,172.283227,1148.554848,-9073.583299
4951.271936,1148.554848,2220.539373,-9494.720077
4951.274507,-1071.984525,-1761.117434,-10700.702667
4951.277078,-574.277424,421.136778,-9341.579430
4951.279649,-306.281293,-516.849682,-9552.147819
4951.282219,918.843878,1148.554848,-9934.999435
4951.284790,727.418070,287.138712,-9571.290400
4951.287361,-382.851616,-459.421939,-9954.142016
4951.289932,-1129.412267,669.990328,-9552.147819
4951.292503,937.986459,267.996131,-9513.862658
4951.295073,803.988394,937.986459,-9667.003304
4951.297644,248.853550,421.136778,-9896.714274
4951.300215,-574.277424,363.709035,-9705.288466
4951.302786,172.283227,478.564520,-9341.579430
4951.305356,1627.119368,459.421939,-9705.288466
4951.307927,-2890.529701,-1167.697429,-10222.138147
4951.310498,-2603.390989,2411.965181,-9092.725880
4951.313069,2277.967115,-1033.699363,-9839.286531
4951.315639,1741.974853,133.998066,-10049.854920
4951.318210,-650.847747,823.130974,-9303.294269
4951.320781,1378.265818,-2756.531635,-9571.290400
4951.323352,-4019.941968,-3713.660675,-10356.136213
4951.325923,1167.697429,3043.670347,-9016.155557
4951.328493,153.140646,-2201.396792,-10643.274925
4951.331064,2641.676150,4900.500685,-8537.591037
4951.333635,-1818.545176,-3847.658741,-10260.423309
4951.336206,-708.275490,5761.916821,-8556.733618
4951.338776,2737.389054,4689.932296,-8441.878133
4951.341346,937.986459,-6910.471669,-11772.687192
4951.343917,-880.558717,7369.893608,-8997.012976
4951.346487,5570.491013,-937.986459,-9341.579430
4951.349058,-3349.951640,-650.847747,-9877.571693
4951.351628,-421.136778,5474.778109,-8652.446522
4951.354199,6202.196179,-918.843878,-10509.276859
4951.356769,-1588.834206,2258.824534,-9934.999435
4951.359339,3273.381317,2105.683888,-8920.442653
4951.361910,612.562586,-2622.533570,-10068.997501
4951.364480,-2660.818731,1627.119368,-9973.284597
4951.367051,4785.645200,5034.498750,-9188.438784
4951.369621,2775.674216,-2201.396792,-10681.560086
4951.372191,-2431.107762,2660.818731,-9188.438784
4951.374762,1110.269686,248.853550,-8901.300072
4951.377332,593.420005,210.568389,-9896.714274
4951.379903,1263.410333,3215.953574,-9762.716208
4951.382473,3158.525832,1473.978722,-9820.143950
4951.385044,-191.425808,1129.412267,-9322.436850
4951.387614,-823.130974,-57.427742,-8958.727814
4951.390184,976.271621,1856.830338,-9399.007173
4951.392755,1703.689691,555.134843,-10815.558152
4951.395325,-440.279358,612.562586,-9973.284597
4951.397896,1225.125171,1033.699363,-8422.735552
4951.400466,1722.832272,382.851616,-9513.862658
4951.403036,2029.113565,2450.250342,-9934.999435
4951.405607,-478.564520,1722.832272,-10049.854920
4951.408177,2986.242605,2794.816797,-9360.722011
4951.410748,2258.824534,784.845813,-8767.302006
4951.413318,-1531.406464,-1875.972918,-10490.134278
4951.415889,2124.826469,7676.174901,-8709.874264
4951.418459,344.566454,-727.418070,-10088.140082
4951.421029,746.560651,-114.855485,-9590.432981
4951.423600,-535.992262,-459.421939,-9781.858789
4951.426170,4823.930362,2756.531635,-9284.151688
4951.428741,-1339.980656,-3732.803256,-10930.413637
4951.431311,0.000000,8365.307810,-8441.878133
4951.433881,2852.244539,-976.271621,-9475.577496
4951.436452,-3503.092286,-8365.307810,-11734.402030
4951.439022,-1473.978722,5972.485210,-8365.307810
4951.441592,5417.350366,-3713.660675,-9934.999435
4951.444162,-2871.387120,-669.990328,-10336.993632
4951.446732,-2201.396792,2507.678085,-9016.155557
4951.449303,2277.967115,-1875.972918,-9934.999435
4951.451873,-3005.385186,478.564520,-9839.286531
4951.454443,3483.949706,3158.525832,-8901.300072
4951.457013,1952.543242,57.427742,-9743.573627
4951.459584,-4287.938099,-3273.381317,-10490.134278
4951.462154,-995.414202,-976.271621,-9571.290400
4951.464724,2239.681954,1780.260014,-9475.577496
4951.467294,248.853550,38.285162,-10049.854920
4951.469865,-2392.822600,-1225.125171,-9590.432981
4951.472435,57.427742,1799.402595,-8939.585234
4951.475005,1703.689691,-401.994197,-10164.710405
4951.477575,191.425808,555.134843,-10068.997501
4951.480145,-574.277424,823.130974,-9303.294269
4951.482716,574.277424,382.851616,-9590.432981
4951.485286,-95.712904,363.709035,-9781.858789
4951.487856,937.986459,995.414202,-9552.147819
4951.490426,57.427742,38.285162,-10088.140082
4951.492997,-1397.408398,1550.549045,-9341.579430
4951.495567,95.712904,-2431.107762,-9839.286531
4951.498137,-2220.539373,1091.127106,-9609.575562
4951.500707,-669.990328,440.279358,-10049.854920
4951.503278,2277.967115,2277.967115,-9743.573627
4951.505848,-803.988394,-1684.547110,-9820.143950
4951.508418,535.992262,-1799.402595,-8977.870395
4951.510988,-2163.111630,-3388.236802,-10490.134278
4951.513559,1339.980656,535.992262,-9647.860723
4951.516129,-918.843878,-267.996131,-10260.423309
4951.518699,1588.834206,1780.260014,-9169.296203
4951.521269,-1646.261949,-2163.111630,-10183.852986
4951.523839,-1225.125171,5206.781978,-9092.725880
4951.526410,4115.654872,-287.138712,-9552.147819
4951.528980,-1167.697429,-4804.787781,-11236.694930
4951.531550,2622.533570,9667.003304,-7523.034254
4951.534120,2928.814862,-6010.770371,-10968.698798
4951.536691,-3885.943902,4881.358104,-9207.581365
4951.539261,2488.535504,1722.832272,-9265.009107
4951.541831,3828.516160,19.142581,-10413.563955
4951.544401,-1014.556782,2660.818731,-9667.003304
4951.546970,4153.940034,363.709035,-9111.868461
4951.549540,-1205.982590,-2813.959378,-10336.993632
4951.552110,-1895.115499,3522.234867,-9226.723946
4951.554679,6374.479406,1512.263883,-9245.866526
4951.557249,306.281293,708.275490,-10451.849117
4951.559818,803.988394,4115.654872,-8652.446522
4951.562388,746.560651,-1320.838075,-9456.434915
4951.564958,-1607.976787,1761.117434,-9571.290400
4951.567527,1952.543242,401.994197,-10088.140082
4951.570097,2909.672282,1282.552914,-9992.427178
4951.572666,-535.992262,784.845813,-9533.005238
4951.575236,-306.281293,1665.404530,-9092.725880
4951.577806,1129.412267,-19.142581,-9801.001370
4951.580375,1378.265818,1473.978722,-10011.569758
4951.582945,708.275490,612.562586,-10222.138147
4951.585514,1550.549045,1550.549045,-9207.581365
4951.588084,1799.402595,1301.695494,-9092.725880
4951.590654,765.703232,325.423874,-9686.145885
4951.593223,1952.543242,3330.809059,-9456.434915
4951.595793,3675.375514,3043.670347,-9571.290400
4951.598363,-1952.543242,-1703.689691,-10604.989763
4951.600932,172.283227,5264.209720,-8614.161360
4951.603502,-459.421939,1818.545176,-9207.581365
4951.606071,3215.953574,842.273555,-9820.143950
4951.608641,-497.707101,-1205.982590,-10260.423309
4951.611211,4153.940034,3522.234867,-9226.723946
4951.613780,-765.703232,-4804.787781,-10624.132344
4951.616350,-3081.955509,6412.764568,-8480.163294
4951.618919,3732.803256,2450.250342,-9016.155557
4951.621489,-2277.967115,-6010.770371,-12136.396227
4951.624059,1607.976787,7695.317482,-7561.319416
4951.626628,4575.076811,-1493.121302,-9360.722011
4951.629198,-2201.396792,-3675.375514,-10834.700733
4951.631767,-3369.094221,3751.945837,-8709.874264
4951.634337,3062.812928,-1837.687757,-10202.995566
4951.636907,-2450.250342,57.427742,-10107.282662
4951.639476,2316.252277,3885.943902,-8518.448456
4951.642046,2163.111630,-689.132909,-9762.716208
4951.644615,-4651.647134,-3024.527766,-10796.415571
4951.647185,95.712904,2239.681954,-8958.727814
4951.649754,3005.385186,861.416136,-9743.573627
4951.652323,306.281293,-401.994197,-10030.712339
4951.654892,-2660.818731,1837.687757,-8901.300072
4951.657462,-114.855485,-1473.978722,-9686.145885
4951.660031,267.996131,478.564520,-10202.995566
4951.662600,-248.853550,1033.699363,-10011.569758
4951.665169,1569.691626,727.418070,-9533.005238
4951.667738,440.279358,363.709035,-9399.007173
4951.670308,-842.273555,-229.710970,-9667.003304
4951.672877,593.420005,1990.828403,-9781.858789
4951.675446,1052.841944,95.712904,-10126.425243
4951.678015,-1244.267752,-708.275490,-9494.720077
4951.680584,-2373.680019,478.564520,-9284.151688
4951.683154,2220.539373,746.560651,-9801.001370
4951.685723,-1875.972918,-248.853550,-10566.704602
4951.688292,-976.271621,861.416136,-9245.866526
4951.690861,2909.672282,-957.129040,-9303.294269
4951.693430,-2947.957443,-6144.768437,-10834.700733
4951.696000,593.420005,2201.396792,-8805.587168
4951.698569,-267.996131,-1033.699363,-10394.421374
4951.701138,1990.828403,5359.922624,-8977.870395
4951.703707,-1282.552914,-1856.830338,-9762.716208
4951.706276,-2067.398726,3024.527766,-9456.434915
4951.708846,3579.662610,1703.689691,-8709.874264
4951.711415,-803.988394,-6374.479406,-11581.261384
4951.713984,746.560651,9226.723946,-8365.307810
4951.716553,4651.647134,-3445.664544,-10317.851051
4951.719123,-3656.232933,2584.248408,-9456.434915
4951.721692,1397.408398,3273.381317,-8824.729749
4951.724261,4996.213589,-440.279358,-10222.138147
4951.726830,-1378.265818,746.560651,-10222.138147
4951.729399,1722.832272,2584.248408,-9265.009107
4951.731968,-535.992262,-2411.965181,-9934.999435
4951.734537,-1875.972918,3732.803256,-9073.583299
4951.737106,4689.932296,708.275490,-9590.432981
4951.739675,2201.396792,3158.525832,-9934.999435
4951.742244,1014.556782,2297.109696,-9360.722011
4951.744814,-191.425808,-1244.267752,-9820.143950
4951.747383,-1091.127106,2565.105827,-8997.012976
4951.749952,1531.406464,689.132909,-10049.854920
4951.752521,2105.683888,114.855485,-10126.425243
4951.755090,382.851616,2545.963246,-8824.729749
4951.757659,765.703232,76.570323,-9494.720077
4951.760228,-267.996131,459.421939,-9590.432981
4951.762797,1665.404530,1684.547110,-9686.145885
4951.765366,1665.404530,344.566454,-10298.708470
4951.767935,-995.414202,1761.117434,-9341.579430
4951.770504,3847.658741,2871.387120,-8709.874264
4951.773073,3311.666478,574.277424,-9934.999435
4951.775642,-2373.680019,2297.109696,-9628.718142
4951.778211,2086.541307,5245.067139,-8633.303941
4951.780780,1971.685822,-1512.263883,-11045.269122
4951.783349,-2584.248408,612.562586,-9552.147819
4951.785918,4230.510357,4345.365842,-8020.741355
4951.788487,1818.545176,-3464.807125,-10528.419440
4951.791056,-325.423874,5091.926493,-9379.864592
4951.793626,3311.666478,-1129.412267,-9667.003304
4951.796195,-2699.103893,-2756.531635,-10853.843314
4951.798764,1952.543242,9054.440718,-7637.889739
4951.801333,5532.205851,-516.849682,-8977.870395
4951.803902,-1952.543242,-3905.086483,-11198.409768
4951.806471,1148.554848,6738.188442,-8250.452325
4951.809040,-478.564520,-6374.479406,-10968.698798
4951.811609,-3101.098090,2565.105827,-9265.009107
4951.814178,2373.680019,-363.709035,-9781.858789
4951.816747,-172.283227,-2603.390989,-10145.567824
4951.819316,210.568389,3981.656806,-9111.868461
4951.821885,2258.824534,1091.127106,-9571.290400
4951.824454,-3771.088418,-3311.666478,-10222.138147
4951.827023,-1990.828403,-535.992262,-10011.569758
4951.829592,2297.109696,880.558717,-9877.571693
4951.832161,1263.410333,-593.420005,-10088.140082
4951.834729,-2297.109696,2143.969050,-8958.727814
4951.837297,-842.273555,-861.416136,-9705.288466
4951.839866,248.853550,-229.710970,-9915.856854
4951.842434,287.138712,1110.269686,-9647.860723
4951.845003,1186.840010,937.986459,-10145.567824
4951.847571,-38.285162,-497.707101,-9801.001370
4951.850139,-631.705166,1378.265818,-8901.300072
4951.852708,95.712904,-363.709035,-9973.284597
4951.855276,-612.562586,-153.140646,-10145.567824
4951.857844,-1205.982590,1282.552914,-9533.005238
4951.860413,19.142581,1665.404530,-9705.288466
4951.862981,-497.707101,-1646.261949,-9877.571693
4951.865550,-1397.408398,-1512.263883,-9552.147819
4951.868118,861.416136,2163.111630,-9628.718142
4951.870686,957.129040,-4536.791650,-10777.272990
4951.873255,-880.558717,880.558717,-9418.149754
4951.875823,-1780.260014,-2143.969050,-10298.708470
4951.878392,-497.707101,2335.394858,-9877.571693
4951.880960,2029.113565,2947.957443,-9073.583299
4951.883528,-3349.951640,-5321.637462,-11217.552349
4951.886097,3388.236802,7963.313613,-7848.458128
4951.888665,5742.774240,-4268.795518,-10088.140082
4951.891233,-3694.518094,-650.847747,-11064.411702
4951.893802,2297.109696,8020.741355,-7676.174901
4951.896370,669.990328,-4632.504554,-10777.272990
4951.898939,-708.275490,5895.914886,-8805.587168
4951.901507,1569.691626,2469.392923,-9284.151688
4951.904075,1244.267752,-133.998066,-9705.288466
4951.906644,-995.414202,4862.215523,-9284.151688
4951.909212,1244.267752,-2067.398726,-10011.569758
4951.911780,-1052.841944,1244.267752,-9954.142016
4951.914349,2852.244539,2507.678085,-9073.583299
4951.916917,4421.936165,1952.543242,-9628.718142
4951.919486,-823.130974,2258.824534,-9781.858789
4951.922054,-803.988394,306.281293,-9456.434915
4951.924622,976.271621,1167.697429,-9418.149754
4951.927191,1607.976787,-19.142581,-10030.712339
4951.929759,1014.556782,1282.552914,-9781.858789
4951.932328,1378.265818,1684.547110,-9131.011042
4951.934896,-363.709035,-287.138712,-9743.573627
4951.937464,861.416136,1588.834206,-9475.577496
4951.940032,574.277424,765.703232,-10088.140082
4951.942600,3292.523898,2201.396792,-9762.716208
4951.945168,3522.234867,1818.545176,-9169.296203
4951.947736,497.707101,2277.967115,-9303.294269
4951.950303,-957.129040,-535.992262,-9743.573627
4951.952871,1646.261949,4881.358104,-9513.862658
4951.955439,689.132909,3139.383251,-9934.999435
4951.958007,2067.398726,-172.283227,-9494.720077
4951.960575,-1378.265818,803.988394,-9092.725880
4951.963143,3330.809059,4479.363907,-9054.440718
4951.965711,-229.710970,-5685.346498,-11562.118803
4951.968279,-2813.959378,5417.350366,-9188.438784
4951.970847,4536.791650,2507.678085,-8595.018779
4951.973415,-2756.531635,-6259.623922,-11370.692995
4951.975983,267.996131,7810.172966,-7714.460062
4951.978551,3483.949706,-6202.196179,-10719.845248
4951.981119,-2775.674216,2335.394858,-9915.856854
4951.983687,-1205.982590,-803.988394,-9628.718142
4951.986255,1722.832272,-363.709035,-9245.866526
4951.988823,-2526.820666,19.142581,-9915.856854
4951.991391,2354.537438,3694.518094,-9131.011042
4951.993959,2258.824534,-1225.125171,-10241.280728
4951.996527,-5761.916821,-325.423874,-10241.280728
4951.999095,1244.267752,2009.970984,-8499.305875
4952.001663,555.134843,-3196.810994,-10394.421374
4952.004231,76.570323,1761.117434,-9858.429112
4952.006799,1741.974853,-133.998066,-9915.856854
4952.009367,-1263.410333,401.994197,-9667.003304
4952.011935,-1856.830338,-133.998066,-9456.434915
4952.014503,899.701298,325.423874,-9801.001370
4952.017071,459.421939,918.843878,-9915.856854
4952.019639,459.421939,631.705166,-9896.714274
4952.022207,-555.134843,287.138712,-9513.862658
4952.024775,-574.277424,0.000000,-9322.436850
4952.027343,-421.136778,-689.132909,-10088.140082
4952.029911,478.564520,2641.676150,-9513.862658
4952.032479,-1473.978722,-1684.547110,-10451.849117
4952.035047,-3120.240670,325.423874,-9322.436850
4952.037598,2258.824534,3617.947771,-8556.733618
4952.040148,650.847747,-6699.903280,-11217.552349
4952.042699,57.427742,-114.855485,-9820.143950
4952.045249,-2297.109696,-555.134843,-9686.145885
4952.047800,2431.107762,2277.967115,-9150.153622
4952.050350,-3675.375514,-1837.687757,-10260.423309
4952.052901,478.564520,6317.051664,-8843.872330
4952.055451,4919.643266,-2833.101958,-9781.858789
4952.058002,-1799.402595,-2565.105827,-10528.419440
4952.060553,3809.373579,9820.143950,-7427.321350
4952.063103,4957.928427,-784.845813,-9705.288466
4952.065654,-2890.529701,918.843878,-9992.427178
4952.068204,1033.699363,4211.367776,-8671.589102
4952.070755,6010.770371,-1033.699363,-10126.425243
4952.073305,-1722.832272,1493.121302,-9858.429112
4952.075856,1225.125171,669.990328,-9609.575562
4952.078406,133.998066,3177.668413,-9207.581365
4952.080957,459.421939,3081.955509,-9226.723946
4952.083507,2392.822600,-2316.252277,-10279.565890
4952.086058,1359.123237,3254.238736,-9437.292334
4952.088608,784.845813,3598.805190,-9437.292334
4952.091159,1397.408398,-401.994197,-10030.712339
4952.093709,-1186.840010,1607.976787,-9092.725880
4952.096260,1397.408398,631.705166,-9762.716208
4952.098810,2258.824534,306.281293,-10298.708470
4952.101361,-535.992262,861.416136,-9686.145885
4952.103911,918.843878,918.843878,-9111.868461
4952.106462,746.560651,287.138712,-9686.145885
4952.109012,1588.834206,1493.121302,-9686.145885
4952.111563,1856.830338,1301.695494,-9954.142016
4952.114114,2565.105827,3943.371645,-9054.440718
4952.116664,-1052.841944,-382.851616,-9724.431046
4952.119215,2182.254211,4268.795518,-8633.303941
4952.121765,1933.400661,1569.691626,-10528.419440
4952.124316,-459.421939,-172.283227,-10758.130410
4952.126866,2813.959378,5417.350366,-7963.313613
4952.129417,708.275490,-3005.385186,-9724.431046
4952.131967,1167.697429,4460.221326,-8997.012976
4952.134518,2584.248408,-2986.242605,-10260.423309
4952.137068,-3005.385186,-535.992262,-10796.415571
4952.139621,-1416.550979,8135.596840,-8173.882002
4952.142173,4173.082614,-3101.098090,-9207.581365
4952.144726,-4077.369710,-535.992262,-10183.852986
4952.147278,2660.818731,5053.641331,-8997.012976
4952.149830,593.420005,-5589.633594,-11389.835576
4952.152383,-4632.504554,2009.970984,-9169.296203
4952.154935,2545.963246,-918.843878,-9399.007173
4952.157488,-1320.838075,-2297.109696,-10164.710405
4952.160040,1071.984525,5015.356170,-8939.585234
4952.162593,2086.541307,1416.550979,-9609.575562
4952.165145,-3694.518094,-2411.965181,-10183.852986
4952.167698,-1837.687757,3120.240670,-8595.018779
4952.170250,3215.953574,-3273.381317,-10164.710405
4952.172803,76.570323,38.285162,-10451.849117
4952.175355,-267.996131,1780.260014,-9418.149754
4952.177907,421.136778,19.142581,-9647.860723
4952.180460,-1646.261949,459.421939,-9590.432981
4952.183012,631.705166,574.277424,-9571.290400
4952.185565,1071.984525,114.855485,-9915.856854
4952.188117,-516.849682,612.562586,-9954.142016
4952.190670,-708.275490,-133.998066,-9456.434915
4952.193222,1014.556782,229.710970,-9245.866526
4952.195775,-2488.535504,440.279358,-10107.282662
4952.198327,-1110.269686,-57.427742,-9820.143950
4952.200880,-382.851616,-1205.982590,-9839.286531
4952.203432,382.851616,2143.969050,-9552.147819
4952.205984,612.562586,-2986.242605,-9743.573627
4952.208537,708.275490,-1761.117434,-9801.001370
4952.211089,-2756.531635,-2335.394858,-10490.134278
4952.213642,-363.709035,3732.803256,-9456.434915
4952.216194,2967.100024,-478.564520,-9647.860723
4952.218747,-3694.518094,-1225.125171,-10394.421374
4952.221299,4479.363907,8020.741355,-7389.036189
4952.223852,3407.379382,-6202.196179,-11064.411702
4952.226404,-3388.236802,4096.512291,-10183.852986
4952.228957,4134.797453,2794.816797,-8882.157491
4952.231509,-1186.840010,-2143.969050,-10164.710405
4952.234061,-267.996131,5034.498750,-8461.020714
4952.236614,6738.188442,38.285162,-9705.288466
4952.239166,-267.996131,-172.283227,-10202.995566
4952.241721,-57.427742,1722.832272,-9628.718142
4952.244275,325.423874,-669.990328,-9686.145885
4952.246829,612.562586,4364.508422,-9054.440718
4952.249384,2603.390989,-382.851616,-9915.856854
4952.251938,1607.976787,1761.117434,-9571.290400
4952.254492,1818.545176,2794.816797,-9437.292334
4952.257047,995.414202,-574.277424,-10145.567824
4952.259601,-1416.550979,2124.826469,-8901.300072
4952.262156,478.564520,1014.556782,-9628.718142
4952.264710,1895.115499,516.849682,-10126.425243
4952.267264,172.283227,1282.552914,-9552.147819
4952.269819,382.851616,19.142581,-9533.005238
4952.272373,1359.123237,842.273555,-9341.579430
4952.274927,1971.685822,1875.972918,-9552.147819
4952.277482,3235.096155,2852.244539,-9628.718142
4952.280036,-382.851616,-172.283227,-9934.999435
4952.282590,2431.107762,5800.201982,-8327.022648
4952.285145,2545.963246,708.275490,-10088.140082
4952.287699,-210.568389,-1588.834206,-10681.560086
4952.290253,191.425808,4019.941968,-8863.014910
4952.292808,2947.957443,-1569.691626,-9667.003304
4952.295362,-650.847747,1588.834206,-9647.860723
4952.297917,3349.951640,4881.358104,-8480.163294
4952.300471,-1588.834206,-7101.897477,-12040.683323
4952.303025,-2469.392923,7599.604578,-8595.018779
4952.305580,4575.076811,-2239.681954,-9456.434915
4952.308134,-3292.523898,-995.414202,-10202.995566
4952.310688,2182.254211,5340.780043,-8595.018779
4952.313243,-38.285162,-3809.373579,-10336.993632
4952.315797,-1531.406464,593.420005,-9667.003304
4952.318351,-57.427742,-229.710970,-9934.999435
4952.320906,1244.267752,-3905.086483,-10145.567824
4952.323460,-229.710970,4345.365842,-9073.583299
4952.326014,2239.681954,1320.838075,-9322.436850
4952.328569,-3426.521963,-1052.841944,-10164.710405
4952.331123,-1990.828403,1607.976787,-8920.442653
4952.333678,2086.541307,-3637.090352,-10298.708470
4952.336232,-114.855485,1301.695494,-10049.854920
4952.338786,-478.564520,1493.121302,-9188.438784
4952.341341,153.140646,689.132909,-9571.290400
4952.343896,-478.564520,555.134843,-9552.147819
4952.346452,287.138712,153.140646,-9954.142016
4952.349008,1052.841944,1397.408398,-9724.431046
4952.351563,-363.709035,-344.566454,-9934.999435
4952.354119,-95.712904,976.271621,-9341.579430
4952.356675,-2182.254211,-1454.836141,-9915.856854
4952.359231,-2813.959378,593.420005,-9896.714274
4952.361786,2507.678085,-172.283227,-9858.429112
4952.364342,-478.564520,-937.986459,-10375.278794
4952.366898,-555.134843,593.420005,-8748.159426
4952.369453,1359.123237,-1205.982590,-9073.583299
4952.372009,-3062.812928,-4307.080680,-11064.411702
4952.374565,803.988394,4000.799387,-9628.718142
4952.377120,2009.970984,1205.982590,-9322.436850
4952.379676,-2545.963246,-4307.080680,-10719.845248
4952.382232,3062.812928,9418.149754,-7465.606512
4952.384788,6144.768437,-3426.521963,-10202.995566
4952.387343,-3732.803256,306.281293,-11121.839445
4952.389899,2526.820666,6010.770371,-8154.739421
4952.392455,823.130974,-4096.512291,-10279.565890
4952.395010,-1205.982590,5455.635528,-8441.878133
4952.397566,6814.758765,1014.556782,-9456.434915
4952.400122,-1320.838075,-95.712904,-10490.134278
4952.402678,-325.423874,2163.111630,-9552.147819
4952.405233,325.423874,-555.134843,-9628.718142
4952.407789,1684.547110,3828.516160,-8901.300072
4952.410345,1780.260014,248.853550,-9801.001370
4952.412900,1607.976787,1416.550979,-9609.575562
4952.415456,1665.404530,1225.125171,-9839.286531
4952.418012,1091.127106,306.281293,-9801.001370
4952.420567,-76.570323,1856.830338,-9111.868461
4952.423123,497.707101,516.849682,-9667.003304
4952.425679,1205.982590,1359.123237,-9724.431046
4952.428235,708.275490,727.418070,-9820.143950
4952.430790,937.986459,899.701298,-9609.575562
4952.433346,1780.260014,1569.691626,-9092.725880
4952.435902,2316.252277,2565.105827,-9399.007173
4952.438457,38.285162,-593.420005,-10356.136213
4952.441013,2679.961312,5589.633594,-8595.018779
4952.443569,2986.242605,1914.258080,-9743.573627
4952.446126,-2124.826469,-1952.543242,-10834.700733
4952.448683,1703.689691,6412.764568,-8078.169098
4952.451239,2086.541307,-1301.695494,-9858.429112
4952.453796,612.562586,1473.978722,-9954.142016
4952.456353,3311.666478,3885.943902,-8499.305875
4952.458910,-1703.689691,-6010.770371,-11466.405899
4952.461467,-1110.269686,7676.174901,-8365.307810
4952.464024,3407.379382,-3426.521963,-9724.431046
4952.466581,-3598.805190,1033.699363,-10107.282662
4952.469138,3139.383251,4134.797453,-8843.872330
4952.471695,440.279358,-5398.207786,-10892.128475
4952.474252,-5111.069074,1339.980656,-9226.723946
4952.476809,555.134843,-133.998066,-9915.856854
4952.479366,287.138712,-3598.805190,-10336.993632
4952.481923,306.281293,5149.354235,-8997.012976
4952.484480,2220.539373,133.998066,-9609.575562
4952.487037,-2852.244539,114.855485,-9839.286531
4952.489594,-2507.678085,-1378.265818,-9628.718142
4952.492151,1071.984525,-1129.412267,-9915.856854
4952.494708,1607.976787,727.418070,-9915.856854
4952.497265,784.845813,153.140646,-9992.427178
4952.499822,-421.136778,880.558717,-9456.434915
4952.502379,-555.134843,803.988394,-9054.440718
4952.504936,382.851616,459.421939,-10049.854920
4952.507493,401.994197,1148.554848,-10088.140082
4952.510049,1033.699363,497.707101,-9571.290400
4952.512606,-2239.681954,-1397.408398,-9571.290400
4952.515163,-3388.236802,1454.836141,-9073.583299
4952.517720,57.427742,-1722.832272,-10356.136213
4952.520277,1856.830338,3617.947771,-9801.001370
4952.522834,-708.275490,-3177.668413,-10298.708470
4952.525391,325.423874,-1971.685822,-9111.868461
4952.527948,-3024.527766,-3885.943902,-10183.852986
4952.530505,1856.830338,3407.379382,-9341.579430
4952.533062,-1550.549045,-3560.520029,-11140.982026
4952.535619,-1225.125171,6412.764568,-8748.159426
4952.538176,4709.074877,-727.418070,-8920.442653
4952.540733,-1435.693560,-3388.236802,-10394.421374
4952.543290,3541.377448,10872.985894,-7580.461997
4952.545847,2086.541307,-4689.932296,-11619.546546
4952.548405,-2335.394858,5359.922624,-9226.723946
4952.550963,0.000000,2411.965181,-8595.018779
4952.553522,5340.780043,-1588.834206,-9954.142016
4952.556080,-1493.121302,1205.982590,-10241.280728
4952.558638,38.285162,2182.254211,-9762.716208
4952.561196,3139.383251,5532.205851,-8556.733618
4952.563754,-746.560651,-1435.693560,-10011.569758
4952.566313,918.843878,1129.412267,-9456.434915
4952.568871,2411.965181,1895.115499,-9360.722011
4952.571429,765.703232,401.994197,-10222.138147
4952.573987,937.986459,2603.390989,-9533.005238
4952.576545,612.562586,784.845813,-9188.438784
4952.579104,746.560651,1186.840010,-9265.009107
4952.581662,267.996131,382.851616,-9781.858789
4952.584220,1301.695494,1091.127106,-9858.429112
4952.586778,1569.691626,1416.550979,-9667.003304
4952.589336,1627.119368,880.558717,-9552.147819
4952.591895,1454.836141,2986.242605,-8920.442653
4952.594453,1856.830338,-401.994197,-9724.431046
4952.597011,1722.832272,3139.383251,-9609.575562
4952.599569,1339.980656,5704.489078,-9207.581365
4952.602127,3675.375514,4460.221326,-8901.300072
4952.604686,-1799.402595,-746.560651,-10030.712339
4952.607244,1875.972918,1512.263883,-9035.298138
4952.609802,1244.267752,-3905.086483,-10930.413637
4952.612360,3369.094221,6661.618118,-8518.448456
4952.614918,-976.271621,-4441.078746,-10662.417506
4952.617477,-4862.215523,3215.953574,-9418.149754
4952.620035,3464.807125,3522.234867,-8346.165229
4952.622593,0.000000,-6680.760699,-11657.831707
4952.625151,-19.142581,6967.899411,-9571.290400
4952.627709,-1646.261949,-1435.693560,-9801.001370
4952.630268,746.560651,-497.707101,-9571.290400
4952.632826,-1301.695494,593.420005,-9801.001370
4952.635384,1225.125171,-3751.945837,-10336.993632
4952.637942,-191.425808,3005.385186,-9513.862658
4952.640500,1225.125171,2220.539373,-9284.151688
4952.643059,-1301.695494,-1225.125171,-9992.427178
4952.645617,-4000.799387,19.142581,-9360.722011
4952.648175,1493.121302,-267.996131,-9418.149754
4952.650717,2469.392923,-612.562586,-10356.136213
4952.653259,-153.140646,2143.969050,-9513.862658
4952.655801,-267.996131,-325.423874,-9399.007173
4952.658343,38.285162,114.855485,-9226.723946
4952.660886,153.140646,918.843878,-9896.714274
4952.663428,516.849682,1378.265818,-10222.138147
4952.665970,-440.279358,-1952.543242,-10068.997501
4952.668512,-2756.531635,1071.984525,-9073.583299
4952.671054,-1454.836141,-1167.697429,-9762.716208
4952.673596,1301.695494,2852.244539,-9877.571693
4952.676138,57.427742,-784.845813,-9915.856854
4952.678680,1435.693560,-2009.970984,-9265.009107
4952.681222,-2909.672282,-4689.932296,-10394.421374
4952.683765,1990.828403,3005.385186,-8977.870395
4952.686307,-1665.404530,-3828.516160,-11064.411702
4952.688849,-1627.119368,6910.471669,-9016.155557
4952.691391,4996.213589,229.710970,-9169.296203
4952.693933,-1225.125171,-3962.514226,-10509.276859
4952.696475,3445.664544,11045.269122,-7178.467800
4952.699017,2239.681954,-4383.651003,-9839.286531
4952.701559,-1301.695494,746.560651,-9820.143950
4952.704101,-382.851616,2431.107762,-8863.014910
4952.706644,5187.639397,-1818.545176,-10049.854920
4952.709186,-746.560651,1320.838075,-9915.856854
4952.711728,-95.712904,2297.109696,-9571.290400
4952.714270,3732.803256,4326.223261,-8920.442653
4952.716812,-1454.836141,-1320.838075,-10260.423309
4952.719354,1990.828403,2507.678085,-9131.011042
4952.721896,2411.965181,995.414202,-9399.007173
4952.724438,-287.138712,-593.420005,-10241.280728
4952.726980,38.285162,2890.529701,-9552.147819
4952.729523,2029.113565,803.988394,-9513.862658
4952.732065,555.134843,631.705166,-9494.720077
4952.734607,76.570323,306.281293,-9667.003304
4952.737149,1971.685822,1416.550979,-9513.862658
4952.739691,1627.119368,995.414202,-9820.143950
4952.742233,1607.976787,2297.109696,-9609.575562
4952.744775,1914.258080,-363.709035,-9705.288466
4952.747317,1473.978722,3694.518094,-8977.870395
4952.749859,3483.949706,6068.198114,-9265.009107
4952.752405,3081.955509,1071.984525,-10030.712339
4952.754950,-669.990328,1646.261949,-9934.999435
4952.757495,19.142581,210.568389,-9284.151688
4952.760041,1971.685822,1493.121302,-10068.997501
4952.762586,4575.076811,5206.781978,-8633.303941
4952.765131,-2143.969050,-4670.789715,-11294.122672
4952.767677,-4479.363907,4785.645200,-9131.011042
4952.770222,3751.945837,1741.974853,-8786.444587
4952.772767,-1225.125171,-5570.491013,-11485.548480
4952.775313,497.707101,6891.329088,-8039.883936
4952.777858,823.130974,-4689.932296,-10643.274925
4952.780403,-2833.101958,306.281293,-9954.142016
4952.782949,765.703232,-287.138712,-9954.142016
4952.785494,-899.701298,-4268.795518,-10336.993632
4952.788039,-267.996131,4058.227130,-9092.725880
4952.790585,1646.261949,823.130974,-9399.007173
4952.793130,-1493.121302,-574.277424,-10279.565890
4952.795675,-3254.238736,1741.974853,-9418.149754
4952.798220,2450.250342,-3388.236802,-9801.001370
4952.800766,-153.140646,555.134843,-9954.142016
4952.803311,-1148.554848,1225.125171,-10049.854920
4952.805856,1378.265818,1091.127106,-9475.577496
4952.808402,612.562586,-287.138712,-9150.153622
4952.810947,-1225.125171,555.134843,-9858.429112
4952.813492,650.847747,631.705166,-9801.001370
4952.816038,-650.847747,-784.845813,-10107.282662
4952.818583,-2890.529701,210.568389,-9552.147819
4952.821128,1186.840010,1895.115499,-9016.155557
4952.823674,-1588.834206,-3464.807125,-10662.417506
4952.826219,-1646.261949,784.845813,-9379.864592
4952.828764,2603.390989,823.130974,-9131.011042
4952.831310,-535.992262,-4670.789715,-10604.989763
4952.833855,-1627.119368,1780.260014,-10145.567824
4952.836400,172.283227,5398.207786,-8537.591037
4952.838946,-937.986459,-5972.485210,-11408.978157
4952.841491,-95.712904,6776.473603,-8671.589102
4952.844036,6967.899411,2431.107762,-8441.878133
4952.846582,-1646.261949,-4402.793584,-11351.550414
4952.849127,-363.709035,7637.889739,-8078.169098
4952.851672,1320.838075,-3943.371645,-10566.704602
4952.854220,-937.986459,4058.227130,-9035.298138
4952.856769,5647.061336,3732.803256,-8977.870395
4952.859317,593.420005,133.998066,-9628.718142
4952.861865,-1895.115499,899.701298,-9781.858789
4952.864414,1512.263883,3522.234867,-9303.294269
4952.866962,3503.092286,650.847747,-9877.571693
4952.869510,-823.130974,76.570323,-9839.286531
4952.872059,1129.412267,2737.389054,-8729.016845
4952.874607,1895.115499,-172.283227,-10049.854920
4952.877155,306.281293,1933.400661,-9609.575562
4952.879704,995.414202,689.132909,-9647.860723
4952.882252,574.277424,861.416136,-9705.288466
4952.884800,535.992262,574.277424,-9494.720077
4952.887348,1665.404530,1665.404530,-9533.005238
4952.889897,363.709035,1301.695494,-9915.856854
4952.892445,4364.508422,3120.240670,-9150.153622
4952.894993,2833.101958,1091.127106,-9686.145885
4952.897542,-1761.117434,4192.225195,-9379.864592
4952.900090,3196.810994,4479.363907,-8729.016845
4952.902638,746.560651,-306.281293,-10719.845248
4952.905187,-899.701298,-38.285162,-9954.142016
4952.907735,1225.125171,1282.552914,-8977.870395
4952.910283,4709.074877,4996.213589,-8652.446522
4952.912831,-1186.840010,-4153.940034,-10872.985894
4952.915380,-4747.360038,3483.949706,-9781.858789
4952.917928,3847.658741,4153.940034,-8365.307810
4952.920476,-287.138712,-7561.319416,-11983.255581
4952.923025,-593.420005,6431.907149,-8097.311678
4952.925573,363.709035,-3598.805190,-10241.280728
4952.928121,-1741.974853,-57.427742,-9896.714274
4952.930670,344.566454,-76.570323,-9934.999435
4952.933218,-555.134843,-2411.965181,-10183.852986
4952.935768,-229.710970,3503.092286,-8843.872330
4952.938319,784.845813,555.134843,-9418.149754
4952.940869,-880.558717,-459.421939,-10394.421374
4952.943419,-1990.828403,1646.261949,-9437.292334
4952.945970,765.703232,-2794.816797,-9801.001370
4952.948520,401.994197,-248.853550,-9781.858789
4952.951070,-267.996131,1837.687757,-9762.716208
4952.953621,1282.552914,535.992262,-9877.571693
4952.956171,-287.138712,784.845813,-9226.723946
4952.958721,-210.568389,-267.996131,-9743.573627
4952.961271,-516.849682,-574.277424,-9954.142016
4952.963822,-1837.687757,497.707101,-9858.429112
4952.966372,1665.404530,1110.269686,-9533.005238
4952.968922,-3024.527766,-2258.824534,-10183.852986
4952.971473,-1665.404530,1799.402595,-8748.159426
4952.974023,2928.814862,-650.847747,-9265.009107
4952.976573,-2201.396792,-6967.899411,-11485.548480
4952.979124,880.558717,4441.078746,-8748.159426
4952.981674,325.423874,-3847.658741,-10432.706536
4952.984224,-3790.230998,-2105.683888,-10547.562021
4952.986775,3503.092286,10700.702667,-7101.897477
4952.989325,5455.635528,-5398.207786,-11045.269122
4952.991875,-2852.244539,2947.957443,-10317.851051
4952.994426,2890.529701,2833.101958,-8671.589102
4952.996976,325.423874,-1186.840010,-10011.569758
4952.999526,-1512.263883,3196.810994,-9207.581365
4953.002077,5666.203917,-267.996131,-9877.571693
4953.004627,-210.568389,-76.570323,-10298.708470
4953.007177,-459.421939,2641.676150,-9456.434915
4953.009728,4709.074877,4383.651003,-8154.739421
4953.012278,133.998066,-861.416136,-10662.417506
4953.014828,-153.140646,3617.947771,-9399.007173
4953.017379,3330.809059,861.416136,-9073.583299
4953.019929,210.568389,-306.281293,-10011.569758
4953.022479,191.425808,2201.396792,-9475.577496
4953.025029,1914.258080,440.279358,-9705.288466
4953.027580,1205.982590,1014.556782,-9494.720077
4953.030130,0.000000,478.564520,-9781.858789
4953.032680,1895.115499,1493.121302,-9322.436850
4953.035231,2565.105827,-306.281293,-9877.571693
4953.037781,2086.541307,5187.639397,-9150.153622
4953.040331,3981.656806,1952.543242,-9418.149754
4953.042882,-1780.260014,-1837.687757,-10317.851051
4953.045432,727.418070,8212.167163,-8365.307810
4953.047982,1818.545176,1301.695494,-9839.286531
4953.050533,2699.103893,1646.261949,-9513.862658
4953.053083,-1339.980656,-3560.520029,-10260.423309
4953.055633,4077.369710,3732.803256,-8805.587168
4953.058186,3215.953574,1071.984525,-9456.434915
4953.060738,-4479.363907,-5187.639397,-11753.544611
4953.063291,1875.972918,8690.731683,-7503.891674
4953.065844,2967.100024,-5130.211654,-10202.995566
4953.068396,-2909.672282,1339.980656,-9743.573627
4953.070949,-2105.683888,-382.851616,-9590.432981
4953.073501,1933.400661,-708.275490,-9858.429112
4953.076054,-650.847747,803.988394,-9915.856854
4953.078606,-210.568389,-3771.088418,-10298.708470
4953.081159,-38.285162,3445.664544,-8614.161360
4953.083711,-784.845813,1971.685822,-9705.288466
4953.086264,153.140646,-1129.412267,-10202.995566
4953.088817,-1263.410333,2009.970984,-9360.722011
4953.091369,76.570323,-1339.980656,-9724.431046
4953.093922,1052.841944,210.568389,-9628.718142
4953.096474,-287.138712,1244.267752,-9667.003304
4953.099027,-76.570323,555.134843,-10068.997501
4953.101579,708.275490,478.564520,-9379.864592
4953.104132,-918.843878,-516.849682,-9647.860723
4953.106685,-1627.119368,-229.710970,-9801.001370
4953.109237,1531.406464,1493.121302,-9571.290400
4953.111790,-2679.961312,-1416.550979,-10528.419440
4953.114342,-1856.830338,478.564520,-9226.723946
4953.116895,2431.107762,325.423874,-8595.018779
4953.119447,-1856.830338,-6565.905214,-11102.696864
4953.122000,918.843878,2718.246474,-9284.151688
4953.124552,-478.564520,-3541.377448,-10566.704602
4953.127105,-2833.101958,5781.059402,-9245.866526
4953.129658,3043.670347,3024.527766,-8595.018779
4953.132210,210.568389,-4747.360038,-10987.841379
4953.134763,-1914.258080,4996.213589,-9896.714274
4953.137315,3522.234867,1033.699363,-9360.722011
4953.139870,-57.427742,325.423874,-9628.718142
4953.142424,-1569.691626,2143.969050,-9188.438784
4953.144979,5551.348432,-1282.552914,-9973.284597
4953.147533,-248.853550,1033.699363,-9896.714274
4953.150088,516.849682,2967.100024,-9379.864592
4953.152643,2526.820666,2335.394858,-9016.155557
4953.155197,-172.283227,3885.943902,-9322.436850
4953.157752,3215.953574,-229.710970,-9896.714274
4953.160306,1895.115499,-669.990328,-9571.290400
4953.162861,-1205.982590,1569.691626,-9609.575562
4953.165415,1971.685822,669.990328,-9954.142016
4953.167970,1627.119368,669.990328,-9724.431046
4953.170524,-267.996131,1071.984525,-9360.722011
4953.173079,2220.539373,689.132909,-9667.003304
4953.175633,746.560651,19.142581,-9686.145885
4953.178188,2794.816797,4441.078746,-9399.007173
4953.180743,5053.641331,440.279358,-10011.569758
4953.183297,-1761.117434,2718.246474,-9150.153622
4953.185852,1263.410333,5742.774240,-8269.594906
4953.188406,2431.107762,-1014.556782,-11102.696864
4953.190961,-1148.554848,1014.556782,-10068.997501
4953.193515,2009.970984,4039.084549,-8537.591037
4953.196070,5225.924558,2852.244539,-8556.733618
4953.198624,-2354.537438,-4460.221326,-10796.415571
4953.201179,-4326.223261,5493.920690,-9475.577496
4953.203734,4747.360038,-861.416136,-9552.147819
4953.206288,-2220.539373,-3771.088418,-11006.983960
4953.208843,555.134843,5934.200048,-7963.313613
4953.211397,1282.552914,-4613.361973,-10624.132344
4953.213952,-4096.512291,861.416136,-9667.003304
4953.216506,1493.121302,478.564520,-9934.999435
4953.219061,-401.994197,-593.420005,-10164.710405
4953.221615,133.998066,3560.520029,-8518.448456
4953.224170,421.136778,-1952.543242,-10011.569758
4953.226724,-708.275490,1244.267752,-10126.425243
4953.229279,-344.566454,382.851616,-9781.858789
4953.231834,0.000000,-995.414202,-9915.856854
4953.234388,-784.845813,133.998066,-9533.005238
4953.236943,727.418070,708.275490,-9399.007173
4953.239497,-38.285162,363.709035,-10049.854920
4953.242053,0.000000,861.416136,-9992.427178
4953.244609,-689.132909,-880.558717,-9571.290400
4953.247165,-1531.406464,-153.140646,-9686.145885
4953.249721,1167.697429,2009.970984,-9418.149754
4953.252277,-1971.685822,-2143.969050,-10470.991698
4953.254833,-2890.529701,746.560651,-9475.577496
4953.257389,2584.248408,1416.550979,-8901.300072
4953.259945,-842.273555,-7293.323285,-10949.556218
4953.262501,210.568389,2890.529701,-9016.155557
4953.265057,689.132909,-3426.521963,-10624.132344
4953.267613,-4039.084549,2756.531635,-10126.425243
4953.270169,3005.385186,11006.983960,-7159.325219
4953.272725,6623.332957,-3732.803256,-10260.423309
4953.275281,-2756.531635,2048.256146,-10356.136213
4953.277837,2048.256146,3771.088418,-8671.589102
4953.280393,1493.121302,-1167.697429,-10183.852986
4953.282949,-2201.396792,2756.531635,-9418.149754
4953.285505,5225.924558,-861.416136,-9743.573627
4953.288061,19.142581,-267.996131,-10011.569758
4953.290617,-133.998066,3407.379382,-9456.434915
4953.293173,2660.818731,2354.537438,-8977.870395
4953.295729,1033.699363,2737.389054,-9934.999435
4953.298285,1071.984525,1052.841944,-9724.431046
4953.300841,1512.263883,153.140646,-9131.011042
4953.303397,-401.994197,1052.841944,-9877.571693
4953.305953,1071.984525,210.568389,-10260.423309
4953.308509,957.129040,1244.267752,-9418.149754
4953.311065,-248.853550,1091.127106,-9552.147819
4953.313621,1110.269686,727.418070,-9781.858789
4953.316177,2545.963246,1378.265818,-9207.581365
4953.318733,2545.963246,3062.812928,-9533.005238
4953.321289,1895.115499,2737.389054,-9475.577496
4953.323845,-57.427742,708.275490,-9016.155557
4953.326400,1167.697429,3771.088418,-9801.001370
4953.328956,306.281293,2603.390989,-9877.571693
4953.331512,4039.084549,5225.924558,-8614.161360
4953.334068,-516.849682,-5130.211654,-10432.706536
4953.336624,-1148.554848,2143.969050,-9437.292334
4953.339180,3311.666478,57.427742,-9131.011042
4953.341736,-3579.662610,-4441.078746,-11657.831707
4953.344294,-1665.404530,5915.057467,-8729.016845
4953.346851,3541.377448,-325.423874,-8958.727814
4953.349408,-1359.123237,-1416.550979,-10356.136213
4953.351965,-3043.670347,1435.693560,-9207.581365
4953.354523,2622.533570,-344.566454,-9762.716208
4953.357080,19.142581,535.992262,-10145.567824
4953.359637,-2067.398726,-4096.512291,-10509.276859
4953.362195,267.996131,3541.377448,-8327.022648
4953.364752,-57.427742,-631.705166,-10068.997501
4953.367309,-650.847747,-765.703232,-10490.134278
4953.369866,-459.421939,2928.814862,-8958.727814
4953.372424,1397.408398,-1167.697429,-9801.001370
4953.374981,-803.988394,-727.418070,-9934.999435
4953.377538,-784.845813,1684.547110,-9399.007173
4953.380096,1741.974853,114.855485,-9934.999435
4953.382653,-1052.841944,191.425808,-9896.714274
4953.385210,-1933.400661,-76.570323,-9437.292334
4953.387767,1148.554848,1454.836141,-9341.579430
4953.390325,-2316.252277,-2239.681954,-10490.134278
4953.392882,-2679.961312,861.416136,-9399.007173
4953.395439,727.418070,1071.984525,-9456.434915
4953.397997,995.414202,-4651.647134,-10068.997501
4953.400554,-555.134843,976.271621,-9456.434915
4953.403111,1033.699363,-1627.119368,-10145.567824
4953.405668,-3771.088418,-2316.252277,-11313.265253
4953.408226,3426.521963,10470.991698,-7101.897477
4953.410783,4383.651003,-4823.930362,-10413.563955
4953.413340,-1990.828403,4402.793584,-9973.284597
4953.415898,3081.955509,2220.539373,-9150.153622
4953.418455,708.275490,133.998066,-9896.714274
4953.421012,-1665.404530,2890.529701,-9399.007173
4953.423569,5321.637462,2354.537438,-8882.157491
4953.426127,1129.412267,-2239.681954,-10432.706536
4953.428684,-1550.549045,2967.100024,-9762.716208
4953.431241,2699.103893,3081.955509,-8671.589102
4953.433799,1895.115499,4307.080680,-9571.290400
4953.436356,1646.261949,-382.851616,-10260.423309
4953.438913,363.709035,1282.552914,-9035.298138
4953.441470,76.570323,401.994197,-9475.577496
4953.444028,1091.127106,95.712904,-10298.708470
4953.446586,1244.267752,1148.554848,-9494.720077
4953.449145,-689.132909,784.845813,-9437.292334
4953.451703,2373.680019,1071.984525,-9513.862658
4953.454262,1493.121302,1895.115499,-9399.007173
4953.456821,3215.953574,3349.951640,-9552.147819
4953.459379,0.000000,133.998066,-9973.284597
4953.461938,2009.970984,5991.627790,-8499.305875
4953.464497,2086.541307,2009.970984,-10030.712339
4953.467055,497.707101,-153.140646,-10164.710405
4953.469614,-1550.549045,-1990.828403,-10088.140082
4953.472173,4192.225195,4670.789715,-8614.161360
4953.474731,-689.132909,-5838.487144,-10892.128475
4953.477290,-4670.789715,3809.373579,-9360.722011
4953.479849,4211.367776,2067.398726,-9016.155557
4953.482407,-1416.550979,-6163.911018,-11657.831707
4953.484966,-1052.841944,6795.616184,-7944.171032
4953.487524,1646.261949,-3503.092286,-10528.419440
4953.490083,-2622.533570,-306.281293,-9915.856854
4953.492642,1225.125171,765.703232,-9609.575562
4953.495200,-669.990328,-1550.549045,-10068.997501
4953.497759,-459.421939,1493.121302,-8939.585234
4953.500318,-1014.556782,-1244.267752,-9934.999435
4953.502876,459.421939,1665.404530,-10145.567824
4953.505435,555.134843,-267.996131,-9877.571693
4953.507994,-784.845813,382.851616,-9303.294269
4953.510552,-210.568389,650.847747,-9533.005238
4953.513111,1454.836141,114.855485,-9954.142016
4953.515670,-1110.269686,95.712904,-9839.286531
4953.518228,555.134843,1091.127106,-9609.575562
4953.520787,-478.564520,-1665.404530,-9820.143950
4953.523345,-2143.969050,2526.820666,-9226.723946
4953.525904,-1129.412267,-1799.402595,-10356.136213
4953.528463,-1052.841944,-1435.693560,-9973.284597
4953.531021,-133.998066,2143.969050,-9284.151688
4953.533580,1167.697429,-4594.219392,-10126.425243
4953.536139,76.570323,76.570323,-9418.149754
4953.538697,153.140646,-2105.683888,-10107.282662
4953.541256,-3503.092286,-1263.410333,-11217.552349
4953.543815,3235.096155,9360.722011,-7523.034254
4953.546373,7637.889739,-363.709035,-9111.868461
4953.548933,-1799.402595,-382.851616,-10451.849117
4953.551492,669.990328,6374.479406,-8173.882002
4953.554052,1875.972918,-2316.252277,-10834.700733
4953.556611,-1761.117434,3101.098090,-9456.434915
4953.559170,5417.350366,880.558717,-9150.153622
4953.561730,746.560651,-1971.685822,-10336.993632
4953.564289,-1014.556782,4077.369710,-9475.577496
4953.566849,2392.822600,2488.535504,-9035.298138
4953.569408,3847.658741,2813.959378,-9992.427178
4953.571968,76.570323,-153.140646,-10126.425243
4953.574527,555.134843,1493.121302,-8537.591037
4953.577086,1091.127106,593.420005,-9705.288466
4953.579646,76.570323,497.707101,-10566.704602
4953.582205,593.420005,1531.406464,-9513.862658
4953.584765,2124.826469,114.855485,-9188.438784
4953.587324,669.990328,1531.406464,-9724.431046
4953.589884,2641.676150,2565.105827,-9131.011042
4953.592443,1856.830338,899.701298,-10241.280728
4953.595002,1780.260014,2143.969050,-9399.007173
4953.597562,2450.250342,3943.371645,-9016.155557
4953.600121,-57.427742,267.996131,-10432.706536
4953.602681,1914.258080,6029.912952,-8422.735552
4953.605240,842.273555,-2258.824534,-9533.005238
4953.607799,-2469.392923,-210.568389,-10222.138147
4953.610359,650.847747,6451.049730,-8441.878133
4953.612918,2641.676150,-5723.631659,-10126.425243
4953.615478,-3866.801322,1263.410333,-10222.138147
4953.618037,1493.121302,3158.525832,-8786.444587
4953.620597,363.709035,-2584.248408,-10394.421374
4953.623156,-3273.381317,1627.119368,-9475.577496
4953.625715,2852.244539,-191.425808,-9533.005238
4953.628275,957.129040,-172.283227,-9743.573627
4953.630834,-4153.940034,-3483.949706,-10547.562021
4953.633394,-842.273555,1627.119368,-8939.585234
4953.635953,1703.689691,995.414202,-9686.145885
4953.638513,-267.996131,-1091.127106,-10470.991698
4953.641072,95.712904,2431.107762,-8958.727814
4953.643631,76.570323,-1339.980656,-9743.573627
4953.646191,-689.132909,344.566454,-10011.569758
4953.648750,-95.712904,1052.841944,-9801.001370
4953.651310,631.705166,0.000000,-9877.571693
4953.653871,-995.414202,133.998066,-9590.432981
4953.656431,-2143.969050,1378.265818,-9475.577496
4953.658991,-1493.121302,-287.138712,-9686.145885
4953.661551,1607.976787,-1875.972918,-10088.140082
4953.664111,-1895.115499,-1244.267752,-10298.708470
4953.666672,1971.685822,-497.707101,-8595.018779
4953.669232,153.140646,-1933.400661,-9705.288466
4953.671792,-555.134843,306.281293,-9724.431046
4953.674352,-3560.520029,-4268.795518,-11562.118803
4953.676912,3062.812928,9609.575562,-7982.456194
4953.679473,7350.751027,-1741.974853,-9686.145885
4953.682033,-2124.826469,1014.556782,-9973.284597
4953.684593,-746.560651,7025.327154,-8365.307810
4953.687153,937.986459,-2009.970984,-10681.560086
4953.689713,-344.566454,2699.103893,-9169.296203
4953.692273,4709.074877,3483.949706,-8805.587168
4953.694834,2258.824534,-3254.238736,-10509.276859
4953.697394,-2182.254211,3254.238736,-9341.579430
4953.699954,1971.685822,3062.812928,-8767.302006
4953.702514,2354.537438,2756.531635,-10068.997501
4953.705074,995.414202,861.416136,-10107.282662
4953.707635,2392.822600,382.851616,-9016.155557
4953.710195,1741.974853,631.705166,-9628.718142
4953.712755,-689.132909,861.416136,-10145.567824
4953.715315,1320.838075,1129.412267,-9820.143950
4953.717875,2660.818731,957.129040,-9571.290400
4953.720436,1761.117434,1359.123237,-9207.581365
4953.722996,2105.683888,3426.521963,-8939.585234
4953.725556,363.709035,-899.701298,-10566.704602
4953.728116,2967.100024,6451.049730,-8882.157491
4953.730676,2909.672282,2775.674216,-9667.003304
4953.733236,2967.100024,3254.238736,-9226.723946
4953.735797,-2392.822600,-3311.666478,-10030.712339
4953.738357,2143.969050,4498.506488,-8748.159426
4953.740917,2431.107762,-4823.930362,-10758.130410
4953.743477,-4115.654872,478.564520,-10317.851051
4953.746037,3426.521963,6163.911018,-7657.032320
4953.748598,-248.853550,-7427.321350,-11485.548480
4953.751158,-2622.533570,5302.494882,-8709.874264
4953.753719,1320.838075,-1990.828403,-10183.852986
4953.756280,-574.277424,-1186.840010,-10011.569758
4953.758841,-669.990328,459.421939,-9628.718142
4953.761401,-746.560651,-765.703232,-9628.718142
4953.763962,-1512.263883,-382.851616,-9188.438784
4953.766523,-1875.972918,95.712904,-9915.856854
4953.769084,1895.115499,1416.550979,-10088.140082
4953.771645,1244.267752,-76.570323,-9801.001370
4953.774206,-1052.841944,1244.267752,-9016.155557
4953.776767,-248.853550,191.425808,-9494.720077
4953.779328,516.849682,-19.142581,-10049.854920
4953.781889,-248.853550,1110.269686,-9934.999435
4953.784450,803.988394,210.568389,-9609.575562
4953.787011,-3330.809059,-191.425808,-9552.147819
4953.789572,-2450.250342,95.712904,-9322.436850
4953.792132,382.851616,-1990.828403,-10279.565890
4953.794693,-784.845813,478.564520,-10356.136213
4953.797254,784.845813,-1550.549045,-9207.581365
4953.799815,1282.552914,-1301.695494,-9341.579430
4953.802376,-612.562586,-2488.535504,-10030.712339
4953.804937,-4326.223261,-1588.834206,-11083.554283
4953.807498,4134.797453,9590.432981,-7925.028451
4953.810059,7752.745224,516.849682,-9207.581365
4953.812620,-1914.258080,-1397.408398,-10145.567824
4953.815181,344.566454,6853.043926,-7676.174901
4953.817742,2220.539373,-1895.115499,-10949.556218
4953.820303,-1895.115499,2794.816797,-9705.288466
4953.822863,5436.492947,650.847747,-9303.294269
4953.825424,1339.980656,-2967.100024,-10336.993632
4953.827985,-497.707101,4441.078746,-8939.585234
4953.830546,2067.398726,3139.383251,-8709.874264
4953.833107,-210.568389,3139.383251,-10049.854920
4953.835668,1607.976787,1148.554848,-9801.001370
4953.838229,1799.402595,650.847747,-9150.153622
4953.840790,-287.138712,153.140646,-9628.718142
4953.843351,-516.849682,1014.556782,-9762.716208
4953.845912,2431.107762,1167.697429,-9877.571693
4953.848473,1722.832272,937.986459,-9820.143950
4953.851034,2201.396792,2909.672282,-9188.438784
4953.853594,2431.107762,1990.828403,-9111.868461
4953.856156,-153.140646,-995.414202,-10011.569758
4953.858718,2545.963246,2584.248408,-10317.851051
4953.861279,823.130974,2124.826469,-10260.423309
4953.863841,3024.527766,6393.621987,-8384.450390
4953.866403,-689.132909,-2909.672282,-9341.579430
4953.868964,-3560.520029,708.275490,-9839.286531
4953.871526,4613.361973,880.558717,-9762.716208
4953.874087,-2775.674216,-7695.317482,-12270.394293
4953.876649,784.845813,8059.026517,-7599.604578
4953.879211,1684.547110,-3771.088418,-9494.720077
4953.881772,-3062.812928,2143.969050,-9513.862658
4953.884334,-2890.529701,2450.250342,-9590.432981
4953.886895,3426.521963,-382.851616,-9915.856854
4953.889457,612.562586,-689.132909,-9954.142016
4953.892019,-3847.658741,-2163.111630,-10011.569758
4953.894580,191.425808,937.986459,-8709.874264
4953.897142,-1129.412267,-325.423874,-10528.419440
4953.899704,344.566454,1129.412267,-10298.708470
4953.902265,2584.248408,689.132909,-9399.007173
4953.904827,-1416.550979,-287.138712,-9379.864592
4953.907388,-1569.691626,421.136778,-9092.725880
4953.909950,1531.406464,1110.269686,-9992.427178
4953.912512,1282.552914,-574.277424,-10394.421374
4953.915073,-2813.959378,1741.974853,-9360.722011
4953.917635,-1761.117434,-2277.967115,-9379.864592
4953.920196,-2641.676150,-823.130974,-9801.001370
4953.922758,497.707101,2947.957443,-9839.286531
4953.925320,1225.125171,-4536.791650,-10470.991698
4953.927881,727.418070,-497.707101,-9399.007173
4953.930443,-2660.818731,-4938.785846,-10088.140082
4953.933004,-1167.697429,3981.656806,-9456.434915
4953.935566,3847.658741,8269.594906,-8173.882002
4953.938128,2756.531635,-4058.227130,-11006.983960
4953.940689,-382.851616,6948.756830,-8920.442653
4953.943251,3081.955509,727.418070,-8863.014910
4953.945813,-229.710970,1186.840010,-9762.716208
4953.948374,-1818.545176,1052.841944,-10011.569758
4953.950936,4555.934230,-2297.109696,-10681.560086
4953.953497,1493.121302,3024.527766,-9054.440718
4953.956059,3081.955509,2775.674216,-8863.014910
4953.958621,1359.123237,2277.967115,-8939.585234
4953.961183,-937.986459,2679.961312,-10068.997501
4953.963745,2603.390989,1052.841944,-10088.140082
4953.966307,2660.818731,535.992262,-9456.434915
4953.968869,-1052.841944,210.568389,-9456.434915
4953.971431,1761.117434,995.414202,-9705.288466
4953.973992,1052.841944,421.136778,-9915.856854
4953.976554,2220.539373,1837.687757,-9513.862658
4953.979116,2947.957443,2220.539373,-9762.716208
4953.981678,287.138712,2048.256146,-9322.436850
4953.984240,2813.959378,5034.498750,-8403.592971
4953.986802,3637.090352,1282.552914,-10470.991698
4953.989364,172.283227,842.273555,-10451.849117
4953.991926,1646.261949,6393.621987,-8327.022648
4953.994488,1397.408398,-1550.549045,-9226.723946
4953.997050,-3407.379382,-1014.556782,-9915.856854
4953.999612,3617.947771,4364.508422,-9035.298138
4954.002174,-861.416136,-9437.292334,-12346.964616
4954.004736,-1550.549045,5532.205851,-8767.302006
4954.007298,2182.254211,-746.560651,-8231.309744
4954.009860,516.849682,-3120.240670,-10394.421374
4954.012421,-3598.805190,2373.680019,-9437.292334
4954.014983,3024.527766,1129.412267,-9686.145885
4954.017545,1397.408398,-1607.976787,-10107.282662
4954.020107,-5398.207786,-2201.396792,-10049.854920
4954.022669,-459.421939,2009.970984,-8575.876198
4954.025231,1895.115499,-1607.976787,-10451.849117
4954.027793,-746.560651,1263.410333,-10356.136213
4954.030355,1435.693560,1780.260014,-9226.723946
4954.032917,440.279358,-1550.549045,-9647.860723
4954.035479,-1952.543242,1282.552914,-9245.866526
4954.038041,1416.550979,861.416136,-10126.425243
4954.040603,1014.556782,229.710970,-10222.138147
4954.043165,-2565.105827,-1780.260014,-9762.716208
4954.045727,-3981.656806,-478.564520,-9360.722011
4954.048288,1225.125171,2450.250342,-9533.005238
4954.050850,401.994197,-5417.350366,-10968.698798
4954.053412,1167.697429,133.998066,-9245.866526
4954.055974,-2201.396792,-3617.947771,-9820.143950
4954.058536,995.414202,4402.793584,-8920.442653
4954.061099,440.279358,-2411.965181,-10356.136213
4954.063661,-995.414202,1454.836141,-10509.276859
4954.066223,6144.768437,7829.315547,-7695.317482
4954.068785,0.000000,-4211.367776,-10011.569758
4954.071348,-1244.267752,4192.225195,-9226.723946
4954.073910,-957.129040,-1531.406464,-10164.710405
4954.076472,1646.261949,-172.283227,-10164.710405
4954.079035,3675.375514,5742.774240,-8805.587168
4954.081597,3885.943902,-1052.841944,-9839.286531
4954.084159,-2699.103893,937.986459,-9858.429112
4954.086721,-440.279358,3426.521963,-9284.151688
4954.089284,3292.523898,708.275490,-9973.284597
4954.091846,1627.119368,1110.269686,-9705.288466
4954.094408,440.279358,1397.408398,-9226.723946
4954.096971,2373.680019,-38.285162,-9896.714274
4954.099533,153.140646,1110.269686,-9628.718142
4954.102095,2373.680019,2163.111630,-9322.436850
4954.104658,3464.807125,1952.543242,-9915.856854
4954.107220,-1110.269686,1091.127106,-9820.143950
4954.109782,2699.103893,4938.785846,-8116.454259
4954.112344,3503.092286,1646.261949,-10049.854920
4954.114907,-95.712904,267.996131,-10815.558152
4954.117469,2335.394858,7044.469734,-8422.735552
4954.120031,1301.695494,1722.832272,-8824.729749
4954.122594,-1914.258080,-4900.500685,-10700.702667
4954.125156,-344.566454,6795.616184,-8403.592971
4954.127718,4517.649069,-5742.774240,-10796.415571
4954.130280,-3483.949706,-248.853550,-10643.274925
4954.132843,76.570323,3235.096155,-8422.735552
4954.135405,708.275490,-1990.828403,-10107.282662
4954.137967,-3579.662610,2641.676150,-9341.579430
4954.140530,3139.383251,995.414202,-9667.003304
4954.143075,1359.123237,-1914.258080,-10107.282662
4954.145621,-4957.928427,-1761.117434,-10107.282662
4954.148167,-287.138712,669.990328,-8575.876198
4954.150712,1473.978722,-803.988394,-10241.280728
4954.153258,-727.418070,1359.123237,-10279.565890
4954.155804,1761.117434,1512.263883,-9284.151688
4954.158349,593.420005,-918.843878,-9456.434915
4954.160895,-2029.113565,746.560651,-9418.149754
4954.163441,2258.824534,1435.693560,-9954.142016
4954.165987,-1263.410333,-1588.834206,-10490.134278
4954.168532,-2373.680019,708.275490,-9226.723946
4954.171078,-899.701298,-1378.265818,-9533.005238
4954.173624,-1091.127106,-248.853550,-10222.138147
4954.176169,-440.279358,-497.707101,-9513.862658
4954.178715,2124.826469,-918.843878,-9341.579430
4954.181261,-1071.984525,-5053.641331,-10643.274925
4954.183806,-3311.666478,1282.552914,-10145.567824
4954.186352,2699.103893,5149.354235,-8499.305875
4954.188898,267.996131,-4115.654872,-11083.554283
4954.191443,2029.113565,9513.862658,-8499.305875
4954.193989,3273.381317,344.566454,-7982.456194
4954.196535,1875.972918,-421.136778,-10260.423309
4954.199080,-2182.254211,1512.263883,-9647.860723
4954.201626,4766.502619,-2794.816797,-10222.138147
4954.204172,1186.840010,1665.404530,-9475.577496
4954.206718,2699.103893,4211.367776,-9092.725880
4954.209263,133.998066,1225.125171,-9418.149754
4954.211809,-1952.543242,3005.385186,-9628.718142
4954.214355,3101.098090,-344.566454,-10241.280728
4954.216900,1933.400661,1627.119368,-9494.720077
4954.219446,-210.568389,344.566454,-10107.282662
4954.221992,1512.263883,555.134843,-9820.143950
4954.224537,1531.406464,1607.976787,-9169.296203
4954.227083,2316.252277,2220.539373,-9667.003304
4954.229629,1512.263883,1301.695494,-10279.565890
4954.232174,2048.256146,1990.828403,-8843.872330
4954.234720,2029.113565,2756.531635,-9322.436850
4954.237266,689.132909,2507.678085,-10260.423309
4954.239811,4517.649069,7982.456194,-8212.167163
4954.242357,-1339.980656,-3809.373579,-10528.419440
4954.244905,-3637.090352,-478.564520,-9934.999435
4954.247454,3732.803256,3177.668413,-8480.163294
4954.250002,-1818.545176,-10202.995566,-12404.392358
4954.252550,-937.986459,6336.194245,-8748.159426
4954.255098,2009.970984,-1091.127106,-9150.153622
4954.257647,-1646.261949,1875.972918,-9475.577496
4954.260195,-2871.387120,1646.261949,-9571.290400
4954.262743,3062.812928,-2411.965181,-10049.854920
4954.265291,-918.843878,-306.281293,-10336.993632
4954.267839,401.994197,-478.564520,-10126.425243
4954.270388,-1091.127106,-1818.545176,-9226.723946
4954.272936,-1665.404530,2163.111630,-9399.007173
4954.275484,1416.550979,-306.281293,-10241.280728
4954.278032,1741.974853,1359.123237,-9647.860723
4954.280581,-803.988394,287.138712,-9418.149754
4954.283129,-248.853550,-191.425808,-9590.432981
4954.285677,1359.123237,2220.539373,-9533.005238
4954.288225,-1244.267752,-2354.537438,-10413.563955
4954.290773,-2220.539373,1263.410333,-9245.866526
4954.293322,-1110.269686,0.000000,-9494.720077
4954.295870,-2277.967115,-1703.689691,-10624.132344
4954.298418,-1320.838075,-382.851616,-9379.864592
4954.300966,2545.963246,-210.568389,-9150.153622
4954.303515,784.845813,-4287.938099,-10604.989763
4954.306063,-3924.229064,-1378.265818,-10432.706536
4954.308611,3369.094221,6661.618118,-8097.311678
4954.311159,1416.550979,-3445.664544,-10777.272990
4954.313707,-497.707101,7905.885870,-9284.151688
4954.316256,3656.232933,1741.974853,-8920.442653
4954.318804,172.283227,-1091.127106,-10413.563955
4954.321352,-2201.396792,1225.125171,-9609.575562
4954.323900,5053.641331,-2411.965181,-9934.999435
4954.326449,1186.840010,191.425808,-9877.571693
4954.328997,1665.404530,5225.924558,-8805.587168
4954.331545,1339.980656,1665.404530,-9188.438784
4954.334093,-1205.982590,2909.672282,-9762.716208
4954.336641,2641.676150,-746.560651,-10088.140082
4954.339190,1741.974853,1359.123237,-9207.581365
4954.341738,-459.421939,1339.980656,-9762.716208
4954.344286,880.558717,823.130974,-9647.860723
4954.346837,1952.543242,2124.826469,-8786.444587
4954.349387,2297.109696,2048.256146,-9762.716208
4954.351938,1493.121302,-1071.984525,-10451.849117
4954.354489,1971.685822,5953.342629,-8173.882002
4954.357039,3464.807125,3656.232933,-9437.292334
4954.359590,1244.267752,-210.568389,-10432.706536
4954.362141,-1684.547110,5493.920690,-8690.731683
4954.364692,3177.668413,1607.976787,-9169.296203
4954.367242,-1493.121302,-5225.924558,-10892.128475
4954.369793,-4039.084549,4058.227130,-9073.583299
4954.372344,4785.645200,650.847747,-9399.007173
4954.374894,-2029.113565,-5398.207786,-11562.118803
4954.377445,-2258.824534,5589.633594,-8078.169098
4954.379996,2431.107762,-3062.812928,-10375.278794
4954.382546,-3809.373579,-57.427742,-9973.284597
4954.385097,1799.402595,3349.951640,-8805.587168
4954.387648,2431.107762,-2201.396792,-10049.854920
4954.390198,-3866.801322,-1416.550979,-10413.563955
4954.392749,-1186.840010,-2143.969050,-9035.298138
4954.395300,1684.547110,574.277424,-9934.999435
4954.397850,440.279358,1052.841944,-10241.280728
4954.400401,842.273555,708.275490,-9035.298138
4954.402952,-306.281293,95.712904,-9379.864592
4954.405502,57.427742,1703.689691,-9705.288466
4954.408053,153.140646,-1703.689691,-10317.851051
4954.410604,-2009.970984,1320.838075,-9379.864592
4954.413155,-1627.119368,-1952.543242,-10030.712339
4954.415705,210.568389,2488.535504,-9245.866526
4954.418256,-2373.680019,-1435.693560,-9705.288466
4954.420807,1301.695494,-593.420005,-9494.720077
4954.423357,-153.140646,-5474.778109,-10547.562021
4954.425908,-1780.260014,1512.263883,-10145.567824
4954.428459,2603.390989,3196.810994,-9016.155557
4954.431009,3560.520029,-2565.105827,-10356.136213
4954.433560,-2029.113565,6202.196179,-9724.431046
4954.436111,3120.240670,3407.379382,-8652.446522
4954.438661,1397.408398,612.562586,-9839.286531
4954.441212,-1703.689691,191.425808,-9839.286531
4954.443763,3158.525832,-3158.525832,-10394.421374
4954.446313,1933.400661,4326.223261,-8863.014910
4954.448850,3158.525832,3043.670347,-9590.432981
4954.451386,-363.709035,516.849682,-9934.999435
4954.453922,-899.701298,3292.523898,-8920.442653
4954.456458,2450.250342,-1186.840010,-10126.425243
4954.458994,1569.691626,1301.695494,-9341.579430
4954.461529,-210.568389,765.703232,-9915.856854
4954.464065,1359.123237,287.138712,-9934.999435
4954.466601,1205.982590,2258.824534,-8939.585234
4954.469137,2029.113565,1493.121302,-9609.575562
4954.471673,2392.822600,-478.564520,-10317.851051
4954.474208,1722.832272,4670.789715,-8690.731683
4954.476744,1359.123237,4900.500685,-9092.725880
4954.479280,3847.658741,2316.252277,-8709.874264
4954.481816,-1722.832272,-2067.398726,-10107.282662
4954.484352,267.996131,4000.799387,-9169.296203
4954.486887,2737.389054,-5340.780043,-10260.423309
4954.489423,-3005.385186,-1320.838075,-10336.993632
4954.491959,2718.246474,5915.057467,-8231.309744
4954.494495,-555.134843,-6642.475538,-11562.118803
4954.497031,-2392.822600,5053.641331,-8595.018779
4954.499567,2105.683888,-2086.541307,-10202.995566
4954.502102,-2526.820666,-2392.822600,-10279.565890
4954.504638,555.134843,4000.799387,-9513.862658
4954.507174,1818.545176,-153.140646,-9839.286531
4954.509710,-2450.250342,-765.703232,-9705.288466
4954.512246,-2163.111630,-287.138712,-9322.436850
4954.514781,1875.972918,1186.840010,-9934.999435
4954.517317,478.564520,-382.851616,-10490.134278
4954.519853,-229.710970,1454.836141,-8767.302006
4954.522389,1990.828403,574.277424,-9284.151688
4954.524925,-2258.824534,-727.418070,-10279.565890
4954.527461,-593.420005,1110.269686,-9360.722011
4954.529996,-1014.556782,-1971.685822,-10126.425243
4954.532532,459.421939,1359.123237,-9571.290400
4954.535068,-2890.529701,-2871.387120,-10049.854920
4954.537604,382.851616,-1416.550979,-9399.007173
4954.540140,-1454.836141,-2392.822600,-10011.569758
4954.542675,1933.400661,2584.248408,-9054.440718
4954.545211,-1780.260014,-5283.352301,-11121.839445
4954.547747,-19.142581,5934.200048,-9073.583299
4954.550287,6451.049730,3043.670347,-8690.731683
4954.552827,-1435.693560,-784.845813,-10624.132344
4954.555367,133.998066,6029.912952,-8901.300072
4954.557907,650.847747,-1014.556782,-9781.858789
4954.560447,1091.127106,957.129040,-9169.296203
4954.562987,3962.514226,1952.543242,-9245.866526
4954.565527,1799.402595,-3062.812928,-10643.274925
4954.568067,-1435.693560,5149.354235,-9341.579430
4954.570607,1282.552914,3024.527766,-9016.155557
4954.573147,1186.840010,1454.836141,-9609.575562
4954.575687,1263.410333,-574.277424,-9781.858789
4954.578227,1780.260014,1761.117434,-9456.434915
4954.580767,765.703232,-191.425808,-10432.706536
4954.583307,1110.269686,1895.115499,-9073.583299
4954.585846,2239.681954,2431.107762,-9016.155557
4954.588386,1933.400661,-1052.841944,-10375.278794
4954.590926,2297.109696,3905.086483,-9169.296203
4954.593466,2622.533570,5838.487144,-8882.157491
4954.596006,2277.967115,382.851616,-10356.136213
4954.598546,-2641.676150,3426.521963,-9437.292334
4954.601086,2890.529701,3560.520029,-8346.165229
4954.603626,-899.701298,-6029.912952,-11160.124606
4954.606166,-3885.943902,2871.387120,-9322.436850
4954.608706,3905.086483,1971.685822,-8939.585234
4954.611246,-1550.549045,-6451.049730,-11696.116869
4954.613786,-2584.248408,4996.213589,-8403.592971
4954.616326,2335.394858,-2220.539373,-10202.995566
4954.618866,-3426.521963,-133.998066,-10088.140082
4954.621406,1301.695494,3751.945837,-8805.587168
4954.623946,2526.820666,-2641.676150,-10088.140082
4954.626486,-3522.234867,-1378.265818,-10566.704602
4954.629026,-1914.258080,842.273555,-9245.866526
4954.631566,2526.820666,1167.697429,-9552.147819
4954.634106,803.988394,114.855485,-10413.563955
4954.636646,-957.129040,880.558717,-9303.294269
4954.639186,1397.408398,1359.123237,-8997.012976
4954.641726,-478.564520,-1225.125171,-10260.423309
4954.644266,-2584.248408,937.986459,-9877.571693
4954.646805,-1110.269686,-842.273555,-9820.143950
4954.649345,1225.125171,1167.697429,-9820.143950
4954.651889,-2986.242605,-3426.521963,-10126.425243
4954.654433,-153.140646,-880.558717,-9265.009107
4954.656976,-1722.832272,-4785.645200,-10470.991698
4954.659520,2048.256146,4575.076811,-8901.300072
4954.662064,1933.400661,-3273.381317,-10585.847182
4954.664607,-1780.260014,2335.394858,-9973.284597
4954.667151,4670.789715,7829.315547,-7484.749093
4954.669695,-153.140646,-3426.521963,-11102.696864
4954.672238,-287.138712,7350.751027,-8748.159426
4954.674782,1741.974853,-746.560651,-10049.854920
4954.677326,727.418070,1052.841944,-9150.153622
4954.679869,4019.941968,4536.791650,-8614.161360
4954.682413,2182.254211,-3043.670347,-10700.702667
4954.684957,-2239.681954,4173.082614,-9628.718142
4954.687500,1205.982590,3235.096155,-9150.153622
4954.690044,2545.963246,114.855485,-9571.290400
4954.692588,325.423874,937.986459,-9169.296203
4954.695131,937.986459,1339.980656,-9724.431046
4954.697675,899.701298,287.138712,-10356.136213
4954.700219,1359.123237,1856.830338,-8901.300072
4954.702762,421.136778,2565.105827,-9590.432981
4954.705306,4613.361973,2871.387120,-9494.720077
4954.707850,3771.088418,1952.543242,-9533.005238
4954.710393,-593.420005,1761.117434,-10222.138147
4954.712937,2967.100024,8327.022648,-8288.737486
4954.715480,-95.712904,-2947.957443,-10183.852986
4954.718024,-2163.111630,3637.090352,-9150.153622
4954.720568,4479.363907,-3062.812928,-9781.858789
4954.723111,-1971.685822,-5934.200048,-11351.550414
4954.725655,995.414202,7657.032320,-7905.885870
4954.728199,306.281293,-5781.059402,-9647.860723
4954.730742,-1091.127106,2699.103893,-9265.009107
4954.733286,-2794.816797,2392.822600,-9456.434915
4954.735830,2871.387120,-3675.375514,-10317.851051
4954.738373,-1780.260014,114.855485,-10030.712339
4954.740917,880.558717,401.994197,-9609.575562
4954.743461,-612.562586,-1033.699363,-9494.720077
4954.746004,-3139.383251,689.132909,-9609.575562
4954.748548,1148.554848,918.843878,-9877.571693
4954.751092,2239.681954,229.710970,-10068.997501
4954.753639,-861.416136,421.136778,-9571.290400
4954.756186,95.712904,401.994197,-9245.866526
4954.758733,-1148.554848,-497.707101,-10088.140082
4954.761280,-2124.826469,-382.851616,-10011.569758
4954.763828,1493.121302,1052.841944,-9494.720077
4954.766375,-2699.103893,-3120.240670,-10451.849117
4954.768922,-1359.123237,-133.998066,-8920.442653
4954.771469,401.994197,-612.562586,-9456.434915
4954.774016,1397.408398,-3043.670347,-10413.563955
4954.776563,-2986.242605,-3254.238736,-10949.556218
4954.779111,-95.712904,5953.342629,-8997.012976
4954.781658,6814.758765,2392.822600,-8824.729749
4954.784205,-1818.545176,-478.564520,-10413.563955
4954.786752,-287.138712,8671.589102,-7829.315547
4954.789299,3809.373579,-995.414202,-10643.274925
4954.791846,-669.990328,516.849682,-9552.147819
4954.794394,3790.230998,-2641.676150,-9724.431046
4954.796941,2316.252277,1761.117434,-9571.290400
4954.799488,1014.556782,4651.647134,-9303.294269
4954.802035,689.132909,1454.836141,-9226.723946
4954.804582,1244.267752,784.845813,-9667.003304
4954.807129,1550.549045,-344.566454,-9437.292334
4954.809677,1550.549045,1722.832272,-9456.434915
4954.812224,344.566454,229.710970,-10164.710405
4954.814771,1627.119368,1033.699363,-9207.581365
4954.817318,-1014.556782,3215.953574,-8997.012976
4954.819865,5647.061336,1435.693560,-9858.429112
4954.822412,3579.662610,995.414202,-9992.427178
4954.824960,-1397.408398,4498.506488,-9437.292334
4954.827507,4881.358104,6891.329088,-8499.305875
4954.830054,1397.408398,-1665.404530,-9686.145885
4954.832601,-3732.803256,2239.681954,-9475.577496
4954.835148,4632.504554,0.000000,-9188.438784
4954.837695,-2029.113565,-9954.142016,-12212.966550
4954.840243,-421.136778,1875.972918,-9915.856854
4954.842790,803.988394,-76.570323,-9494.720077
4954.845337,38.285162,1856.830338,-9322.436850
4954.847884,-3751.945837,3560.520029,-9111.868461
4954.850431,3273.381317,-2450.250342,-10088.140082
4954.852978,-1454.836141,-1684.547110,-10336.993632
4954.855528,-440.279358,497.707101,-9724.431046
4954.858078,325.423874,-784.845813,-9437.292334
4954.860628,-2890.529701,1244.267752,-9628.718142
4954.863178,727.418070,114.855485,-9743.573627
4954.865728,1952.543242,1091.127106,-10030.712339
4954.868278,-861.416136,-440.279358,-9820.143950
4954.870828,-918.843878,995.414202,-9360.722011
4954.873378,-823.130974,-1416.550979,-10126.425243
4954.875928,-2220.539373,382.851616,-9858.429112
4954.878478,516.849682,2392.822600,-9533.005238
4954.881028,-1378.265818,-3694.518094,-10241.280728
4954.883578,325.423874,-957.129040,-9207.581365
4954.886127,-2775.674216,-4900.500685,-10260.423309
4954.888677,2258.824534,3732.803256,-9207.581365
4954.891227,3311.666478,2258.824534,-9169.296203
4954.893777,-995.414202,-2565.105827,-10604.989763
4954.896327,3560.520029,11236.694930,-7618.747158
4954.898877,2220.539373,-1454.836141,-10222.138147
4954.901427,-172.283227,3579.662610,-9628.718142
4954.903977,-95.712904,-861.416136,-10126.425243
4954.906527,2239.681954,267.996131,-9494.720077
4954.909077,4307.080680,3235.096155,-8690.731683
4954.911627,1914.258080,-2660.818731,-10566.704602
4954.914177,-2258.824534,5168.496816,-9284.151688
4954.916727,-421.136778,3235.096155,-9150.153622
4954.919276,3043.670347,-1263.410333,-9839.286531
4954.921826,172.283227,1837.687757,-9399.007173
4954.924376,1703.689691,1033.699363,-9781.858789
4954.926926,689.132909,19.142581,-9839.286531
4954.929476,-861.416136,3369.094221,-8863.014910
4954.932026,5455.635528,306.281293,-9609.575562
4954.934576,2239.681954,1493.121302,-10068.997501
4954.937126,-229.710970,6795.616184,-8805.587168
4954.939676,4900.500685,7714.460062,-8250.452325
4954.942226,-976.271621,-3254.238736,-10777.272990
4954.944776,-727.418070,5072.783912,-8805.587168
4954.947326,3139.383251,-5608.776174,-10298.708470
4954.949876,-3139.383251,-1282.552914,-10394.421374
4954.952426,2220.539373,5513.063270,-8135.596840
4954.954975,-497.707101,-6795.616184,-11370.692995
4954.957528,-2660.818731,3598.805190,-9169.296203
4954.960081,1837.687757,-1856.830338,-10164.710405
4954.962633,-2890.529701,-1359.123237,-10088.140082
4954.965186,-1339.980656,2603.390989,-9150.153622
4954.967738,2679.961312,899.701298,-9456.434915
4954.970291,-1263.410333,-1320.838075,-10202.995566
4954.972843,-2813.959378,746.560651,-9475.577496
4954.975396,2182.254211,-210.568389,-9801.001370
4954.977949,612.562586,76.570323,-9934.999435
4954.980501,-2067.398726,1435.693560,-9341.579430
4954.983054,1952.543242,727.418070,-9475.577496
4954.985606,-1722.832272,-1397.408398,-10260.423309
4954.988159,-3043.670347,784.845813,-9552.147819
4954.990711,325.423874,1512.263883,-9705.288466
4954.993264,-784.845813,-3139.383251,-10394.421374
4954.995816,-57.427742,-1110.269686,-9035.298138
4954.998369,-2775.674216,-5053.641331,-10317.851051
4955.000922,2009.970984,4134.797453,-9169.296203
4955.003474,2603.390989,-2967.100024,-10356.136213
4955.006027,-2163.111630,1684.547110,-10317.851051
4955.008579,5053.641331,8977.870395,-7561.319416
4955.011132,-133.998066,-3483.949706,-10834.700733
4955.013684,-1033.699363,7408.178770,-8461.020714
4955.016237,-306.281293,-363.709035,-9973.284597
4955.018790,2450.250342,-172.283227,-9571.290400
4955.021342,4134.797453,2871.387120,-8786.444587
4955.023895,1684.547110,-2124.826469,-10394.421374
4955.026447,-1263.410333,5532.205851,-9054.440718
4955.029000,937.986459,2469.392923,-9360.722011
4955.031552,1473.978722,-114.855485,-9552.147819
4955.034105,459.421939,823.130974,-9475.577496
4955.036658,1856.830338,1435.693560,-9915.856854
4955.039210,1282.552914,574.277424,-9686.145885
4955.041763,-708.275490,1971.685822,-9284.151688
4955.044315,5091.926493,2909.672282,-9245.866526
4955.046868,4575.076811,631.705166,-10011.569758
4955.049420,-899.701298,2622.533570,-9820.143950
4955.051973,3751.945837,8499.305875,-8212.167163
4955.054526,-803.988394,-2928.814862,-10624.132344
4955.057078,-612.562586,4804.787781,-8843.872330
4955.059633,2890.529701,-4460.221326,-9992.427178
4955.062187,-2277.967115,-3656.232933,-10911.271056
4955.064742,-210.568389,6565.905214,-8212.167163
4955.067296,612.562586,-3292.523898,-10011.569758
4955.069851,-1493.121302,3158.525832,-9360.722011
4955.072405,-880.558717,861.416136,-9705.288466
4955.074960,248.853550,-5034.498750,-10356.136213
4955.077515,-1703.689691,1761.117434,-9360.722011
4955.080069,2297.109696,1071.984525,-9494.720077
4955.082624,-1052.841944,-1129.412267,-10049.854920
4955.085178,-2565.105827,708.275490,-9399.007173
4955.087733,1205.982590,382.851616,-9686.145885
4955.090287,1454.836141,401.994197,-9915.856854
4955.092842,-382.851616,248.853550,-9705.288466
4955.095396,-401.994197,306.281293,-9571.290400
4955.097951,-1569.691626,-842.273555,-9801.001370
4955.100505,229.710970,459.421939,-9762.716208
4955.103060,-2526.820666,-1110.269686,-10394.421374
4955.105615,-1454.836141,-555.134843,-9360.722011
4955.108169,1378.265818,-57.427742,-8939.585234
4955.110724,-612.562586,-5895.914886,-10700.702667
4955.113278,-2220.539373,478.564520,-10222.138147
4955.115833,3637.090352,8595.018779,-8173.882002
4955.118387,5321.637462,-2469.392923,-10356.136213
4955.120942,-3081.955509,5455.635528,-9533.005238
4955.123496,2163.111630,5570.491013,-8078.169098
4955.126051,2545.963246,38.285162,-10279.565890
4955.128606,-1359.123237,19.142581,-10260.423309
4955.131160,2239.681954,-2258.824534,-10126.425243
4955.133715,4555.934230,4555.934230,-8384.450390
4955.136269,1129.412267,-382.851616,-10222.138147
4955.138824,-1091.127106,3656.232933,-9379.864592
4955.141378,918.843878,1607.976787,-9437.292334
4955.143933,2411.965181,-153.140646,-9667.003304
4955.146487,421.136778,1665.404530,-9705.288466
4955.149042,19.142581,1148.554848,-9954.142016
4955.151597,957.129040,1148.554848,-9111.868461
4955.154151,3024.527766,2603.390989,-8901.300072
4955.156706,3617.947771,1512.263883,-10030.712339
4955.159260,1301.695494,4441.078746,-9437.292334
4955.161817,3503.092286,4383.651003,-8863.014910
4955.164373,-1856.830338,-2488.535504,-10949.556218
4955.166929,1225.125171,4670.789715,-8863.014910
4955.169486,76.570323,-5627.918755,-10298.708470
4955.172042,-2507.678085,1167.697429,-9992.427178
4955.174599,3445.664544,2507.678085,-8652.446522
4955.177155,-1799.402595,-5723.631659,-11313.265253
4955.179712,-2488.535504,2833.101958,-9111.868461
4955.182268,1684.547110,-2220.539373,-10164.710405
4955.184825,-3617.947771,1225.125171,-9475.577496
4955.187381,1359.123237,3790.230998,-8901.300072
4955.189937,3062.812928,-344.566454,-9513.862658
4955.192494,-1990.828403,-1512.263883,-10470.991698
4955.195050,-1933.400661,-95.712904,-9533.005238
4955.197607,708.275490,-363.709035,-9743.573627
4955.200163,-306.281293,1301.695494,-9820.143950
4955.202720,574.277424,497.707101,-9590.432981
4955.205276,-210.568389,-133.998066,-9743.573627
4955.207832,-1971.685822,-478.564520,-9705.288466
4955.210389,-95.712904,-153.140646,-9858.429112
4955.212945,-2239.681954,-19.142581,-10260.423309
4955.215502,-1895.115499,-478.564520,-9265.009107
4955.218058,1110.269686,267.996131,-8977.870395
4955.220615,1473.978722,-4670.789715,-10451.849117
4955.223171,-3177.668413,-2182.254211,-10643.274925
4955.225727,3732.803256,6719.045861,-8212.167163
4955.228284,1914.258080,-3541.377448,-11160.124606
4955.230840,-1052.841944,8977.870395,-8729.016845
4955.233397,2909.672282,2411.965181,-8633.303941
4955.235953,1014.556782,899.701298,-10088.140082
4955.238510,-803.988394,-382.851616,-10202.995566
4955.241066,1837.687757,-2699.103893,-10183.852986
4955.243622,4287.938099,4421.936165,-8537.591037
4955.246179,842.273555,650.847747,-10068.997501
4955.248735,-1167.697429,3388.236802,-9322.436850
4955.251292,210.568389,1167.697429,-9762.716208
4955.253848,3369.094221,57.427742,-9724.431046
4955.256405,1914.258080,746.560651,-9915.856854
4955.258961,-995.414202,1378.265818,-9839.286531
4955.261517,1569.691626,765.703232,-9092.725880
4955.264076,3235.096155,3522.234867,-8939.585234
4955.266634,4670.789715,1531.406464,-9954.142016
4955.269192,-421.136778,0.000000,-10336.993632
4955.271751,3235.096155,9896.714274,-8001.598774
4955.274309,-153.140646,-2258.824534,-10509.276859
4955.276867,-2411.965181,2048.256146,-9379.864592
4955.279426,3311.666478,1684.547110,-8805.587168
4955.281984,-1971.685822,-10719.845248,-12595.818166
4955.284542,478.564520,6202.196179,-8193.024582
4955.287101,95.712904,-3139.383251,-10030.712339
4955.289659,-1071.984525,3158.525832,-9245.866526
4955.292217,-918.843878,306.281293,-9839.286531
4955.294776,-650.847747,-5245.067139,-10547.562021
4955.297334,-1569.691626,2105.683888,-9360.722011
4955.299892,2699.103893,1186.840010,-9399.007173
4955.302451,823.130974,-803.988394,-9533.005238
4955.305009,-3081.955509,1071.984525,-9781.858789
4955.307567,727.418070,727.418070,-9475.577496
4955.310126,1799.402595,76.570323,-9973.284597
4955.312684,-1397.408398,-114.855485,-9934.999435
4955.315242,-593.420005,172.283227,-9456.434915
4955.317801,-1378.265818,-555.134843,-9686.145885
4955.320359,-1014.556782,1799.402595,-9781.858789
4955.322917,-1339.980656,-2105.683888,-10375.278794
4955.325476,957.129040,-1186.840010,-9188.438784
4955.328034,-2775.674216,-6106.483275,-10662.417506
4955.330592,803.988394,3311.666478,-9207.581365
4955.333151,4326.223261,-1225.125171,-9820.143950
4955.335709,-2086.541307,-114.855485,-10700.702667
4955.338267,4460.221326,11026.126541,-7350.751027
4955.340826,861.416136,-3215.953574,-10509.276859
4955.343384,-574.277424,5551.348432,-8882.157491
4955.345944,1569.691626,555.134843,-9820.143950
4955.348503,2239.681954,210.568389,-9590.432981
4955.351063,3732.803256,2335.394858,-9092.725880
4955.353623,1110.269686,210.568389,-9954.142016
4955.356182,191.425808,4938.785846,-8920.442653
4955.358742,172.283227,957.129040,-9820.143950
4955.361302,574.277424,210.568389,-9533.005238
4955.363862,1914.258080,1416.550979,-9533.005238
4955.366421,459.421939,172.283227,-10585.847182
4955.368981,-995.414202,1378.265818,-9475.577496
4955.371541,4555.934230,2794.816797,-8633.303941
4955.374100,4096.512291,861.416136,-10068.997501
4955.376660,-823.130974,1301.695494,-10088.140082
4955.379220,4058.227130,9743.573627,-7905.885870
4955.381779,19.142581,-2411.965181,-10911.271056
4955.384339,210.568389,4268.795518,-8920.442653
4955.386899,306.281293,-5015.356170,-9934.999435
4955.389458,-2660.818731,-172.283227,-10375.278794
4955.392018,2871.387120,4287.938099,-8384.450390
4955.394578,-689.132909,-5934.200048,-11236.694930
4955.397137,-2679.961312,1990.828403,-9418.149754
4955.399697,1110.269686,363.709035,-10011.569758
4955.402257,-2124.826469,-4345.365842,-10566.704602
4955.404816,-1052.841944,3943.371645,-8901.300072
4955.407376,3483.949706,440.279358,-9437.292334
4955.409936,-976.271621,-1435.693560,-10375.278794
4955.412496,-2163.111630,-401.994197,-9533.005238
4955.415055,631.705166,459.421939,-9571.290400
4955.417615,248.853550,727.418070,-9877.571693
4955.420175,57.427742,325.423874,-9686.145885
4955.422734,-746.560651,287.138712,-9647.860723
4955.425294,-1646.261949,76.570323,-9399.007173
4955.427854,-1952.543242,344.566454,-9992.427178
4955.430413,-1378.265818,-1378.265818,-10164.710405
4955.432973,593.420005,-1703.689691,-9475.577496
4955.435533,-2947.957443,-5225.924558,-10183.852986
4955.438092,2488.535504,3809.373579,-8709.874264
4955.440652,3101.098090,-4019.941968,-10585.847182
4955.443212,-2526.820666,2545.963246,-10126.425243
4955.445771,5168.496816,9705.288466,-7810.172966
4955.448333,-210.568389,-3732.803256,-9724.431046
4955.450894,267.996131,2679.961312,-9609.575562
4955.453455,267.996131,191.425808,-9801.001370
4955.456016,3292.523898,-306.281293,-9705.288466
4955.458577,1837.687757,1684.547110,-9418.149754
4955.461138,2143.969050,1646.261949,-9724.431046
4955.463699,803.988394,3139.383251,-9418.149754
4955.466260,95.712904,1339.980656,-9571.290400
4955.468821,401.994197,248.853550,-9303.294269
4955.471382,995.414202,1856.830338,-9494.720077
4955.473943,1588.834206,306.281293,-10528.419440
4955.476504,2086.541307,593.420005,-9054.440718
4955.479065,1895.115499,4077.369710,-8633.303941
4955.481626,4881.358104,2220.539373,-9705.288466
4955.484187,478.564520,-1148.554848,-10413.563955
4955.486748,2622.533570,9858.429112,-8480.163294
4955.489309,1473.978722,-765.703232,-10126.425243
4955.491870,-861.416136,3598.805190,-8901.300072
4955.494431,976.271621,-2813.959378,-9322.436850
4955.496991,-1435.693560,-4938.785846,-11294.122672
4955.499552,1952.543242,5398.207786,-8614.161360
4955.502113,478.564520,-3081.955509,-10049.854920
4955.504674,-727.418070,3062.812928,-9092.725880
4955.507235,-1397.408398,918.843878,-9360.722011
4955.509796,-976.271621,-5398.207786,-10643.274925
4955.512357,-1454.836141,2067.398726,-9667.003304
4955.514918,3043.670347,1435.693560,-9360.722011
4955.517479,-574.277424,-1435.693560,-9877.571693
4955.520040,-2584.248408,1129.412267,-9265.009107
4955.522601,1646.261949,-191.425808,-9820.143950
4955.525162,1225.125171,-535.992262,-10336.993632
4955.527723,-1320.838075,1148.554848,-9858.429112
4955.530284,-593.420005,-1971.685822,-9743.573627
4955.532845,-172.283227,1856.830338,-9054.440718
4955.535406,-3215.953574,-2182.254211,-10490.134278
4955.537967,-2029.113565,-1091.127106,-10126.425243
4955.540528,976.271621,1148.554848,-9035.298138
4955.543089,1473.978722,-5800.201982,-10298.708470
4955.545650,-2756.531635,-1990.828403,-10164.710405
4955.548211,3158.525832,5915.057467,-8078.169098
4955.550756,6317.051664,-555.134843,-10566.704602
4955.553301,-2833.101958,4115.654872,-9858.429112
4955.555846,1225.125171,7082.754896,-7561.319416
4955.558391,4096.512291,-38.285162,-9877.571693
4955.560936,-880.558717,-459.421939,-10260.423309
4955.563481,1875.972918,-1971.685822,-10222.138147
4955.566026,4326.223261,3081.955509,-8939.585234
4955.568571,-133.998066,1684.547110,-9973.284597
4955.571116,1244.267752,4211.367776,-8709.874264
4955.573661,-19.142581,-1359.123237,-9820.143950
4955.576206,746.560651,1071.984525,-9705.288466
4955.578751,631.705166,1971.685822,-9973.284597
4955.581296,880.558717,-287.138712,-10145.567824
4955.583841,2201.396792,4709.074877,-8269.594906
4955.586386,4421.936165,1014.556782,-9418.149754
4955.588931,-574.277424,1512.263883,-9915.856854
4955.591476,4517.649069,8499.305875,-8441.878133
4955.594021,631.705166,-995.414202,-11370.692995
4955.596566,497.707101,3522.234867,-8997.012976
4955.599111,-995.414202,-3866.801322,-9647.860723
4955.601656,-1895.115499,-1225.125171,-10126.425243
4955.604201,2718.246474,3426.521963,-8920.442653
4955.606746,-880.558717,-5111.069074,-11523.833642
4955.609291,-1627.119368,2335.394858,-9169.296203
4955.611836,535.992262,-2833.101958,-9839.286531
4955.614381,-4517.649069,287.138712,-9628.718142
4955.616926,1014.556782,4651.647134,-8939.585234
4955.619471,3235.096155,-2928.814862,-10451.849117
4955.622016,-2220.539373,-669.990328,-10509.276859
4955.624561,-3139.383251,-306.281293,-9111.868461
4955.627106,1339.980656,957.129040,-9265.009107
4955.629651,76.570323,555.134843,-10279.565890
4955.632196,593.420005,19.142581,-9820.143950
4955.634741,-1454.836141,191.425808,-9552.147819
4955.637286,708.275490,-267.996131,-9533.005238
4955.639831,-3981.656806,-1971.685822,-10241.280728
4955.642376,-2641.676150,823.130974,-9399.007173
4955.644921,2182.254211,19.142581,-9513.862658
4955.647466,-937.986459,-6508.477472,-10815.558152
4955.650011,-3713.660675,-3541.377448,-10260.423309
4955.652559,4153.940034,7771.887805,-7963.313613
4955.655107,3445.664544,-3924.229064,-11045.269122
4955.657655,-3005.385186,8059.026517,-9571.290400
4955.660203,3081.955509,4843.072942,-8327.022648
4955.662751,2469.392923,114.855485,-9647.860723
4955.665300,-918.843878,-229.710970,-9781.858789
4955.667848,2660.818731,-1301.695494,-10222.138147
4955.670396,2756.531635,2507.678085,-9322.436850
4955.672944,-555.134843,2182.254211,-9954.142016
4955.675492,1320.838075,4383.651003,-8748.159426
4955.678040,1186.840010,-1014.556782,-9667.003304
4955.680588,535.992262,248.853550,-9647.860723
4955.683136,1071.984525,1799.402595,-10260.423309
4955.685685,1607.976787,-727.418070,-10432.706536
4955.688233,1301.695494,4287.938099,-8843.872330
4955.690781,3598.805190,3292.523898,-8863.014910
4955.693329,1359.123237,-1378.265818,-10126.425243
4955.695877,2526.820666,8499.305875,-9303.294269
4955.698425,1263.410333,937.986459,-10241.280728
4955.700973,153.140646,3139.383251,-9169.296203
4955.703522,-191.425808,-3235.096155,-9131.011042
4955.706070,-1895.115499,-4000.799387,-10719.845248
4955.708618,2967.100024,5379.065205,-8518.448456
4955.711166,-689.132909,-5034.498750,-11447.263318
4955.713714,-1129.412267,3081.955509,-9265.009107
4955.716262,-1052.841944,421.136778,-9131.011042
4955.718810,-2048.256146,-5723.631659,-10719.845248
4955.721359,-1225.125171,3024.527766,-9226.723946
4955.723907,3771.088418,1071.984525,-9839.286531
4955.726455,-689.132909,-1186.840010,-10145.567824
4955.729003,-2124.826469,957.129040,-8939.585234
4955.731551,1091.127106,-210.568389,-9437.292334
4955.734099,-440.279358,153.140646,-10241.280728
4955.736647,114.855485,1129.412267,-9915.856854
4955.739196,-267.996131,-1550.549045,-9858.429112
4955.741744,-2431.107762,1531.406464,-9226.723946
4955.744292,-2143.969050,-2009.970984,-9839.286531
4955.746840,1167.697429,-2220.539373,-10145.567824
4955.749388,-3311.666478,-3139.383251,-10490.134278
4955.751936,2909.672282,2335.394858,-8556.733618
4955.754470,-229.710970,-6355.336826,-10777.272990
4955.757004,-1627.119368,5895.914886,-9131.011042
4955.759538,6527.620053,3751.945837,-9073.583299
4955.762073,-1607.976787,-1378.265818,-11294.122672
4955.764607,-1263.410333,5321.637462,-9016.155557
4955.767141,3215.953574,1512.263883,-9169.296203
4955.769675,2392.822600,-229.710970,-9533.005238
4955.772209,516.849682,-191.425808,-9915.856854
4955.774743,4000.799387,1550.549045,-9705.288466
4955.777277,-1301.695494,861.416136,-10336.993632
4955.779811,-153.140646,4689.932296,-8595.018779
4955.782345,3081.955509,-1607.976787,-9360.722011
4955.784879,153.140646,976.271621,-9724.431046
4955.787413,-1493.121302,784.845813,-10681.560086
4955.789948,2928.814862,3311.666478,-9494.720077
4955.792482,4555.934230,1320.838075,-8633.303941
4955.795016,-1110.269686,2660.818731,-8939.585234
4955.797550,4517.649069,6317.051664,-8748.159426
4955.800084,2086.541307,363.709035,-11313.265253
4955.802618,-555.134843,3771.088418,-9475.577496
4955.805152,-1186.840010,-2277.967115,-9686.145885
4955.807686,1071.984525,4804.787781,-8039.883936
4955.810220,1550.549045,-7101.897477,-10470.991698
4955.812754,-1320.838075,-4594.219392,-11791.829773
4955.815288,-1703.689691,1512.263883,-9475.577496
4955.817822,-76.570323,-2143.969050,-9762.716208
4955.820357,-4747.360038,3062.812928,-8729.016845
4955.822891,1512.263883,2431.107762,-9169.296203
4955.825425,1703.689691,-3637.090352,-10777.272990
4955.827959,-1531.406464,344.566454,-10470.991698
4955.830493,287.138712,-210.568389,-9686.145885
4955.833027,-957.129040,880.558717,-8843.872330
4955.835561,-765.703232,1205.982590,-10088.140082
4955.838095,918.843878,574.277424,-9820.143950
4955.840629,-1263.410333,-957.129040,-9992.427178
4955.843163,-1646.261949,2220.539373,-9207.581365
4955.845697,-2124.826469,-3369.094221,-10164.710405
4955.848231,-1320.838075,-1263.410333,-9667.003304
4955.850766,-1339.980656,-191.425808,-9858.429112
4955.853300,3656.232933,-2124.826469,-9954.142016
4955.855839,-3330.809059,-5570.491013,-10681.560086
4955.858377,2641.676150,7369.893608,-8078.169098
4955.860916,5819.344563,-2009.970984,-8556.733618
4955.863455,-1454.836141,-1780.260014,-11179.267187
4955.865994,-1263.410333,9360.722011,-7848.458128
4955.868533,6527.620053,1244.267752,-9303.294269
4955.871072,172.283227,-823.130974,-9896.714274
4955.873611,555.134843,-1416.550979,-9992.427178
4955.876149,3464.807125,1263.410333,-9533.005238
4955.878688,267.996131,3579.662610,-9801.001370
4955.881227,1569.691626,3388.236802,-9169.296203
4955.883766,803.988394,-918.843878,-9609.575562
4955.886305,689.132909,1263.410333,-9475.577496
4955.888844,1263.410333,995.414202,-10145.567824
4955.891383,1531.406464,2277.967115,-9915.856854
4955.893921,4364.508422,2871.387120,-8671.589102
4955.896460,267.996131,1148.554848,-9265.009107
4955.898999,4000.799387,5934.200048,-8480.163294
4955.901538,1588.834206,1282.552914,-10987.841379
4955.904077,555.134843,3426.521963,-9915.856854
4955.906616,-1684.547110,-1761.117434,-9724.431046
4955.909155,1244.267752,5455.635528,-7886.743290
4955.911693,1167.697429,-76.570323,-8920.442653
4955.914232,-899.701298,-4766.502619,-11696.116869
4955.916771,-1665.404530,1550.549045,-9647.860723
4955.919310,114.855485,-2335.394858,-10088.140082
4955.921849,-5149.354235,3464.807125,-8461.020714
4955.924388,1550.549045,2201.396792,-9092.725880
4955.926927,1416.550979,-3522.234867,-10834.700733
4955.929465,-689.132909,-19.142581,-10509.276859
4955.932004,976.271621,-306.281293,-9628.718142
4955.934543,-2297.109696,937.986459,-9092.725880
4955.937082,-1473.978722,1359.123237,-9762.716208
4955.939621,1684.547110,-153.140646,-9934.999435
4955.942160,-899.701298,-363.709035,-9973.284597
4955.944699,-3024.527766,1320.838075,-9475.577496
4955.947238,-1627.119368,-2392.822600,-9877.571693
4955.949776,363.709035,-1512.263883,-9475.577496
4955.952315,-3273.381317,-3273.381317,-10432.706536
4955.954854,3522.234867,2660.818731,-8958.727814
4955.957380,-325.423874,-7025.327154,-10949.556218
4955.959907,-1473.978722,-133.998066,-10681.560086
4955.962433,4077.369710,12174.681389,-7063.612315
4955.964959,995.414202,-3330.809059,-11255.837510
4955.967486,-1761.117434,6317.051664,-9073.583299
4955.970012,4479.363907,2029.113565,-9073.583299
4955.972538,2450.250342,-1148.554848,-9571.290400
4955.975065,-133.998066,57.427742,-9724.431046
4955.977591,3235.096155,440.279358,-9934.999435
4955.980117,-153.140646,2871.387120,-9934.999435
4955.982643,1071.984525,3962.514226,-8901.300072
4955.985170,2373.680019,-899.701298,-9111.868461
4955.987696,459.421939,1741.974853,-9513.862658
4955.990222,746.560651,1320.838075,-10470.991698
4955.992749,3005.385186,2201.396792,-9762.716208
4955.995275,3828.516160,3751.945837,-8595.018779
4955.997801,459.421939,-823.130974,-9590.432981
4956.000328,3713.660675,7580.461997,-8709.874264
4956.002854,1378.265818,1512.263883,-10490.134278
4956.005380,555.134843,4096.512291,-9705.288466
4956.007906,-689.132909,-3809.373579,-9552.147819
4956.010433,-2813.959378,-8882.157491,-11428.120738
4956.012959,1569.691626,4096.512291,-8671.589102
4956.015485,574.277424,-3598.805190,-10681.560086
4956.018012,-631.705166,3637.090352,-9513.862658
4956.020538,-1493.121302,-976.271621,-9877.571693
4956.023064,-3464.807125,-4555.934230,-10336.993632
4956.025591,-823.130974,4441.078746,-8461.020714
4956.028117,4421.936165,-861.416136,-10317.851051
4956.030643,-516.849682,-1493.121302,-10834.700733
4956.033169,-2545.963246,669.990328,-9054.440718
4956.035696,421.136778,440.279358,-9360.722011
4956.038222,1454.836141,-535.992262,-9992.427178
4956.040748,-1186.840010,708.275490,-9934.999435
4956.043275,-210.568389,1225.125171,-9647.860723
4956.045801,-3254.238736,-3005.385186,-10145.567824
4956.048327,-3790.230998,-57.427742,-9207.581365
4956.050854,708.275490,803.988394,-9533.005238
4956.053380,3043.670347,-5264.209720,-10700.702667
4956.055906,-2852.244539,-2182.254211,-10011.569758
4956.058439,1339.980656,7178.467800,-8461.020714
4956.060971,6336.194245,-306.281293,-9686.145885
4956.063503,-3292.523898,2947.957443,-10317.851051
4956.066036,1110.269686,8633.303941,-7925.028451
4956.068568,5359.922624,612.562586,-9724.431046
4956.071101,-555.134843,-76.570323,-9858.429112
4956.073633,1550.549045,-1531.406464,-10011.569758
4956.076166,1990.828403,1588.834206,-9284.151688
4956.078698,1148.554848,3962.514226,-9360.722011
4956.081231,1416.550979,1665.404530,-9781.858789
4956.083763,421.136778,-229.710970,-9552.147819
4956.086295,-957.129040,976.271621,-9054.440718
4956.088828,2967.100024,1263.410333,-9915.856854
4956.091360,995.414202,1148.554848,-10451.849117
4956.093893,3445.664544,4326.223261,-8690.731683
4956.096425,1895.115499,-823.130974,-9494.720077
4956.098958,2890.529701,6278.766502,-9016.155557
4956.101490,1761.117434,2526.820666,-10107.282662
4956.104022,746.560651,3866.801322,-9647.860723
4956.106555,-19.142581,-3215.953574,-9628.718142
4956.109087,-3005.385186,-4058.227130,-10107.282662
4956.111620,2871.387120,4651.647134,-7982.456194
4956.114152,363.709035,-5704.489078,-11715.259450
4956.116685,-1014.556782,2679.961312,-9647.860723
4956.119217,1856.830338,95.712904,-9647.860723
4956.121750,-3043.670347,-5053.641331,-10432.706536
4956.124282,-880.558717,4000.799387,-8518.448456
4956.126814,3962.514226,-248.853550,-10202.995566
4956.129347,-401.994197,-2048.256146,-10738.987829
4956.131879,-1952.543242,1856.830338,-8958.727814
4956.134412,1205.982590,-918.843878,-9399.007173
4956.136944,-1473.978722,114.855485,-10068.997501
4956.139477,210.568389,842.273555,-9628.718142
4956.142009,669.990328,19.142581,-9992.427178
4956.144542,-3598.805190,-1837.687757,-9973.284597
4956.147074,-708.275490,-861.416136,-9169.296203
4956.149606,-2201.396792,-3196.810994,-10528.419440
4956.152139,2603.390989,1033.699363,-9226.723946
4956.154671,-1550.549045,-6642.475538,-10911.271056
4956.157204,1741.974853,6987.041992,-8556.733618
4956.159742,5666.203917,-363.709035,-9896.714274
4956.162280,-2928.814862,2699.103893,-10068.997501
4956.164818,650.847747,8537.591037,-7657.032320
4956.167356,6010.770371,1282.552914,-9628.718142
4956.169894,1454.836141,-1148.554848,-9877.571693
4956.172433,-248.853550,-382.851616,-9820.143950
4956.174971,2545.963246,76.570323,-9743.573627
4956.177509,689.132909,3024.527766,-9686.145885
4956.180047,1014.556782,3905.086483,-9245.866526
4956.182585,784.845813,-1359.123237,-9877.571693
4956.185123,172.283227,1473.978722,-8843.872330
4956.187662,1167.697429,1799.402595,-9973.284597
4956.190200,2852.244539,1416.550979,-10470.991698
4956.192738,3694.518094,4153.940034,-8537.591037
4956.195276,1588.834206,133.998066,-9284.151688
4956.197814,2641.676150,5015.356170,-9379.864592
4956.200352,1052.841944,2545.963246,-9934.999435
4956.202890,-2182.254211,3215.953574,-9686.145885
4956.205429,1952.543242,1263.410333,-8690.731683
4956.207967,-3254.238736,-8575.876198,-11160.124606
4956.210505,1416.550979,3790.230998,-8480.163294
4956.213043,957.129040,-4326.223261,-10834.700733
4956.215581,-765.703232,3694.518094,-9533.005238
4956.218119,-1780.260014,-401.994197,-9801.001370
4956.220657,-1320.838075,-5111.069074,-10202.995566
4956.223196,-1033.699363,1301.695494,-9418.149754
4956.225734,2335.394858,861.416136,-9992.427178
4956.228272,1033.699363,-1014.556782,-10222.138147
4956.230810,-2928.814862,1416.550979,-9188.438784
4956.233348,-363.709035,114.855485,-9322.436850
4956.235886,1167.697429,-210.568389,-10030.712339
4956.238424,191.425808,-172.283227,-10011.569758
4956.240963,-3713.660675,248.853550,-10088.140082
4956.243501,-3579.662610,19.142581,-9265.009107
4956.246039,1186.840010,459.421939,-9092.725880
4956.248577,-1971.685822,-7063.612315,-11083.554283
4956.251115,95.712904,2947.957443,-8958.727814
4956.253653,5359.922624,-2105.683888,-9877.571693
4956.256191,-1914.258080,-1512.263883,-10853.843314
4956.258730,2584.248408,12500.105262,-7140.182638
4956.261273,1244.267752,-2431.107762,-10719.845248
4956.263815,-1339.980656,5417.350366,-9150.153622
4956.266358,4460.221326,2852.244539,-9169.296203
4956.268901,4153.940034,-1225.125171,-9839.286531
4956.271444,-133.998066,1263.410333,-9456.434915
4956.273987,899.701298,708.275490,-9686.145885
4956.276530,2335.394858,2335.394858,-9647.860723
4956.279073,57.427742,2431.107762,-9667.003304
4956.281616,1033.699363,-842.273555,-9150.153622
4956.284158,1225.125171,2603.390989,-9016.155557
4956.286701,1378.265818,880.558717,-10585.847182
4956.289244,3311.666478,3388.236802,-9762.716208
4956.291787,937.986459,2182.254211,-9035.298138
4956.294330,3675.375514,6336.194245,-8518.448456
4956.296873,803.988394,1033.699363,-10547.562021
4956.299416,2124.826469,4766.502619,-9418.149754
4956.301958,-2143.969050,-4019.941968,-10432.706536
4956.304501,-3981.656806,976.271621,-9226.723946
4956.307044,3771.088418,784.845813,-8441.878133
4956.309587,-133.998066,-5704.489078,-11810.972354
4956.312130,-1837.687757,880.558717,-9820.143950
4956.314673,-325.423874,-1473.978722,-10088.140082
4956.317216,-4823.930362,4173.082614,-8824.729749
4956.319759,899.701298,4287.938099,-8078.169098
4956.322301,3330.809059,-2909.672282,-10451.849117
4956.324844,-1665.404530,-727.418070,-11006.983960
4956.327387,-325.423874,1148.554848,-9437.292334
4956.329930,708.275490,-325.423874,-9131.011042
4956.332473,-2411.965181,478.564520,-9781.858789
4956.335016,1301.695494,440.279358,-9590.432981
4956.337559,-1091.127106,-459.421939,-10202.995566
4956.340102,-4211.367776,-995.414202,-9954.142016
4956.342644,669.990328,95.712904,-8977.870395
4956.345187,-3273.381317,-7006.184573,-11045.269122
4956.347730,1627.119368,4441.078746,-8480.163294
4956.350273,3139.383251,-5819.344563,-10432.706536
4956.352816,-1359.123237,3560.520029,-9915.856854
4956.355359,4402.793584,6278.766502,-8709.874264
4956.357902,-1359.123237,-2411.965181,-10681.560086
4956.360445,-2105.683888,8901.300072,-7848.458128
4956.362992,7580.461997,2833.101958,-9188.438784
4956.365539,1052.841944,-1531.406464,-10356.136213
4956.368086,-1033.699363,535.992262,-9762.716208
4956.370633,1473.978722,306.281293,-9571.290400
4956.373180,957.129040,1339.980656,-9839.286531
4956.375727,344.566454,3617.947771,-9475.577496
4956.378274,1971.685822,-784.845813,-9647.860723
4956.380822,650.847747,2009.970984,-8939.585234
4956.383369,1473.978722,1473.978722,-9954.142016
4956.385916,3637.090352,2660.818731,-10145.567824
4956.388463,727.418070,2297.109696,-9226.723946
4956.391010,4785.645200,4766.502619,-8422.735552
4956.393557,842.273555,803.988394,-10604.989763
4956.396104,1837.687757,4823.930362,-9322.436850
4956.398651,-2526.820666,-4000.799387,-10547.562021
4956.401198,-3656.232933,1033.699363,-9399.007173
4956.403746,3962.514226,114.855485,-8556.733618
4956.406293,-267.996131,-5532.205851,-11504.691061
4956.408840,-1856.830338,650.847747,-9801.001370
4956.411387,-478.564520,-1339.980656,-9992.427178
4956.413934,-4460.221326,4345.365842,-8690.731683
4956.416481,976.271621,-1071.984525,-9628.718142
4956.419028,3349.951640,-3158.525832,-10241.280728
4956.421575,-1607.976787,153.140646,-10777.272990
4956.424123,76.570323,344.566454,-9571.290400
4956.426670,-38.285162,612.562586,-9111.868461
4956.429217,-727.418070,669.990328,-9513.862658
4956.431764,2297.109696,-382.851616,-9915.856854
4956.434311,-4019.941968,-38.285162,-10030.712339
4956.436858,-3330.809059,-880.558717,-9724.431046
4956.439405,1397.408398,-1339.980656,-9475.577496
4956.441952,-3981.656806,-4709.074877,-10394.421374
4956.444500,172.283227,3617.947771,-8786.444587
4956.447047,5513.063270,-3273.381317,-9820.143950
4956.449594,-1646.261949,229.710970,-10662.417506
4956.452141,2967.100024,11542.976222,-7676.174901
4956.454688,229.710970,-3617.947771,-11045.269122
4956.457235,-2603.390989,6489.334891,-8633.303941
4956.459782,6049.055533,3579.662610,-8958.727814
4956.462329,2909.672282,-1148.554848,-10202.995566
4956.464880,-765.703232,153.140646,-9820.143950
4956.467431,555.134843,593.420005,-9628.718142
4956.469983,1263.410333,1531.406464,-9801.001370
4956.472534,631.705166,3139.383251,-9456.434915
4956.475085,2756.531635,-497.707101,-9513.862658
4956.477636,57.427742,1110.269686,-9513.862658
4956.480187,1627.119368,2928.814862,-9571.290400
4956.482738,4402.793584,1780.260014,-10164.710405
4956.485289,957.129040,133.998066,-9667.003304
4956.487841,3215.953574,8001.598774,-7944.171032
4956.490392,2469.392923,957.129040,-10183.852986
4956.492943,-708.275490,4536.791650,-9322.436850
4956.495494,593.420005,0.000000,-9035.298138
4956.498045,-3273.381317,-8652.446522,-11504.691061
4956.500596,2622.533570,5149.354235,-8059.026517
4956.503147,555.134843,-4517.649069,-10604.989763
4956.505698,-497.707101,3158.525832,-9609.575562
4956.508250,-2124.826469,2431.107762,-9016.155557
4956.510801,-3254.238736,-5168.496816,-10662.417506
4956.513352,-708.275490,3235.096155,-8920.442653
4956.515903,3962.514226,-842.273555,-10030.712339
4956.518454,440.279358,-1205.982590,-10413.563955
4956.521005,-3081.955509,1493.121302,-9494.720077
4956.523556,861.416136,746.560651,-9054.440718
4956.526108,478.564520,-899.701298,-9762.716208
4956.528659,-2833.101958,459.421939,-10222.138147
4956.531210,-2603.390989,-1148.554848,-10011.569758
4956.533761,-478.564520,-2163.111630,-9801.001370
4956.536312,-2890.529701,-918.843878,-9877.571693
4956.538863,2373.680019,-1225.125171,-9188.438784
4956.541414,-1454.836141,-5876.772306,-10815.558152
4956.543965,3751.945837,6240.481341,-8461.020714
4956.546517,4536.791650,-2105.683888,-10911.271056
4956.549068,-3215.953574,6240.481341,-9667.003304
4956.551619,1473.978722,6546.762634,-7829.315547
4956.554170,7025.327154,2335.394858,-9054.440718
4956.556721,823.130974,-1167.697429,-10509.276859
4956.559272,574.277424,133.998066,-10011.569758
4956.561823,2316.252277,-287.138712,-9609.575562
4956.564374,-574.277424,1933.400661,-9647.860723
4956.566929,1722.832272,4326.223261,-8863.014910
4956.569483,1761.117434,-574.277424,-9954.142016
4956.572038,-210.568389,1378.265818,-9188.438784
4956.574592,1780.260014,1225.125171,-9743.573627
4956.577146,3139.383251,2526.820666,-10011.569758
4956.579701,1550.549045,593.420005,-9533.005238
4956.582255,4096.512291,7025.327154,-8269.594906
4956.584809,1512.263883,1684.547110,-10088.140082
4956.587364,1761.117434,4326.223261,-9571.290400
4956.589918,-2679.961312,-3943.371645,-10413.563955
4956.592472,-3790.230998,593.420005,-9609.575562
4956.595027,3732.803256,842.273555,-8461.020714
4956.597581,114.855485,-5742.774240,-11466.405899
4956.600135,-1914.258080,-267.996131,-9973.284597
4956.602690,-1071.984525,-1244.267752,-9801.001370
4956.605244,-4211.367776,535.992262,-9992.427178
4956.607798,1282.552914,2775.674216,-8346.165229
4956.610353,2182.254211,-2603.390989,-10164.710405
4956.612907,-1818.545176,555.134843,-10451.849117
4956.615461,861.416136,459.421939,-9705.288466
4956.618016,-784.845813,133.998066,-9379.864592
4956.620570,-1397.408398,1244.267752,-9399.007173
4956.623124,1320.838075,-38.285162,-9877.571693
4956.625679,-2947.957443,-2048.256146,-10394.421374
4956.628233,-2871.387120,-918.843878,-9820.143950
4956.630787,-1646.261949,650.847747,-9686.145885
4956.633342,2143.969050,-3771.088418,-9724.431046
4956.635896,-2756.531635,-4575.076811,-10547.562021
4956.638450,4019.941968,5513.063270,-8288.737486
4956.641005,2679.961312,-3809.373579,-11428.120738
4956.643559,-1627.119368,9379.864592,-9341.579430
4956.646113,2182.254211,4000.799387,-8518.448456
4956.648668,3426.521963,229.710970,-9418.149754
4956.651222,-153.140646,1799.402595,-9743.573627
4956.653776,1799.402595,363.709035,-9954.142016
4956.656331,2545.963246,19.142581,-9686.145885
4956.658885,-1569.691626,2335.394858,-9571.290400
4956.661439,2469.392923,2718.246474,-8882.157491
4956.663994,1244.267752,1071.984525,-9915.856854
4956.666548,-248.853550,957.129040,-9667.003304
4956.669105,3024.527766,1856.830338,-9265.009107
4956.671663,2354.537438,2852.244539,-9896.714274
4956.674220,172.283227,1244.267752,-9915.856854
4956.676777,5589.633594,5953.342629,-8135.596840
4956.679335,1971.685822,669.990328,-10509.276859
4956.681892,1627.119368,5474.778109,-9399.007173
4956.684449,-2335.394858,-3503.092286,-10030.712339
4956.687007,-3771.088418,-172.283227,-9705.288466
4956.689564,3215.953574,1148.554848,-8537.591037
4956.692121,574.277424,-6029.912952,-11408.978157
4956.694679,-2182.254211,-19.142581,-9896.714274
4956.697236,-880.558717,-1225.125171,-10049.854920
4956.699793,-3732.803256,4364.508422,-8977.870395
4956.702351,191.425808,-1301.695494,-8633.303941
4956.704908,2699.103893,-2469.392923,-10183.852986
4956.707466,-593.420005,421.136778,-10222.138147
4956.710023,-267.996131,210.568389,-9801.001370
4956.712580,-248.853550,344.566454,-9341.579430
4956.715138,-689.132909,1052.841944,-9322.436850
4956.717695,76.570323,-210.568389,-10107.282662
4956.720252,-2373.680019,-1588.834206,-10183.852986
4956.722810,-3120.240670,-976.271621,-9820.143950
4956.725367,-976.271621,861.416136,-9667.003304
4956.727924,1301.695494,-4728.217458,-8384.450390
4956.730482,-1071.984525,-7331.608446,-10815.558152
4956.733039,3005.385186,6297.909083,-8767.302006
4956.735596,5857.629725,-631.705166,-10451.849117
4956.738154,-3081.955509,3924.229064,-10241.280728
4956.740711,401.994197,8403.592971,-7369.893608
4956.743268,5570.491013,459.421939,-9360.722011
4956.745826,-516.849682,76.570323,-10183.852986
4956.748383,2794.816797,210.568389,-9858.429112
4956.750943,1607.976787,-325.423874,-9743.573627
4956.753502,-1033.699363,1607.976787,-9667.003304
4956.756062,1856.830338,2450.250342,-8977.870395
4956.758622,1703.689691,1225.125171,-9781.858789
4956.761182,650.847747,1493.121302,-9475.577496
4956.763741,2258.824534,1052.841944,-9379.864592
4956.766301,2373.680019,3866.801322,-9628.718142
4956.768861,2335.394858,-708.275490,-9820.143950
4956.771421,3713.660675,5551.348432,-8575.876198
4956.773980,2182.254211,4077.369710,-9418.149754
4956.776540,1780.260014,3847.658741,-9284.151688
4956.779100,1244.267752,1167.697429,-8997.012976
4956.781660,-4498.506488,-9131.011042,-11676.974288
4956.784219,2775.674216,3426.521963,-8499.305875
4956.786779,727.418070,-4632.504554,-10164.710405
4956.789339,-995.414202,2794.816797,-9839.286531
4956.791899,-2392.822600,-344.566454,-10030.712339
4956.794458,-3713.660675,-1493.121302,-10260.423309
4956.797018,823.130974,3694.518094,-8365.307810
4956.799578,3617.947771,-2852.244539,-10413.563955
4956.802138,-2086.541307,-1646.261949,-10451.849117
4956.804697,-2947.957443,2316.252277,-9609.575562
4956.807257,1895.115499,-382.851616,-9437.292334
4956.809817,306.281293,631.705166,-9475.577496
4956.812376,-3388.236802,-1569.691626,-10068.997501
4956.814936,-3273.381317,-95.712904,-9801.001370
4956.817496,937.986459,995.414202,-9513.862658
4956.820056,-3962.514226,-7427.321350,-10987.841379
4956.822615,19.142581,4173.082614,-8020.741355
4956.825175,4307.080680,-6068.198114,-10279.565890
4956.827735,-459.421939,-3062.812928,-11542.976222
4956.830295,1895.115499,13304.093656,-7810.172966
4956.832854,1397.408398,-1244.267752,-10375.278794
4956.835414,-1512.263883,3617.947771,-8958.727814
4956.837974,3790.230998,3503.092286,-8863.014910
4956.840534,4766.502619,-2067.398726,-10336.993632
4956.843093,-1435.693560,1512.263883,-9896.714274
4956.845653,1933.400661,937.986459,-9456.434915
4956.848213,861.416136,-344.566454,-9973.284597
4956.850773,-133.998066,3273.381317,-9111.868461
4956.853334,1225.125171,1454.836141,-9150.153622
4956.855896,2507.678085,1646.261949,-9475.577496
4956.858458,1588.834206,3694.518094,-9724.431046
4956.861020,1435.693560,-210.568389,-10088.140082
4956.863582,4804.787781,6833.901346,-8212.167163
4956.866144,1091.127106,2507.678085,-9820.143950
4956.868706,2660.818731,3254.238736,-10030.712339
4956.871268,-3254.238736,-1569.691626,-10375.278794
4956.873830,-3005.385186,3732.803256,-8920.442653
4956.876391,3828.516160,2258.824534,-8212.167163
4956.878953,899.701298,-6585.047795,-11370.692995
4956.881515,-1914.258080,363.709035,-9896.714274
4956.884077,-1741.974853,-1684.547110,-10183.852986
4956.886639,-3369.094221,4000.799387,-9379.864592
4956.889201,593.420005,-650.847747,-9494.720077
4956.891763,650.847747,-1033.699363,-9533.005238
4956.894325,248.853550,1320.838075,-9839.286531
4956.896886,1454.836141,-784.845813,-10241.280728
4956.899448,-1684.547110,689.132909,-9360.722011
4956.902010,-746.560651,2105.683888,-9169.296203
4956.904572,-1129.412267,-2947.957443,-10279.565890
4956.907134,-3215.953574,650.847747,-9590.432981
4956.909696,133.998066,0.000000,-9915.856854
4956.912258,-3254.238736,-6336.194245,-10968.698798
4956.914820,-229.710970,3311.666478,-7867.600709
4956.917381,5072.783912,-3885.943902,-9839.286531
4956.919943,19.142581,229.710970,-10585.847182
4956.922505,3349.951640,11715.259450,-7886.743290
4956.925067,-306.281293,-2928.814862,-11236.694930
4956.927629,-2852.244539,6642.475538,-8193.024582
4956.930191,6202.196179,3637.090352,-8480.163294
4956.932753,3120.240670,-2163.111630,-10317.851051
4956.935315,-976.271621,1244.267752,-10145.567824
4956.937876,1914.258080,57.427742,-9628.718142
4956.940438,555.134843,-95.712904,-9877.571693
4956.943000,727.418070,3962.514226,-8958.727814
4956.945562,3407.379382,-1052.841944,-9762.716208
4956.948124,133.998066,1933.400661,-9590.432981
4956.950686,2488.535504,3464.807125,-9475.577496
4956.953248,1741.974853,-1416.550979,-10528.419440
4956.955812,3962.514226,8307.880067,-8020.741355
4956.958375,2124.826469,2105.683888,-9667.003304
4956.960939,2775.674216,2679.961312,-9954.142016
4956.963503,-3981.656806,-861.416136,-10279.565890
4956.966067,-4230.510357,-2450.250342,-10049.854920
4956.968631,3790.230998,2335.394858,-8212.167163
4956.971194,727.418070,-6431.907149,-11370.692995
4956.973758,-1856.830338,191.425808,-9667.003304
4956.976322,-1971.685822,-1684.547110,-10183.852986
4956.978886,-3139.383251,3809.373579,-9513.862658
4956.981450,823.130974,-555.134843,-9571.290400
4956.984013,1110.269686,-497.707101,-9322.436850
4956.986577,-76.570323,-57.427742,-10030.712339
4956.989141,1014.556782,76.570323,-10088.140082
4956.991705,478.564520,-727.418070,-9896.714274
4956.994269,-1531.406464,2201.396792,-9092.725880
4956.996832,306.281293,-3005.385186,-9858.429112
4956.999396,-4517.649069,229.710970,-9877.571693
4957.001960,76.570323,2316.252277,-9686.145885
4957.004524,-2967.100024,-8039.883936,-11045.269122
4957.007088,-1493.121302,2986.242605,-8231.309744
4957.009651,5034.498750,-5187.639397,-10145.567824
4957.012215,708.275490,1588.834206,-10164.710405
4957.014779,3426.521963,9896.714274,-8231.309744
4957.017343,1320.838075,95.712904,-10164.710405
4957.019907,-957.129040,3407.379382,-8843.872330
4957.022471,3445.664544,2756.531635,-9092.725880
4957.025034,5053.641331,-2469.392923,-10375.278794
4957.027598,-1091.127106,1780.260014,-9896.714274
4957.030162,516.849682,1301.695494,-9399.007173
4957.032726,1493.121302,918.843878,-9801.001370
4957.035290,76.570323,2354.537438,-9552.147819
4957.037853,2297.109696,669.990328,-9169.296203
4957.040417,2335.394858,1952.543242,-9705.288466
4957.042981,1837.687757,2967.100024,-10011.569758
4957.045545,2488.535504,-95.712904,-9801.001370
4957.048109,3311.666478,5302.494882,-8652.446522
4957.050672,2718.246474,3598.805190,-9571.290400
4957.053236,1665.404530,4575.076811,-9475.577496
4957.055800,-1569.691626,-746.560651,-9686.145885
4957.058365,-4077.369710,-4766.502619,-10643.274925
4957.060930,3866.801322,3445.664544,-7944.171032
4957.063495,899.701298,-6393.621987,-10911.271056
4957.066061,-1205.982590,2354.537438,-9762.716208
4957.068626,-2718.246474,363.709035,-9781.858789
4957.071191,-2909.672282,-1339.980656,-10413.563955
4957.073756,555.134843,1990.828403,-8786.444587
4957.076321,2163.111630,-1493.121302,-9705.288466
4957.078886,-1244.267752,-803.988394,-10164.710405
4957.081451,-842.273555,1588.834206,-9820.143950
4957.084016,2124.826469,-555.134843,-9762.716208
4957.086582,-2143.969050,555.134843,-9456.434915
4957.089147,-899.701298,-1129.412267,-9686.145885
4957.091712,0.000000,-2660.818731,-10088.140082
4957.094277,-3694.518094,-1091.127106,-10624.132344
4957.096842,-382.851616,-248.853550,-8633.303941
4957.099407,-1014.556782,-5704.489078,-10394.421374
4957.101972,4441.078746,4575.076811,-8556.733618
4957.104537,3369.094221,-3005.385186,-11083.554283
4957.107103,-1493.121302,9475.577496,-9494.720077
4957.109668,1416.550979,5034.498750,-8920.442653
4957.112233,3407.379382,267.996131,-9226.723946
4957.114798,153.140646,1512.263883,-9475.577496
4957.117363,2297.109696,421.136778,-9858.429112
4957.119928,1895.115499,-957.129040,-10068.997501
4957.122493,-2143.969050,2718.246474,-9705.288466
4957.125058,2469.392923,3273.381317,-8786.444587
4957.127624,2794.816797,440.279358,-9724.431046
4957.130189,-574.277424,784.845813,-9552.147819
4957.132754,3139.383251,2756.531635,-9437.292334
4957.135319,-95.712904,1052.841944,-10509.276859
4957.137884,5264.209720,5111.069074,-8575.876198
4957.140449,2565.105827,2105.683888,-9475.577496
4957.143014,2909.672282,3407.379382,-9667.003304
4957.145579,-3962.514226,-918.843878,-10241.280728
4957.148145,-2163.111630,4307.080680,-9016.155557
4957.150710,3330.809059,-4651.647134,-9533.005238
4957.153275,-363.709035,-3885.943902,-10681.560086
4957.155840,-937.986459,-2890.529701,-10011.569758
4957.158405,-1091.127106,57.427742,-9934.999435
4957.160971,-2507.678085,5187.639397,-8652.446522
4957.163538,-1780.260014,-2201.396792,-10681.560086
4957.166104,650.847747,650.847747,-9150.153622
4957.168670,1205.982590,-76.570323,-9743.573627
4957.171237,516.849682,-593.420005,-10317.851051
4957.173803,-2029.113565,1512.263883,-9437.292334
4957.176370,38.285162,1607.976787,-9399.007173
4957.178936,344.566454,-3062.812928,-10183.852986
4957.181502,-4823.930362,287.138712,-9456.434915
4957.184069,459.421939,1933.400661,-9647.860723
4957.186635,-3024.527766,-8154.739421,-11562.118803
4957.189201,-2277.967115,2890.529701,-8441.878133
4957.191768,4039.084549,440.279358,-9092.725880
4957.194334,2182.254211,-2947.957443,-11064.411702
4957.196900,1933.400661,12844.671717,-8059.026517
4957.199467,1244.267752,267.996131,-10375.278794
4957.202033,-1167.697429,3598.805190,-9169.296203
4957.204599,3196.810994,2431.107762,-8958.727814
4957.207166,5187.639397,-2182.254211,-10088.140082
4957.209732,-1435.693560,1167.697429,-10088.140082
4957.212298,1359.123237,1167.697429,-9475.577496
4957.214865,937.986459,784.845813,-9954.142016
4957.217431,229.710970,1646.261949,-9437.292334
4957.219998,1837.687757,1301.695494,-8958.727814
