#time,accel_x,accel_y,accel_z
3082.281025,459.421939,669.990328,-10222.138147
3082.283578,497.707101,765.703232,-10145.567824
3082.286131,401.994197,1493.121302,-9552.147819
3082.288684,535.992262,708.275490,-9992.427178
3082.291237,631.705166,516.849682,-10030.712339
3082.293789,631.705166,1301.695494,-9743.573627
3082.296342,516.849682,516.849682,-10260.423309
3082.298895,727.418070,689.132909,-9858.429112
3082.301448,497.707101,1091.127106,-9552.147819
3082.304001,1627.119368,535.992262,-9992.427178
3082.306554,-38.285162,669.990328,-9973.284597
3082.309107,1071.984525,-306.281293,-9896.714274
3082.311659,918.843878,593.420005,-9992.427178
3082.314212,1014.556782,-803.988394,-10107.282662
3082.316765,1627.119368,-937.986459,-9954.142016
3082.319318,880.558717,689.132909,-9954.142016
3082.321871,-1359.123237,1033.699363,-10011.569758
3082.324424,842.273555,1397.408398,-9973.284597
3082.326976,1359.123237,2641.676150,-9494.720077
3082.329529,2928.814862,-2220.539373,-10298.708470
3082.332081,899.701298,38.285162,-9858.429112
3082.334634,-4709.074877,2086.541307,-10030.712339
3082.337186,0.000000,-1186.840010,-10815.558152
3082.339739,2967.100024,2699.103893,-9226.723946
3082.342291,2316.252277,1761.117434,-9705.288466
3082.344844,497.707101,-210.568389,-9954.142016
3082.347396,-1703.689691,2048.256146,-9647.860723
3082.349949,-3215.953574,727.418070,-10145.567824
3082.352501,2029.113565,-210.568389,-10260.423309
3082.355054,1856.830338,3081.955509,-8997.012976
3082.357606,727.418070,-363.709035,-10088.140082
3082.360159,306.281293,784.845813,-9954.142016
3082.362711,-516.849682,1971.685822,-9494.720077
3082.365264,631.705166,-76.570323,-10011.569758
3082.367816,535.992262,401.994197,-9915.856854
3082.370369,555.134843,1473.978722,-9628.718142
3082.372921,229.710970,-440.279358,-10164.710405
3082.375474,95.712904,1359.123237,-9743.573627
3082.378026,669.990328,784.845813,-10011.569758
3082.380579,497.707101,459.421939,-10049.854920
3082.383131,-325.423874,1569.691626,-9533.005238
3082.385684,1225.125171,-478.564520,-10049.854920
3082.388236,-765.703232,1531.406464,-10049.854920
3082.390789,-1473.978722,2431.107762,-9934.999435
3082.393341,57.427742,1473.978722,-10088.140082
3082.395894,1148.554848,2450.250342,-9858.429112
3082.398446,1875.972918,248.853550,-9839.286531
3082.400999,1225.125171,-2297.109696,-10279.565890
3082.403551,-1493.121302,1550.549045,-10011.569758
3082.406104,-3235.096155,3081.955509,-9896.714274
3082.408656,210.568389,2163.111630,-9820.143950
3082.411209,1837.687757,2277.967115,-9609.575562
3082.413761,957.129040,-861.416136,-10011.569758
3082.416314,-421.136778,2258.824534,-9724.431046
3082.418866,-57.427742,-1627.119368,-10298.708470
3082.421419,440.279358,-153.140646,-9877.571693
3082.423971,-172.283227,3024.527766,-9609.575562
3082.426524,4460.221326,-4211.367776,-10624.132344
3082.429077,459.421939,5627.918755,-8461.020714
3082.431631,-1071.984525,-1493.121302,-10624.132344
3082.434185,172.283227,-1071.984525,-10068.997501
3082.436739,4555.934230,1627.119368,-9322.436850
3082.439293,401.994197,995.414202,-9628.718142
3082.441847,210.568389,-2871.387120,-10719.845248
3082.444401,-555.134843,2565.105827,-9533.005238
3082.446954,-133.998066,-153.140646,-10049.854920
3082.449508,1780.260014,2124.826469,-9628.718142
3082.452062,2813.959378,1856.830338,-9552.147819
3082.454616,1301.695494,-1607.976787,-10164.710405
3082.457170,-727.418070,-918.843878,-10030.712339
3082.459724,478.564520,2048.256146,-9781.858789
3082.462278,727.418070,976.271621,-10317.851051
3082.464831,842.273555,229.710970,-9992.427178
3082.467385,497.707101,1741.974853,-8939.585234
3082.469939,459.421939,-401.994197,-10202.995566
3082.472493,267.996131,995.414202,-10336.993632
3082.475047,727.418070,1129.412267,-9781.858789
3082.477601,229.710970,95.712904,-9954.142016
3082.480155,803.988394,669.990328,-9533.005238
3082.482708,1091.127106,535.992262,-9781.858789
3082.485262,1493.121302,-440.279358,-10298.708470
3082.487816,1435.693560,267.996131,-9839.286531
3082.490370,803.988394,-153.140646,-9628.718142
3082.492924,765.703232,-669.990328,-10126.425243
3082.495478,-2488.535504,2392.822600,-9686.145885
3082.498032,2201.396792,-1780.260014,-10604.989763
3082.500585,3177.668413,2584.248408,-9418.149754
3082.503139,2660.818731,-593.420005,-9628.718142
3082.505693,-3081.955509,248.853550,-10183.852986
3082.508247,631.705166,-1225.125171,-10815.558152
3082.510801,1205.982590,2622.533570,-9150.153622
3082.513355,-191.425808,-191.425808,-9934.999435
3082.515909,2909.672282,1186.840010,-10260.423309
3082.518462,267.996131,3656.232933,-9035.298138
3082.521016,-918.843878,-3062.812928,-10490.134278
3082.523570,-1512.263883,5130.211654,-9513.862658
3082.526124,899.701298,-669.990328,-10202.995566
3082.528678,2201.396792,-2871.387120,-10413.563955
3082.531233,-382.851616,3732.803256,-9513.862658
3082.533789,-2660.818731,3024.527766,-9571.290400
3082.536344,-248.853550,-421.136778,-9934.999435
3082.538900,2507.678085,325.423874,-9820.143950
3082.541455,1741.974853,-459.421939,-9858.429112
3082.544011,-440.279358,727.418070,-9820.143950
3082.546566,-1301.695494,1512.263883,-10068.997501
3082.549122,-1301.695494,2354.537438,-9360.722011
3082.551677,2086.541307,-248.853550,-10030.712339
3082.554233,708.275490,937.986459,-9820.143950
3082.556788,344.566454,976.271621,-9934.999435
3082.559344,440.279358,612.562586,-10375.278794
3082.561899,-516.849682,1110.269686,-9801.001370
3082.564455,401.994197,440.279358,-9150.153622
3082.567010,746.560651,1014.556782,-9934.999435
3082.569566,-57.427742,1378.265818,-10662.417506
3082.572121,191.425808,1512.263883,-9992.427178
3082.574677,593.420005,823.130974,-9667.003304
3082.577232,497.707101,669.990328,-9743.573627
3082.579788,-823.130974,1512.263883,-9934.999435
3082.582343,114.855485,1454.836141,-10509.276859
3082.584899,-842.273555,2411.965181,-9781.858789
3082.587454,-344.566454,1110.269686,-9647.860723
3082.590010,593.420005,2086.541307,-9973.284597
3082.592565,1339.980656,1799.402595,-10049.854920
3082.595121,1263.410333,-2507.678085,-10279.565890
3082.597676,-1052.841944,-1282.552914,-10298.708470
3082.600231,-2871.387120,4000.799387,-9360.722011
3082.602787,1167.697429,1531.406464,-10222.138147
3082.605342,2813.959378,1282.552914,-9973.284597
3082.607898,727.418070,153.140646,-9571.290400
3082.610453,-1225.125171,1282.552914,-9571.290400
3082.613009,1148.554848,-2756.531635,-10490.134278
3082.615564,19.142581,2201.396792,-9781.858789
3082.618120,-803.988394,1646.261949,-9877.571693
3082.620675,4996.213589,-3866.801322,-10183.852986
3082.623231,555.134843,3905.086483,-8652.446522
3082.625786,-1569.691626,325.423874,-10604.989763
3082.628342,172.283227,-631.705166,-10566.704602
3082.630897,3962.514226,2928.814862,-8958.727814
3082.633452,727.418070,-1933.400661,-9858.429112
3082.636007,593.420005,-2029.113565,-10547.562021
3082.638561,-957.129040,2986.242605,-9724.431046
3082.641116,-421.136778,-38.285162,-10183.852986
3082.643671,1818.545176,2699.103893,-9284.151688
3082.646225,2545.963246,1856.830338,-9207.581365
3082.648780,1225.125171,-1435.693560,-10432.706536
3082.651335,-803.988394,191.425808,-10279.565890
3082.653890,440.279358,-95.712904,-9858.429112
3082.656444,1359.123237,880.558717,-9628.718142
3082.658999,229.710970,957.129040,-9992.427178
3082.661554,-153.140646,344.566454,-9743.573627
3082.664108,727.418070,957.129040,-9877.571693
3082.666663,593.420005,1052.841944,-10375.278794
3082.669218,516.849682,19.142581,-9915.856854
3082.671772,497.707101,957.129040,-9399.007173
3082.674327,689.132909,287.138712,-9973.284597
3082.676882,1282.552914,363.709035,-10336.993632
3082.679436,1684.547110,57.427742,-10068.997501
3082.681991,746.560651,325.423874,-9552.147819
3082.684546,-1684.547110,267.996131,-9915.856854
3082.687100,976.271621,1588.834206,-10145.567824
3082.689655,1818.545176,3081.955509,-9590.432981
3082.692210,3713.660675,-2220.539373,-10490.134278
3082.694765,1186.840010,-114.855485,-9896.714274
3082.697319,-3062.812928,2852.244539,-9284.151688
3082.699874,95.712904,-1818.545176,-10451.849117
3082.702429,3043.670347,918.843878,-9877.571693
3082.704983,-153.140646,5551.348432,-9188.438784
3082.707538,1397.408398,-3445.664544,-10911.271056
3082.710093,861.416136,880.558717,-9341.579430
3082.712647,-3694.518094,4364.508422,-8939.585234
3082.715202,1359.123237,-4077.369710,-11389.835576
3082.717757,1818.545176,5857.629725,-9073.583299
3082.720311,1741.974853,-1339.980656,-9992.427178
3082.722866,-1895.115499,382.851616,-9801.001370
3082.725421,-708.275490,3656.232933,-9494.720077
3082.727976,708.275490,2411.965181,-9188.438784
3082.730530,2067.398726,-708.275490,-10107.282662
3082.733085,1129.412267,306.281293,-9896.714274
3082.735640,-1033.699363,-593.420005,-10030.712339
3082.738195,-1914.258080,1186.840010,-10068.997501
3082.740749,-650.847747,3235.096155,-9552.147819
3082.743304,1646.261949,2009.970984,-9628.718142
3082.745859,823.130974,-344.566454,-10107.282662
3082.748414,669.990328,957.129040,-9628.718142
3082.750969,57.427742,784.845813,-10336.993632
3082.753523,516.849682,918.843878,-10241.280728
3082.756078,363.709035,1014.556782,-9303.294269
3082.758633,267.996131,-229.710970,-9954.142016
3082.761188,57.427742,1627.119368,-10164.710405
3082.763743,937.986459,650.847747,-10164.710405
3082.766298,95.712904,746.560651,-10164.710405
3082.768852,-306.281293,976.271621,-9858.429112
3082.771407,-937.986459,1359.123237,-9399.007173
3082.773962,-593.420005,1397.408398,-10088.140082
3082.776517,823.130974,1741.974853,-10202.995566
3082.779072,1397.408398,1512.263883,-9801.001370
3082.781626,1129.412267,-1933.400661,-10049.854920
3082.784181,-1263.410333,1282.552914,-9571.290400
3082.786736,-3043.670347,3771.088418,-9418.149754
3082.789291,0.000000,1186.840010,-10394.421374
3082.791846,4039.084549,-1148.554848,-10451.849117
3082.794401,727.418070,2660.818731,-9054.440718
3082.796955,-1684.547110,1665.404530,-9954.142016
3082.799510,995.414202,-2909.672282,-10222.138147
3082.802065,669.990328,3273.381317,-9303.294269
3082.804620,-344.566454,1550.549045,-10202.995566
3082.807175,4096.512291,-2584.248408,-10298.708470
3082.809729,38.285162,5168.496816,-8384.450390
3082.812284,-861.416136,-4039.084549,-11121.839445
3082.814839,-669.990328,2833.101958,-9590.432981
3082.817394,1933.400661,2182.254211,-9513.862658
3082.819949,1646.261949,-3235.096155,-10528.419440
3082.822503,918.843878,-440.279358,-9858.429112
3082.825058,-1359.123237,3369.094221,-9379.864592
3082.827613,-440.279358,-440.279358,-10183.852986
3082.830168,1569.691626,3311.666478,-9341.579430
3082.832723,2373.680019,95.712904,-10068.997501
3082.835278,1531.406464,-612.562586,-10030.712339
3082.837833,-172.283227,1014.556782,-9360.722011
3082.840389,57.427742,-133.998066,-9915.856854
3082.842945,1416.550979,497.707101,-10164.710405
3082.845501,1033.699363,1014.556782,-9934.999435
3082.848057,0.000000,-172.283227,-9858.429112
3082.850613,248.853550,937.986459,-9399.007173
3082.853169,1244.267752,172.283227,-9992.427178
3082.855725,344.566454,957.129040,-10241.280728
3082.858280,421.136778,803.988394,-9954.142016
3082.860836,1493.121302,191.425808,-9475.577496
3082.863392,1071.984525,421.136778,-9762.716208
3082.865948,1301.695494,-918.843878,-10451.849117
3082.868504,-1148.554848,823.130974,-10107.282662
3082.871060,1588.834206,172.283227,-10490.134278
3082.873616,1569.691626,2258.824534,-9245.866526
3082.876172,3196.810994,-1627.119368,-9801.001370
3082.878727,976.271621,-1129.412267,-10451.849117
3082.881283,-3177.668413,2928.814862,-9801.001370
3082.883839,593.420005,-1205.982590,-10298.708470
3082.886395,2775.674216,555.134843,-9801.001370
3082.888951,-1665.404530,3426.521963,-9590.432981
3082.891507,1167.697429,-3215.953574,-10796.415571
3082.894063,803.988394,612.562586,-9667.003304
3082.896619,-3675.375514,3981.656806,-9379.864592
3082.899175,1569.691626,-4000.799387,-11179.267187
3082.901730,1761.117434,5915.057467,-8709.874264
3082.904286,1531.406464,-1454.836141,-10279.565890
3082.906842,-1741.974853,918.843878,-9781.858789
3082.909398,-1110.269686,4268.795518,-9360.722011
3082.911954,-478.564520,555.134843,-9781.858789
3082.914510,2526.820666,-765.703232,-10126.425243
3082.917066,1837.687757,631.705166,-10030.712339
3082.919622,-555.134843,-267.996131,-9858.429112
3082.922177,-1818.545176,1435.693560,-9743.573627
3082.924733,57.427742,2775.674216,-9667.003304
3082.927289,880.558717,2450.250342,-9686.145885
3082.929845,880.558717,689.132909,-9992.427178
3082.932401,287.138712,382.851616,-9437.292334
3082.934957,497.707101,1493.121302,-9341.579430
3082.937513,191.425808,861.416136,-10700.702667
3082.940068,746.560651,899.701298,-10011.569758
3082.942624,459.421939,1110.269686,-9188.438784
3082.945179,-363.709035,-57.427742,-10107.282662
3082.947735,440.279358,1435.693560,-10126.425243
3082.950290,325.423874,2545.963246,-9934.999435
3082.952845,-765.703232,880.558717,-10336.993632
3082.955401,-727.418070,1129.412267,-9686.145885
3082.957956,-57.427742,2143.969050,-9169.296203
3082.960512,2699.103893,172.283227,-10585.847182
3082.963067,-899.701298,1282.552914,-10126.425243
3082.965623,-1071.984525,-593.420005,-10260.423309
3082.968178,-2622.533570,3254.238736,-9609.575562
3082.970734,612.562586,1684.547110,-9647.860723
3082.973289,2794.816797,-76.570323,-9877.571693
3082.975845,1205.982590,114.855485,-10566.704602
3082.978400,-1569.691626,2067.398726,-10049.854920
3082.980955,1129.412267,-3005.385186,-9915.856854
3082.983511,114.855485,2584.248408,-10260.423309
3082.986066,76.570323,4019.941968,-9418.149754
3082.988622,3751.945837,-3311.666478,-10719.845248
3082.991177,344.566454,4077.369710,-9073.583299
3082.993733,-1186.840010,-995.414202,-10164.710405
3082.996288,-421.136778,153.140646,-9877.571693
3082.998844,2947.957443,2450.250342,-9552.147819
3083.001399,2316.252277,-3713.660675,-10336.993632
3083.003954,1033.699363,650.847747,-9762.716208
3083.006510,-1473.978722,2143.969050,-9858.429112
3083.009065,-555.134843,344.566454,-9533.005238
3083.011621,1646.261949,1895.115499,-9552.147819
3083.014176,3043.670347,191.425808,-10068.997501
3083.016732,995.414202,-842.273555,-9954.142016
3083.019287,-153.140646,344.566454,-9877.571693
3083.021843,172.283227,57.427742,-9934.999435
3083.024398,1378.265818,1244.267752,-9571.290400
3083.026954,1320.838075,153.140646,-10183.852986
3083.029509,287.138712,191.425808,-9781.858789
3083.032064,191.425808,1148.554848,-9590.432981
3083.034620,1397.408398,-229.710970,-10547.562021
3083.037175,1014.556782,516.849682,-9858.429112
3083.039731,1454.836141,363.709035,-9628.718142
3083.042286,1244.267752,-516.849682,-10451.849117
3083.044842,287.138712,459.421939,-9915.856854
3083.047397,-2163.111630,2220.539373,-9686.145885
3083.049953,2411.965181,-2220.539373,-11102.696864
3083.052508,2392.822600,2182.254211,-9628.718142
3083.055064,2297.109696,363.709035,-9896.714274
3083.057619,-2450.250342,-727.418070,-10356.136213
3083.060175,325.423874,1205.982590,-9896.714274
3083.062730,784.845813,3254.238736,-9475.577496
3083.065286,1875.972918,-1780.260014,-10624.132344
3083.067842,344.566454,4919.643266,-9533.005238
3083.070397,574.277424,-574.277424,-10241.280728
3083.072953,669.990328,-1550.549045,-10107.282662
3083.075508,-3445.664544,5513.063270,-9054.440718
3083.078064,1531.406464,-4211.367776,-11160.124606
3083.080619,2277.967115,172.283227,-10030.712339
3083.083175,382.851616,3464.807125,-9303.294269
3083.085730,-3503.092286,38.285162,-10088.140082
3083.088286,440.279358,784.845813,-9954.142016
3083.090841,2622.533570,2852.244539,-9073.583299
3083.093397,1665.404530,-746.560651,-10164.710405
3083.095952,401.994197,229.710970,-9934.999435
3083.098508,-861.416136,1875.972918,-9494.720077
3083.101063,-1320.838075,-210.568389,-9934.999435
3083.103619,784.845813,2143.969050,-9801.001370
3083.106174,1091.127106,2373.680019,-9494.720077
3083.108730,363.709035,-57.427742,-10107.282662
3083.111285,-57.427742,-382.851616,-9820.143950
3083.113841,689.132909,1780.260014,-9647.860723
3083.116396,382.851616,-248.853550,-10451.849117
3083.118952,421.136778,1607.976787,-9647.860723
3083.121507,440.279358,1052.841944,-9552.147819
3083.124064,-287.138712,267.996131,-10183.852986
3083.126620,-267.996131,1550.549045,-9992.427178
3083.129176,-172.283227,1856.830338,-9781.858789
3083.131732,-727.418070,1359.123237,-10049.854920
3083.134289,784.845813,1091.127106,-9973.284597
3083.136845,1952.543242,-1665.404530,-10126.425243
3083.139401,-1225.125171,2890.529701,-9667.003304
3083.141957,-2565.105827,2928.814862,-9934.999435
3083.144514,-708.275490,1703.689691,-9781.858789
3083.147070,3388.236802,-669.990328,-10183.852986
3083.149626,210.568389,3101.098090,-9226.723946
3083.152182,38.285162,-191.425808,-10432.706536
3083.154739,2143.969050,-114.855485,-9915.856854
3083.157295,-2258.824534,2718.246474,-8882.157491
3083.159851,-191.425808,-2392.822600,-11006.983960
3083.162407,3522.234867,-153.140646,-10202.995566
3083.164964,803.988394,1837.687757,-9226.723946
3083.167520,172.283227,-2641.676150,-10547.562021
3083.170076,-1282.552914,4919.643266,-8997.012976
3083.172632,765.703232,-363.709035,-9954.142016
3083.175189,4211.367776,-1646.261949,-10279.565890
3083.177745,1014.556782,2316.252277,-9341.579430
3083.180301,-631.705166,-2258.824534,-10336.993632
3083.182857,-918.843878,210.568389,-10126.425243
3083.185414,1320.838075,2373.680019,-9647.860723
3083.187970,1818.545176,95.712904,-9801.001370
3083.190526,1856.830338,1225.125171,-9934.999435
3083.193082,440.279358,516.849682,-9934.999435
3083.195639,-229.710970,-421.136778,-9781.858789
3083.198195,746.560651,957.129040,-9934.999435
3083.200751,689.132909,1091.127106,-10088.140082
3083.203308,746.560651,1244.267752,-9724.431046
3083.205864,401.994197,-516.849682,-9877.571693
3083.208420,363.709035,1569.691626,-9762.716208
3083.210976,1129.412267,-95.712904,-10356.136213
3083.213533,1397.408398,842.273555,-9915.856854
3083.216089,823.130974,555.134843,-9647.860723
3083.218645,-631.705166,-478.564520,-9915.856854
3083.221201,1550.549045,38.285162,-10164.710405
3083.223758,1416.550979,2297.109696,-9494.720077
3083.226315,3273.381317,-2297.109696,-10394.421374
3083.228872,784.845813,-746.560651,-9896.714274
3083.231429,-2699.103893,4000.799387,-9437.292334
3083.233987,727.418070,-2584.248408,-10662.417506
3083.236544,2833.101958,191.425808,-9858.429112
3083.239101,-1493.121302,4536.791650,-9322.436850
3083.241658,2297.109696,-4326.223261,-11006.983960
3083.244216,19.142581,4153.940034,-8920.442653
3083.246773,-2316.252277,-306.281293,-9934.999435
3083.249330,784.845813,-363.709035,-10662.417506
3083.251887,995.414202,6029.912952,-8824.729749
3083.254445,1416.550979,-1148.554848,-10088.140082
3083.257002,-1703.689691,784.845813,-9934.999435
3083.259559,-2048.256146,5455.635528,-9360.722011
3083.262116,-210.568389,-899.701298,-10279.565890
3083.264674,2967.100024,-229.710970,-10030.712339
3083.267231,1435.693560,765.703232,-9839.286531
3083.269788,-440.279358,-727.418070,-9992.427178
3083.272346,-1397.408398,2737.389054,-9781.858789
3083.274903,-248.853550,689.132909,-9877.571693
3083.277460,880.558717,1091.127106,-9896.714274
3083.280017,1148.554848,1110.269686,-9877.571693
3083.282575,95.712904,0.000000,-9724.431046
3083.285132,-478.564520,1588.834206,-9418.149754
3083.287689,612.562586,593.420005,-10336.993632
3083.290246,612.562586,918.843878,-10030.712339
3083.292804,153.140646,1493.121302,-9590.432981
3083.295361,-306.281293,631.705166,-9915.856854
3083.297918,-535.992262,880.558717,-9743.573627
3083.300475,-19.142581,1895.115499,-9533.005238
3083.303033,401.994197,1052.841944,-10317.851051
3083.305590,2526.820666,1397.408398,-9992.427178
3083.308147,-880.558717,2143.969050,-9188.438784
3083.310704,-1359.123237,-1761.117434,-10509.276859
3083.313262,-2469.392923,3847.658741,-9724.431046
3083.315819,497.707101,2182.254211,-9743.573627
3083.318376,3560.520029,-1799.402595,-10490.134278
3083.320934,440.279358,2660.818731,-9513.862658
3083.323491,-803.988394,2277.967115,-9801.001370
3083.326048,555.134843,-3560.520029,-10509.276859
3083.328605,727.418070,1933.400661,-9686.145885
3083.331162,133.998066,2699.103893,-9781.858789
3083.333718,3656.232933,-3292.523898,-10547.562021
3083.336275,-133.998066,5340.780043,-8537.591037
3083.338832,-612.562586,-3847.658741,-10987.841379
3083.341389,-746.560651,1148.554848,-10145.567824
3083.343946,1607.976787,2833.101958,-9399.007173
3083.346502,2450.250342,-3751.945837,-10566.704602
3083.349059,842.273555,229.710970,-9762.716208
3083.351616,-1282.552914,2775.674216,-9552.147819
3083.354173,-803.988394,-957.129040,-10375.278794
3083.356729,1320.838075,2986.242605,-9437.292334
3083.359286,1856.830338,57.427742,-10030.712339
3083.361843,1110.269686,-535.992262,-10164.710405
3083.364400,287.138712,1148.554848,-9590.432981
3083.366957,38.285162,-287.138712,-9724.431046
3083.369513,784.845813,1186.840010,-9801.001370
3083.372070,918.843878,612.562586,-10164.710405
3083.374627,650.847747,593.420005,-9686.145885
3083.377184,287.138712,1148.554848,-9686.145885
3083.379740,1091.127106,172.283227,-10145.567824
3083.382297,1914.258080,344.566454,-9762.716208
3083.384854,765.703232,880.558717,-9820.143950
3083.387411,-1550.549045,1569.691626,-9762.716208
3083.389968,1665.404530,-2163.111630,-10145.567824
3083.392524,3120.240670,-2009.970984,-10279.565890
3083.395081,1933.400661,306.281293,-9973.284597
3083.397638,-1875.972918,-267.996131,-9820.143950
3083.400195,669.990328,1397.408398,-9954.142016
3083.402751,325.423874,3407.379382,-9245.866526
3083.405308,2143.969050,-2163.111630,-10375.278794
3083.407865,57.427742,4536.791650,-9724.431046
3083.410422,153.140646,-1684.547110,-10279.565890
3083.412979,976.271621,-593.420005,-9513.862658
3083.415535,-1914.258080,5474.778109,-9265.009107
3083.418092,976.271621,-1780.260014,-10624.132344
3083.420649,1933.400661,1665.404530,-9705.288466
3083.423206,459.421939,2220.539373,-9877.571693
3083.425763,-3139.383251,-727.418070,-9877.571693
3083.428319,-153.140646,3579.662610,-9322.436850
3083.430876,95.712904,1933.400661,-9724.431046
3083.433433,2239.681954,-1512.263883,-10126.425243
3083.435991,1588.834206,1454.836141,-10241.280728
3083.438548,-899.701298,1033.699363,-9973.284597
3083.441105,-1971.685822,708.275490,-9590.432981
3083.443662,1014.556782,2335.394858,-9896.714274
3083.446219,1359.123237,1282.552914,-10164.710405
3083.448776,689.132909,937.986459,-9801.001370
3083.451333,-440.279358,497.707101,-9934.999435
3083.453890,401.994197,114.855485,-10030.712339
3083.456447,1378.265818,1301.695494,-9896.714274
3083.459005,0.000000,727.418070,-10164.710405
3083.461562,114.855485,306.281293,-9724.431046
3083.464119,-382.851616,1263.410333,-9628.718142
3083.466676,-459.421939,1722.832272,-10260.423309
3083.469233,631.705166,1033.699363,-10088.140082
3083.471790,3158.525832,-153.140646,-9781.858789
3083.474347,-1646.261949,3866.801322,-9169.296203
3083.476904,-1875.972918,0.000000,-10317.851051
3083.479461,-1359.123237,2450.250342,-9801.001370
3083.482018,2297.109696,899.701298,-10202.995566
3083.484576,1014.556782,899.701298,-9628.718142
3083.487133,344.566454,-1301.695494,-10394.421374
3083.489690,1818.545176,1014.556782,-9973.284597
3083.492247,-1684.547110,1588.834206,-9092.725880
3083.494804,957.129040,-2813.959378,-10758.130410
3083.497361,880.558717,3541.377448,-9762.716208
3083.499918,2986.242605,-2526.820666,-9992.427178
3083.502475,612.562586,3407.379382,-8920.442653
3083.505032,-861.416136,363.709035,-10164.710405
3083.507589,937.986459,-957.129040,-10030.712339
3083.510147,3062.812928,976.271621,-9954.142016
3083.512704,2277.967115,-1550.549045,-10145.567824
3083.515261,727.418070,-631.705166,-9858.429112
3083.517818,-1129.412267,2392.822600,-9992.427178
3083.520375,-421.136778,-153.140646,-10030.712339
3083.522932,1799.402595,995.414202,-9686.145885
3083.525489,2584.248408,535.992262,-10068.997501
3083.528046,325.423874,823.130974,-9743.573627
3083.530603,-708.275490,-95.712904,-9954.142016
3083.533116,861.416136,516.849682,-10164.710405
3083.535629,1167.697429,1052.841944,-10126.425243
3083.538143,861.416136,172.283227,-9992.427178
3083.540656,210.568389,727.418070,-9628.718142
3083.543169,669.990328,-57.427742,-9973.284597
3083.545682,1378.265818,-95.712904,-10298.708470
3083.548195,-38.285162,995.414202,-10011.569758
3083.550708,937.986459,382.851616,-9781.858789
3083.553221,995.414202,842.273555,-9322.436850
3083.555734,2660.818731,-2584.248408,-10241.280728
3083.558247,1473.978722,-248.853550,-10336.993632
3083.560760,-2545.963246,1071.984525,-10107.282662
3083.563273,1493.121302,-1741.974853,-10643.274925
3083.565786,1454.836141,5264.209720,-8480.163294
3083.568300,-1071.984525,1607.976787,-9628.718142
3083.570813,2009.970984,-1952.543242,-10815.558152
3083.573326,-153.140646,4996.213589,-8882.157491
3083.575839,-210.568389,-3847.658741,-10566.704602
3083.578352,-746.560651,3713.660675,-9552.147819
3083.580865,842.273555,1244.267752,-9820.143950
3083.583378,2258.824534,-823.130974,-9992.427178
3083.585891,-172.283227,3713.660675,-9437.292334
3083.588404,-3503.092286,-229.710970,-10107.282662
3083.590917,708.275490,-2986.242605,-10872.985894
3083.593430,2852.244539,3120.240670,-9379.864592
3083.595943,1493.121302,229.710970,-9724.431046
3083.598456,-287.138712,191.425808,-9743.573627
3083.600970,0.000000,1493.121302,-9858.429112
3083.603483,-1473.978722,1071.984525,-9896.714274
3083.605996,555.134843,1167.697429,-10145.567824
3083.608509,1952.543242,1550.549045,-9973.284597
3083.611022,-172.283227,842.273555,-9762.716208
3083.613535,-191.425808,478.564520,-9686.145885
3083.616048,555.134843,1339.980656,-10202.995566
3083.618561,631.705166,1339.980656,-9858.429112
3083.621074,-287.138712,823.130974,-9915.856854
3083.623587,-497.707101,1167.697429,-9839.286531
3083.626100,-689.132909,1703.689691,-9667.003304
3083.628613,-133.998066,516.849682,-10030.712339
3083.631126,2603.390989,-287.138712,-10222.138147
3083.633649,-880.558717,4230.510357,-9322.436850
3083.636172,-2775.674216,3866.801322,-9686.145885
3083.638695,-803.988394,1588.834206,-9667.003304
3083.641218,4058.227130,19.142581,-9877.571693
3083.643740,-287.138712,2488.535504,-9379.864592
3083.646263,38.285162,-1512.263883,-10662.417506
3083.648786,2163.111630,1646.261949,-9743.573627
3083.651309,-1875.972918,1531.406464,-9360.722011
3083.653832,1244.267752,-2756.531635,-10566.704602
3083.656354,1167.697429,4096.512291,-9341.579430
3083.658877,2354.537438,-3120.240670,-9877.571693
3083.661400,76.570323,-765.703232,-10011.569758
3083.663923,-1052.841944,4785.645200,-9265.009107
3083.666446,1339.980656,-1588.834206,-10375.278794
3083.668969,2890.529701,1493.121302,-9552.147819
3083.671491,2067.398726,-1856.830338,-10030.712339
3083.674014,440.279358,-995.414202,-9877.571693
3083.676537,-1225.125171,2565.105827,-9839.286531
3083.679060,-708.275490,-38.285162,-10088.140082
3083.681583,1531.406464,2182.254211,-9284.151688
3083.684105,2124.826469,803.988394,-9781.858789
3083.686628,306.281293,19.142581,-9743.573627
3083.689151,-76.570323,421.136778,-9877.571693
3083.691674,995.414202,440.279358,-9992.427178
3083.694197,1416.550979,1320.838075,-9858.429112
3083.696719,689.132909,344.566454,-10260.423309
3083.699242,708.275490,-344.566454,-9801.001370
3083.701765,784.845813,306.281293,-9590.432981
3083.704288,669.990328,19.142581,-10279.565890
3083.706811,1569.691626,382.851616,-10164.710405
3083.709333,1244.267752,1091.127106,-9724.431046
3083.711856,2258.824534,-2507.678085,-10336.993632
3083.714379,1339.980656,-363.709035,-9686.145885
3083.716902,-2277.967115,-153.140646,-10068.997501
3083.719425,1378.265818,-153.140646,-10490.134278
3083.721947,1512.263883,4594.219392,-8997.012976
3083.724470,1588.834206,-2297.109696,-10451.849117
3083.726993,-516.849682,4096.512291,-9494.720077
3083.729516,-669.990328,2699.103893,-9016.155557
3083.732039,957.129040,-4670.789715,-10777.272990
3083.734569,-1282.552914,5742.774240,-9399.007173
3083.737099,1301.695494,-1301.695494,-10681.560086
3083.739630,1416.550979,1569.691626,-9379.864592
3083.742160,-19.142581,2316.252277,-9131.011042
3083.744690,-3101.098090,-1895.115499,-10375.278794
3083.747221,-555.134843,4555.934230,-9781.858789
3083.749751,133.998066,1856.830338,-10049.854920
3083.752281,2622.533570,-1607.976787,-9839.286531
3083.754812,1588.834206,823.130974,-9475.577496
3083.757342,-1052.841944,899.701298,-9992.427178
3083.759872,-1875.972918,1339.980656,-10202.995566
3083.762403,1014.556782,1722.832272,-10222.138147
3083.764933,1741.974853,1339.980656,-9686.145885
3083.767463,-535.992262,612.562586,-9399.007173
3083.769994,95.712904,497.707101,-9877.571693
3083.772524,708.275490,1990.828403,-10183.852986
3083.775054,1531.406464,1186.840010,-10088.140082
3083.777585,-535.992262,2258.824534,-9265.009107
3083.780115,-497.707101,421.136778,-9456.434915
3083.782645,-287.138712,1435.693560,-10088.140082
3083.785176,2297.109696,1244.267752,-10336.993632
3083.787706,-593.420005,3254.238736,-9552.147819
3083.790236,-1301.695494,-727.418070,-10470.991698
3083.792766,-1914.258080,3158.525832,-9284.151688
3083.795297,76.570323,2890.529701,-9475.577496
3083.797827,3139.383251,-76.570323,-10566.704602
3083.800357,1205.982590,363.709035,-10068.997501
3083.802888,-325.423874,3024.527766,-9360.722011
3083.805418,746.560651,-4019.941968,-10183.852986
3083.807948,976.271621,2335.394858,-9322.436850
3083.810479,-631.705166,2641.676150,-10011.569758
3083.813009,3388.236802,-2316.252277,-10758.130410
3083.815539,191.425808,4498.506488,-8748.159426
3083.818070,-172.283227,-4364.508422,-10834.700733
3083.820600,-440.279358,1684.547110,-9724.431046
3083.823130,1263.410333,3024.527766,-9571.290400
3083.825661,3751.945837,-3120.240670,-10662.417506
3083.828191,248.853550,937.986459,-9418.149754
3083.830721,-1110.269686,95.712904,-9762.716208
3083.833252,-574.277424,153.140646,-10088.140082
3083.835788,631.705166,1818.545176,-9839.286531
3083.838325,1971.685822,-344.566454,-10049.854920
3083.840862,1091.127106,1703.689691,-9628.718142
3083.843398,114.855485,-1033.699363,-10241.280728
3083.845935,593.420005,325.423874,-9667.003304
3083.848471,1205.982590,746.560651,-9915.856854
3083.851008,478.564520,382.851616,-10202.995566
3083.853545,880.558717,76.570323,-9915.856854
3083.856081,401.994197,325.423874,-9992.427178
3083.858618,-669.990328,1033.699363,-9915.856854
3083.861155,3024.527766,-1339.980656,-10183.852986
3083.863691,2009.970984,1416.550979,-9609.575562
3083.866228,1818.545176,-1684.547110,-9915.856854
3083.868764,669.990328,-1397.408398,-10011.569758
3083.871301,-2450.250342,4039.084549,-9839.286531
3083.873838,2009.970984,-2986.242605,-11006.983960
3083.876374,3177.668413,1780.260014,-9284.151688
3083.878911,-1378.265818,2009.970984,-9628.718142
3083.881447,1359.123237,-1933.400661,-10375.278794
3083.883984,-440.279358,5091.926493,-8863.014910
3083.886521,-95.712904,-3407.379382,-10911.271056
3083.889057,-19.142581,3809.373579,-9724.431046
3083.891594,1052.841944,1397.408398,-9092.725880
3083.894131,1588.834206,-3062.812928,-10451.849117
3083.896667,-1014.556782,3732.803256,-9169.296203
3083.899204,-3541.377448,2794.816797,-9858.429112
3083.901740,708.275490,-1952.543242,-10853.843314
3083.904277,2163.111630,3790.230998,-9207.581365
3083.906814,1416.550979,-363.709035,-10068.997501
3083.909350,172.283227,631.705166,-9839.286531
3083.911887,-861.416136,2009.970984,-9513.862658
3083.914424,-363.709035,229.710970,-9896.714274
3083.916960,1225.125171,2469.392923,-9705.288466
3083.919497,440.279358,1205.982590,-10145.567824
3083.922033,363.709035,248.853550,-9705.288466
3083.924570,823.130974,937.986459,-9781.858789
3083.927107,440.279358,1435.693560,-10011.569758
3083.929643,497.707101,1071.984525,-9724.431046
3083.932180,229.710970,1454.836141,-9801.001370
3083.934716,-612.562586,1244.267752,-9954.142016
3083.937258,1665.404530,-708.275490,-10183.852986
3083.939800,-133.998066,4039.084549,-9609.575562
3083.942343,-1071.984525,1627.119368,-9820.143950
3083.944885,-1569.691626,1780.260014,-9552.147819
3083.947427,1359.123237,2258.824534,-9667.003304
3083.949969,976.271621,-1205.982590,-9533.005238
3083.952511,133.998066,-2507.678085,-10968.698798
3083.955053,1129.412267,2488.535504,-9820.143950
3083.957595,535.992262,-976.271621,-9590.432981
3083.960137,899.701298,-1339.980656,-10451.849117
3083.962679,-669.990328,4077.369710,-9590.432981
3083.965222,3139.383251,-2871.387120,-10222.138147
3083.967764,114.855485,4173.082614,-9035.298138
3083.970306,172.283227,-2622.533570,-10700.702667
3083.972848,-76.570323,784.845813,-9896.714274
3083.975390,842.273555,2029.113565,-9973.284597
3083.977932,2909.672282,-2584.248408,-10298.708470
3083.980474,574.277424,191.425808,-9399.007173
3083.983016,-229.710970,153.140646,-10164.710405
3083.985558,-823.130974,1531.406464,-9877.571693
3083.988101,1167.697429,1914.258080,-9533.005238
3083.990643,1244.267752,57.427742,-10126.425243
3083.993185,1569.691626,-325.423874,-9915.856854
3083.995727,19.142581,1301.695494,-9533.005238
3083.998269,516.849682,57.427742,-10049.854920
3084.000811,650.847747,976.271621,-9877.571693
3084.003353,1359.123237,1205.982590,-10260.423309
3084.005895,669.990328,-153.140646,-9992.427178
3084.008437,-765.703232,1167.697429,-9379.864592
3084.010980,2756.531635,-976.271621,-10451.849117
3084.013522,2239.681954,1091.127106,-9743.573627
3084.016064,1435.693560,-1244.267752,-9820.143950
3084.018606,1167.697429,-1129.412267,-10145.567824
3084.021148,-2469.392923,3292.523898,-9456.434915
3084.023690,2297.109696,-2622.533570,-10853.843314
3084.026232,2737.389054,2507.678085,-9571.290400
3084.028774,267.996131,1148.554848,-9552.147819
3084.031316,95.712904,516.849682,-10030.712339
3084.033859,-1282.552914,3273.381317,-9533.005238
3084.036401,823.130974,-3675.375514,-10681.560086
3084.038948,-765.703232,5398.207786,-9226.723946
3084.041495,1320.838075,-1397.408398,-10872.985894
3084.044042,1282.552914,-1933.400661,-9992.427178
3084.046589,-650.847747,3483.949706,-9303.294269
3084.049136,-3445.664544,19.142581,-10375.278794
3084.051683,440.279358,1761.117434,-10030.712339
3084.054230,1186.840010,3330.809059,-9169.296203
3084.056777,1282.552914,-1703.689691,-10068.997501
3084.059324,612.562586,1703.689691,-9609.575562
3084.061871,-440.279358,401.994197,-10088.140082
3084.064418,-1473.978722,401.994197,-10011.569758
3084.066965,1473.978722,2124.826469,-9896.714274
3084.069512,1091.127106,382.851616,-10107.282662
3084.072059,-114.855485,497.707101,-9609.575562
3084.074606,325.423874,1588.834206,-9781.858789
3084.077153,497.707101,957.129040,-10049.854920
3084.079700,344.566454,1033.699363,-9590.432981
3084.082247,-153.140646,1550.549045,-9475.577496
3084.084794,918.843878,1033.699363,-10107.282662
3084.087341,-287.138712,344.566454,-10451.849117
3084.089888,-133.998066,1761.117434,-10298.708470
3084.092435,-1129.412267,3541.377448,-9418.149754
3084.094982,-612.562586,2316.252277,-9513.862658
3084.097529,3732.803256,-1531.406464,-10241.280728
3084.100076,-708.275490,4651.647134,-9399.007173
3084.102623,-1512.263883,-1416.550979,-10777.272990
3084.105170,3579.662610,-823.130974,-9552.147819
3084.107717,-1091.127106,4058.227130,-8709.874264
3084.110264,440.279358,-4536.791650,-11408.978157
3084.112812,650.847747,3924.229064,-9552.147819
3084.115359,1186.840010,784.845813,-9705.288466
3084.117906,363.709035,-2660.818731,-10317.851051
3084.120453,-574.277424,4785.645200,-9016.155557
3084.123000,1569.691626,-1416.550979,-10528.419440
3084.125547,1684.547110,421.136778,-9934.999435
3084.128094,2603.390989,-727.418070,-9839.286531
3084.130641,-976.271621,-823.130974,-9858.429112
3084.133188,19.142581,976.271621,-10336.993632
3084.135735,-229.710970,861.416136,-10317.851051
3084.138282,516.849682,918.843878,-9571.290400
3084.140832,1933.400661,-650.847747,-10030.712339
3084.143383,650.847747,880.558717,-9647.860723
3084.145933,-689.132909,344.566454,-9858.429112
3084.148484,1550.549045,421.136778,-9896.714274
3084.151034,650.847747,1052.841944,-9858.429112
3084.153584,497.707101,-842.273555,-10164.710405
3084.156135,-440.279358,1684.547110,-9533.005238
3084.158685,2603.390989,-612.562586,-10088.140082
3084.161236,2258.824534,-880.558717,-10011.569758
3084.163786,1473.978722,325.423874,-9647.860723
3084.166337,899.701298,-1416.550979,-10164.710405
3084.168887,-2756.531635,2775.674216,-9399.007173
3084.171437,2297.109696,-2143.969050,-10585.847182
3084.173988,3349.951640,2603.390989,-9379.864592
3084.176538,76.570323,1339.980656,-9667.003304
3084.179089,133.998066,918.843878,-9801.001370
3084.181639,-784.845813,3311.666478,-9360.722011
3084.184189,114.855485,-1569.691626,-10145.567824
3084.186740,650.847747,2603.390989,-9896.714274
3084.189290,1033.699363,2431.107762,-9839.286531
3084.191841,1473.978722,-1703.689691,-10260.423309
3084.194391,-937.986459,3713.660675,-9379.864592
3084.196942,-3101.098090,-344.566454,-10375.278794
3084.199492,306.281293,2526.820666,-9858.429112
3084.202042,727.418070,2813.959378,-9647.860723
3084.204593,1703.689691,-1473.978722,-10260.423309
3084.207143,57.427742,401.994197,-9858.429112
3084.209694,-191.425808,1588.834206,-9915.856854
3084.212244,-1014.556782,1378.265818,-10145.567824
3084.214795,1167.697429,937.986459,-10030.712339
3084.217345,976.271621,1493.121302,-9762.716208
3084.219895,0.000000,191.425808,-9934.999435
3084.222446,-612.562586,842.273555,-9877.571693
3084.224996,765.703232,1512.263883,-9877.571693
3084.227547,-38.285162,1320.838075,-10279.565890
3084.230097,-344.566454,1741.974853,-9609.575562
3084.232648,-267.996131,-306.281293,-9820.143950
3084.235198,-861.416136,1320.838075,-9954.142016
3084.237748,-1512.263883,3962.514226,-9724.431046
3084.240299,38.285162,2067.398726,-9934.999435
3084.242853,2794.816797,1416.550979,-9743.573627
3084.245406,-727.418070,1225.125171,-9131.011042
3084.247960,-248.853550,-2450.250342,-10432.706536
3084.250514,153.140646,2813.959378,-9954.142016
3084.253067,1416.550979,-1933.400661,-9973.284597
3084.255621,1320.838075,-3905.086483,-10911.271056
3084.258175,76.570323,4077.369710,-9207.581365
3084.260729,2297.109696,-2986.242605,-10145.567824
3084.263282,248.853550,2258.824534,-9456.434915
3084.265836,95.712904,95.712904,-10222.138147
3084.268390,1091.127106,-1110.269686,-10202.995566
3084.270944,1129.412267,2488.535504,-9533.005238
3084.273497,2048.256146,-2699.103893,-10260.423309
3084.276051,842.273555,-1110.269686,-9647.860723
3084.278605,-19.142581,1052.841944,-10279.565890
3084.281158,-574.277424,1148.554848,-10164.710405
3084.283712,267.996131,1550.549045,-9265.009107
3084.286266,1895.115499,19.142581,-9781.858789
3084.288820,995.414202,133.998066,-9992.427178
3084.291373,-746.560651,1741.974853,-9973.284597
3084.293927,1454.836141,440.279358,-10413.563955
3084.296481,937.986459,516.849682,-9743.573627
3084.299035,287.138712,478.564520,-9686.145885
3084.301588,1435.693560,38.285162,-10298.708470
3084.304142,1588.834206,1167.697429,-9686.145885
3084.306696,2603.390989,-1129.412267,-10375.278794
3084.309249,1263.410333,-516.849682,-10068.997501
3084.311803,-114.855485,-76.570323,-9552.147819
3084.314357,-1301.695494,3215.953574,-9456.434915
3084.316911,1971.685822,-1320.838075,-10834.700733
3084.319464,3579.662610,-248.853550,-9896.714274
3084.322018,-1397.408398,2794.816797,-9552.147819
3084.324574,267.996131,-3828.516160,-10738.987829
3084.327130,344.566454,3656.232933,-8595.018779
3084.329685,-1454.836141,1971.685822,-9705.288466
3084.332241,1531.406464,-1627.119368,-11006.983960
3084.334797,1091.127106,5283.352301,-8805.587168
3084.337353,306.281293,-784.845813,-9762.716208
3084.339908,-1129.412267,-363.709035,-9743.573627
3084.342464,-2928.814862,5168.496816,-9322.436850
3084.345020,421.136778,-1493.121302,-11045.269122
3084.347576,3043.670347,2239.681954,-9820.143950
3084.350131,1148.554848,995.414202,-9513.862658
3084.352687,-459.421939,-1263.410333,-9686.145885
3084.355243,-784.845813,2526.820666,-9341.579430
3084.357799,-306.281293,210.568389,-9973.284597
3084.360355,1148.554848,497.707101,-10643.274925
3084.362910,899.701298,1550.549045,-9973.284597
3084.365466,-669.990328,957.129040,-9188.438784
3084.368022,-287.138712,401.994197,-9724.431046
3084.370578,535.992262,1378.265818,-10413.563955
3084.373133,1052.841944,2105.683888,-10068.997501
3084.375689,306.281293,-95.712904,-10126.425243
3084.378245,-861.416136,2067.398726,-9513.862658
3084.380801,-2143.969050,3943.371645,-9035.298138
3084.383356,-153.140646,2277.967115,-10260.423309
3084.385912,4077.369710,842.273555,-10145.567824
3084.388468,-861.416136,3598.805190,-8690.731683
3084.391024,-1110.269686,-3503.092286,-10949.556218
3084.393580,1071.984525,2182.254211,-9647.860723
3084.396135,574.277424,114.855485,-9437.292334
3084.398691,1665.404530,-2182.254211,-10738.987829
3084.401247,-248.853550,4364.508422,-9360.722011
3084.403803,2622.533570,-2852.244539,-9877.571693
3084.406358,0.000000,1186.840010,-9399.007173
3084.408914,-363.709035,1703.689691,-10068.997501
3084.411470,1339.980656,-976.271621,-10317.851051
3084.414026,1263.410333,1856.830338,-9533.005238
3084.416581,1684.547110,-2316.252277,-10107.282662
3084.419137,995.414202,-1473.978722,-9418.149754
3084.421693,-38.285162,1646.261949,-9724.431046
3084.424249,-1033.699363,899.701298,-10758.130410
3084.426806,957.129040,918.843878,-9954.142016
3084.429364,1914.258080,1531.406464,-9418.149754
3084.431922,248.853550,-133.998066,-9973.284597
3084.434479,-363.709035,976.271621,-9896.714274
3084.437037,1856.830338,593.420005,-10241.280728
3084.439594,-325.423874,976.271621,-9973.284597
3084.442152,440.279358,784.845813,-10202.995566
3084.444709,2277.967115,-267.996131,-10126.425243
3084.447267,1646.261949,612.562586,-9399.007173
3084.449825,1646.261949,-1110.269686,-10183.852986
3084.452382,1033.699363,-727.418070,-10183.852986
3084.454940,-2029.113565,2699.103893,-9494.720077
3084.457497,2354.537438,-2756.531635,-10930.413637
3084.460055,2813.959378,2679.961312,-9054.440718
3084.462612,1244.267752,306.281293,-9207.581365
3084.465170,-631.705166,1339.980656,-9973.284597
3084.467727,-957.129040,2067.398726,-9552.147819
3084.470285,861.416136,-2871.387120,-10298.708470
3084.472843,-1761.117434,4881.358104,-9609.575562
3084.475400,1263.410333,765.703232,-9820.143950
3084.477958,1875.972918,-172.283227,-9609.575562
3084.480515,-995.414202,2622.533570,-9667.003304
3084.483073,-2067.398726,-918.843878,-10279.565890
3084.485630,-823.130974,4134.797453,-9475.577496
3084.488188,440.279358,727.418070,-10451.849117
3084.490746,1550.549045,95.712904,-9609.575562
3084.493303,1378.265818,1741.974853,-9284.151688
3084.495861,-1148.554848,-516.849682,-10528.419440
3084.498418,-1416.550979,1244.267752,-9762.716208
3084.500976,1320.838075,1301.695494,-10279.565890
3084.503533,1359.123237,650.847747,-10145.567824
3084.506091,-1378.265818,1493.121302,-9379.864592
3084.508649,306.281293,957.129040,-10011.569758
3084.511206,76.570323,1569.691626,-9992.427178
3084.513764,593.420005,1378.265818,-9820.143950
3084.516321,344.566454,344.566454,-10145.567824
3084.518879,-555.134843,1339.980656,-10011.569758
3084.521436,-2373.680019,3311.666478,-9494.720077
3084.523994,-133.998066,1914.258080,-10145.567824
3084.526552,4287.938099,133.998066,-9705.288466
3084.529111,-1071.984525,3751.945837,-8595.018779
3084.531670,-1205.982590,-3062.812928,-11179.267187
3084.534230,727.418070,1837.687757,-10145.567824
3084.536789,842.273555,287.138712,-9571.290400
3084.539349,2469.392923,-2431.107762,-10356.136213
3084.541908,57.427742,4249.652938,-9073.583299
3084.544467,2373.680019,-2718.246474,-9973.284597
3084.547027,-440.279358,1569.691626,-9896.714274
3084.549586,-172.283227,1665.404530,-10356.136213
3084.552146,1627.119368,-976.271621,-9954.142016
3084.554705,1110.269686,1646.261949,-9111.868461
3084.557265,1588.834206,-2124.826469,-10241.280728
3084.559824,1837.687757,-1014.556782,-10011.569758
3084.562383,19.142581,2258.824534,-10279.565890
3084.564943,-459.421939,669.990328,-10509.276859
3084.567502,995.414202,689.132909,-8997.012976
3084.570062,1780.260014,516.849682,-9303.294269
3084.572621,459.421939,287.138712,-10490.134278
3084.575180,-114.855485,1320.838075,-10604.989763
3084.577740,1186.840010,593.420005,-10183.852986
3084.580299,172.283227,899.701298,-9054.440718
3084.582859,1167.697429,-765.703232,-9437.292334
3084.585418,1703.689691,1052.841944,-9915.856854
3084.587978,1473.978722,229.710970,-10643.274925
3084.590537,1703.689691,-861.416136,-10394.421374
3084.593096,-612.562586,-191.425808,-9494.720077
3084.595656,248.853550,1607.976787,-9226.723946
3084.598215,1895.115499,1052.841944,-9934.999435
3084.600775,3503.092286,-1914.258080,-10815.558152
3084.603334,-2469.392923,3905.086483,-9705.288466
3084.605893,38.285162,-3158.525832,-10719.845248
3084.608453,535.992262,3445.664544,-8633.303941
3084.611012,-1378.265818,2297.109696,-9418.149754
3084.613572,1071.984525,-593.420005,-11026.126541
3084.616131,899.701298,4996.213589,-9092.725880
3084.618691,440.279358,-1167.697429,-9781.858789
3084.621250,-1167.697429,287.138712,-9858.429112
3084.623809,-2297.109696,4077.369710,-9628.718142
3084.626369,210.568389,248.853550,-10566.704602
3084.628928,1761.117434,2029.113565,-9877.571693
3084.631488,1071.984525,153.140646,-9743.573627
3084.634049,267.996131,287.138712,-9418.149754
3084.636609,-1052.841944,2009.970984,-9877.571693
3084.639169,191.425808,1110.269686,-10068.997501
3084.641730,1569.691626,803.988394,-9667.003304
3084.644290,593.420005,689.132909,-9743.573627
3084.646850,-803.988394,1110.269686,-9571.290400
3084.649410,478.564520,976.271621,-9839.286531
3084.651971,1359.123237,861.416136,-10260.423309
3084.654531,-784.845813,1627.119368,-9647.860723
3084.657091,-957.129040,267.996131,-9820.143950
3084.659651,-1378.265818,3139.383251,-9609.575562
3084.662212,-478.564520,2526.820666,-9552.147819
3084.664772,3847.658741,-1033.699363,-10451.849117
3084.667332,-880.558717,4651.647134,-8805.587168
3084.669892,-1837.687757,-2009.970984,-10547.562021
3084.672453,1646.261949,478.564520,-10049.854920
3084.675013,669.990328,1665.404530,-9437.292334
3084.677573,1799.402595,-3541.377448,-10930.413637
3084.680133,-76.570323,4249.652938,-9475.577496
3084.682694,2660.818731,-2718.246474,-10202.995566
3084.685254,-689.132909,2603.390989,-8977.870395
3084.687814,95.712904,2660.818731,-9973.284597
3084.690374,1665.404530,-1014.556782,-10547.562021
3084.692935,976.271621,2048.256146,-9552.147819
3084.695495,1397.408398,-995.414202,-10164.710405
3084.698055,1933.400661,-1933.400661,-10107.282662
3084.700615,-401.994197,1722.832272,-9724.431046
3084.703176,-555.134843,1110.269686,-10528.419440
3084.705736,1014.556782,899.701298,-9992.427178
3084.708296,957.129040,1359.123237,-9226.723946
3084.710856,38.285162,-325.423874,-10145.567824
3084.713417,382.851616,650.847747,-10164.710405
3084.715977,497.707101,2029.113565,-9877.571693
3084.718537,918.843878,-784.845813,-10011.569758
3084.721097,1550.549045,38.285162,-9513.862658
3084.723658,1914.258080,-57.427742,-9724.431046
3084.726218,1703.689691,-784.845813,-10183.852986
3084.728778,1129.412267,-133.998066,-10068.997501
3084.731339,-2143.969050,1397.408398,-9590.432981
3084.733900,2507.678085,-2986.242605,-10432.706536
3084.736461,2947.957443,689.132909,-9245.866526
3084.739022,-440.279358,1320.838075,-9590.432981
3084.741583,593.420005,-248.853550,-10317.851051
3084.744144,-803.988394,4536.791650,-8977.870395
3084.746705,555.134843,-2411.965181,-10183.852986
3084.749267,-957.129040,4804.787781,-9571.290400
3084.751828,689.132909,3369.094221,-9475.577496
3084.754389,2009.970984,-2507.678085,-10356.136213
3084.756950,-1129.412267,2641.676150,-9571.290400
3084.759511,-2105.683888,306.281293,-10088.140082
3084.762072,-1110.269686,3005.385186,-10030.712339
3084.764633,1473.978722,1569.691626,-10279.565890
3084.767195,708.275490,344.566454,-9552.147819
3084.769756,363.709035,287.138712,-9820.143950
3084.772317,19.142581,784.845813,-10222.138147
3084.774878,-727.418070,1244.267752,-10068.997501
3084.777439,689.132909,1473.978722,-10164.710405
3084.780000,880.558717,-153.140646,-10298.708470
3084.782561,-344.566454,1493.121302,-9379.864592
3084.785123,-153.140646,708.275490,-10126.425243
3084.787684,1416.550979,19.142581,-10145.567824
3084.790245,-1473.978722,2660.818731,-9533.005238
3084.792806,-1684.547110,1014.556782,-10088.140082
3084.795367,-555.134843,1856.830338,-9954.142016
3084.797928,57.427742,3273.381317,-9418.149754
3084.800489,3292.523898,-2699.103893,-10336.993632
3084.803051,-880.558717,4613.361973,-8824.729749
3084.805612,-2067.398726,-76.570323,-10509.276859
3084.808173,2277.967115,-899.701298,-10298.708470
3084.810734,306.281293,3579.662610,-8767.302006
3084.813295,1799.402595,-4383.651003,-10777.272990
3084.815856,765.703232,114.855485,-10030.712339
3084.818417,1665.404530,306.281293,-9801.001370
3084.820979,210.568389,-287.138712,-9954.142016
3084.823540,-248.853550,3541.377448,-9265.009107
3084.826101,1703.689691,-880.558717,-9973.284597
3084.828662,1799.402595,1225.125171,-9820.143950
3084.831223,1244.267752,19.142581,-10011.569758
3084.833784,1684.547110,-1761.117434,-9781.858789
3084.836345,650.847747,727.418070,-9303.294269
3084.838907,478.564520,1378.265818,-10145.567824
3084.841469,267.996131,1339.980656,-10183.852986
3084.844031,995.414202,287.138712,-9839.286531
3084.846593,727.418070,593.420005,-9341.579430
3084.849155,-95.712904,1148.554848,-9915.856854
3084.851717,631.705166,708.275490,-10222.138147
3084.854279,1071.984525,459.421939,-9628.718142
3084.856841,1914.258080,-689.132909,-10202.995566
3084.859403,1627.119368,-344.566454,-10394.421374
3084.861965,1129.412267,-133.998066,-9839.286531
3084.864527,-2009.970984,248.853550,-10011.569758
3084.867089,2277.967115,-1205.982590,-10528.419440
3084.869651,2469.392923,3254.238736,-9169.296203
3084.872213,2239.681954,-1531.406464,-10298.708470
3084.874775,-1780.260014,3522.234867,-9743.573627
3084.877337,-631.705166,-1129.412267,-10336.993632
3084.879899,1110.269686,-248.853550,-9973.284597
3084.882461,-2411.965181,4785.645200,-9609.575562
3084.885023,1665.404530,-1684.547110,-10911.271056
3084.887585,1569.691626,2660.818731,-9265.009107
3084.890147,-133.998066,1703.689691,-9494.720077
3084.892709,-765.703232,-1990.828403,-10566.704602
3084.895271,-1952.543242,4421.936165,-9513.862658
3084.897833,306.281293,1780.260014,-10088.140082
3084.900395,937.986459,421.136778,-9724.431046
3084.902957,1071.984525,497.707101,-9322.436850
3084.905519,325.423874,76.570323,-9858.429112
3084.908081,-1033.699363,1627.119368,-10451.849117
3084.910643,363.709035,1588.834206,-9743.573627
3084.913205,1799.402595,95.712904,-9265.009107
3084.915767,153.140646,784.845813,-9418.149754
3084.918329,-612.562586,1052.841944,-9801.001370
3084.920891,1091.127106,172.283227,-10451.849117
3084.923453,-401.994197,2833.101958,-9743.573627
3084.926015,-1703.689691,823.130974,-9475.577496
3084.928577,-593.420005,1014.556782,-9360.722011
3084.931139,-153.140646,3656.232933,-9724.431046
3084.933701,2469.392923,-1646.261949,-10719.845248
3084.936263,-612.562586,3847.658741,-9092.725880
3084.938826,-1914.258080,1512.263883,-9858.429112
3084.941388,2775.674216,-2526.820666,-10202.995566
3084.943951,-133.998066,4728.217458,-8748.159426
3084.946514,1205.982590,-3924.229064,-11313.265253
3084.949077,708.275490,1971.685822,-9724.431046
3084.951640,1990.828403,-1263.410333,-9628.718142
3084.954202,-440.279358,880.558717,-9609.575562
3084.956765,-248.853550,3503.092286,-9801.001370
3084.959328,1990.828403,344.566454,-10241.280728
3084.961891,1684.547110,325.423874,-9762.716208
3084.964454,1091.127106,-153.140646,-9552.147819
3084.967016,1359.123237,-1512.263883,-10260.423309
3084.969579,267.996131,918.843878,-10068.997501
3084.972142,-267.996131,1435.693560,-10145.567824
3084.974705,861.416136,880.558717,-9915.856854
3084.977268,1186.840010,401.994197,-9360.722011
3084.979830,287.138712,784.845813,-9858.429112
3084.982393,344.566454,1416.550979,-10528.419440
3084.984956,1244.267752,382.851616,-10088.140082
3084.987519,1416.550979,153.140646,-9475.577496
3084.990081,1952.543242,-516.849682,-9781.858789
3084.992644,1761.117434,-593.420005,-9915.856854
3084.995207,765.703232,-38.285162,-9820.143950
3084.997770,-1971.685822,2928.814862,-9973.284597
3085.000333,2316.252277,-2775.674216,-10566.704602
3085.002895,3771.088418,-1091.127106,-9647.860723
3085.005458,-2182.254211,2258.824534,-9571.290400
3085.008021,1129.412267,-2660.818731,-10872.985894
3085.010584,-191.425808,5934.200048,-8901.300072
3085.013147,-478.564520,-95.712904,-9934.999435
3085.015709,-267.996131,2584.248408,-9513.862658
3085.018272,937.986459,2143.969050,-9628.718142
3085.020835,1607.976787,-1837.687757,-10375.278794
3085.023398,-842.273555,3503.092286,-9533.005238
3085.025961,-1493.121302,1473.978722,-10030.712339
3085.028523,-1761.117434,1359.123237,-9762.716208
3085.031086,2105.683888,1569.691626,-9858.429112
3085.033649,1052.841944,555.134843,-9743.573627
3085.036212,248.853550,976.271621,-9628.718142
3085.038775,-153.140646,746.560651,-10470.991698
3085.041338,-248.853550,1148.554848,-10049.854920
3085.043900,459.421939,823.130974,-9552.147819
3085.046463,612.562586,-133.998066,-9877.571693
3085.049026,459.421939,1550.549045,-9992.427178
3085.051589,-287.138712,555.134843,-10030.712339
3085.054152,-1129.412267,1761.117434,-9877.571693
3085.056715,-669.990328,1359.123237,-9973.284597
3085.059278,-976.271621,2105.683888,-9513.862658
3085.061841,-421.136778,2450.250342,-9820.143950
3085.064404,3464.807125,-727.418070,-10413.563955
3085.066967,-1282.552914,4575.076811,-8767.302006
3085.069530,-1569.691626,-1569.691626,-10547.562021
3085.072093,1473.978722,1033.699363,-10202.995566
3085.074656,401.994197,4728.217458,-8633.303941
3085.077219,1033.699363,-4402.793584,-11351.550414
3085.079782,516.849682,1914.258080,-9667.003304
3085.082345,2354.537438,-1225.125171,-9513.862658
3085.084908,-382.851616,957.129040,-9475.577496
3085.087471,-76.570323,2009.970984,-10030.712339
3085.090034,1531.406464,-267.996131,-10126.425243
3085.092597,1167.697429,1646.261949,-9858.429112
3085.095160,1473.978722,-803.988394,-10107.282662
3085.097723,1359.123237,-1282.552914,-9839.286531
3085.100286,593.420005,0.000000,-10011.569758
3085.102849,-76.570323,1971.685822,-9801.001370
3085.105412,440.279358,1014.556782,-9992.427178
3085.107975,1110.269686,38.285162,-9896.714274
3085.110538,267.996131,1550.549045,-9226.723946
3085.113101,823.130974,325.423874,-10068.997501
3085.115664,1282.552914,95.712904,-10394.421374
3085.118227,1512.263883,861.416136,-9533.005238
3085.120789,1875.972918,-363.709035,-10145.567824
3085.123352,1722.832272,-976.271621,-10126.425243
3085.125915,-1205.982590,516.849682,-9590.432981
3085.128478,784.845813,1071.984525,-10145.567824
3085.131041,1952.543242,1244.267752,-9858.429112
3085.133604,3158.525832,-1837.687757,-9801.001370
3085.136167,-2009.970984,3407.379382,-9801.001370
3085.138730,650.847747,-3445.664544,-11408.978157
3085.141293,-19.142581,3905.086483,-8997.012976
3085.143857,-2392.822600,4862.215523,-9418.149754
3085.146420,1952.543242,-1856.830338,-10758.130410
3085.148983,1148.554848,5589.633594,-8595.018779
3085.151547,669.990328,-1512.263883,-10528.419440
3085.154110,-918.843878,-114.855485,-10356.136213
3085.156673,-1531.406464,3407.379382,-9456.434915
3085.159236,-1627.119368,727.418070,-10145.567824
3085.161800,1971.685822,765.703232,-9973.284597
3085.164363,612.562586,1091.127106,-9379.864592
3085.166926,593.420005,-267.996131,-10088.140082
3085.169490,-689.132909,1493.121302,-9954.142016
3085.172053,114.855485,1397.408398,-9820.143950
3085.174616,478.564520,325.423874,-9590.432981
3085.177180,976.271621,708.275490,-9667.003304
3085.179743,-133.998066,555.134843,-10030.712339
3085.182306,-593.420005,1646.261949,-9896.714274
3085.184870,-976.271621,1646.261949,-9915.856854
3085.187433,-133.998066,1569.691626,-9801.001370
3085.189996,-19.142581,2545.963246,-9552.147819
3085.192560,2967.100024,-19.142581,-9934.999435
3085.195123,-1493.121302,3656.232933,-9092.725880
3085.197686,-1129.412267,-1646.261949,-10681.560086
3085.200250,114.855485,2488.535504,-9743.573627
3085.202813,1416.550979,-287.138712,-9609.575562
3085.205376,1895.115499,-4689.932296,-11351.550414
3085.207940,669.990328,3426.521963,-9379.864592
3085.210503,2124.826469,-1914.258080,-10030.712339
3085.213066,-267.996131,1167.697429,-9609.575562
3085.215630,-133.998066,937.986459,-10107.282662
3085.218193,1244.267752,-612.562586,-10604.989763
3085.220756,1148.554848,2469.392923,-9801.001370
3085.223320,2009.970984,-1014.556782,-9781.858789
3085.225883,957.129040,-1359.123237,-9839.286531
3085.228446,497.707101,1148.554848,-9858.429112
3085.231010,-95.712904,535.992262,-10375.278794
3085.233573,842.273555,574.277424,-9973.284597
3085.236136,1148.554848,229.710970,-9590.432981
3085.238700,153.140646,784.845813,-9609.575562
3085.241263,593.420005,497.707101,-10356.136213
3085.243826,1493.121302,497.707101,-10356.136213
3085.246390,1684.547110,727.418070,-9475.577496
3085.248954,1569.691626,-995.414202,-9628.718142
3085.251517,1205.982590,-459.421939,-9858.429112
3085.254081,-2277.967115,2239.681954,-9954.142016
3085.256645,2335.394858,-2545.963246,-10853.843314
3085.259209,2833.101958,2928.814862,-8824.729749
3085.261772,2239.681954,-689.132909,-9552.147819
3085.264336,-1263.410333,2756.531635,-9915.856854
3085.266900,-995.414202,478.564520,-10222.138147
3085.269463,1378.265818,-1359.123237,-10298.708470
3085.272027,-2450.250342,4843.072942,-9513.862658
3085.274591,995.414202,-95.712904,-10088.140082
3085.277155,1895.115499,1933.400661,-9533.005238
3085.279718,-95.712904,1933.400661,-9762.716208
3085.282282,-784.845813,-1531.406464,-10164.710405
3085.284846,-918.843878,3177.668413,-9475.577496
3085.287409,-440.279358,1837.687757,-10164.710405
3085.289973,842.273555,-248.853550,-10126.425243
3085.292537,1703.689691,1167.697429,-9475.577496
3085.295101,-325.423874,421.136778,-9839.286531
3085.297664,-535.992262,1397.408398,-9992.427178
3085.300228,153.140646,325.423874,-10394.421374
3085.302792,1129.412267,842.273555,-10011.569758
3085.305356,880.558717,612.562586,-9801.001370
3085.307919,-937.986459,1129.412267,-9667.003304
3085.310483,-555.134843,1091.127106,-9667.003304
3085.313047,-823.130974,2201.396792,-9590.432981
3085.315610,-708.275490,2029.113565,-10375.278794
3085.318174,669.990328,1741.974853,-10107.282662
3085.320738,287.138712,669.990328,-9475.577496
3085.323302,-1473.978722,-516.849682,-10183.852986
3085.325865,-2182.254211,3905.086483,-9667.003304
3085.328429,3215.953574,-2316.252277,-10624.132344
3085.330993,2105.683888,2909.672282,-9533.005238
3085.333557,210.568389,401.994197,-10088.140082
3085.336120,2335.394858,-1837.687757,-9896.714274
3085.338684,861.416136,306.281293,-9667.003304
3085.341248,-325.423874,-1722.832272,-10624.132344
3085.343811,-76.570323,3962.514226,-9915.856854
3085.346375,1607.976787,1607.976787,-9801.001370
3085.348939,2067.398726,-708.275490,-9743.573627
3085.351502,1014.556782,995.414202,-9341.579430
3085.354066,459.421939,-1473.978722,-10317.851051
3085.356629,172.283227,1033.699363,-10049.854920
3085.359193,612.562586,1473.978722,-10145.567824
3085.361756,631.705166,-19.142581,-9705.288466
3085.364320,899.701298,1148.554848,-9131.011042
3085.366883,478.564520,631.705166,-9858.429112
3085.369447,1205.982590,-478.564520,-10470.991698
3085.372010,2029.113565,1205.982590,-9858.429112
3085.374574,1799.402595,-153.140646,-9801.001370
3085.377137,1703.689691,-1741.974853,-9877.571693
3085.379701,-2469.392923,1588.834206,-9571.290400
3085.382264,2067.398726,-1531.406464,-10700.702667
3085.384828,2220.539373,3005.385186,-9379.864592
3085.387391,2794.816797,-1071.984525,-9934.999435
3085.389955,-957.129040,1244.267752,-9705.288466
3085.392518,-823.130974,2105.683888,-9686.145885
3085.395082,689.132909,-2124.826469,-10719.845248
3085.397645,-2833.101958,5130.211654,-9552.147819
3085.400209,1856.830338,-1416.550979,-10777.272990
3085.402772,1952.543242,4000.799387,-8748.159426
3085.405336,-38.285162,746.560651,-9686.145885
3085.407899,-574.277424,-1933.400661,-10681.560086
3085.410463,-1531.406464,4000.799387,-9590.432981
3085.413026,-1359.123237,1148.554848,-10394.421374
3085.415590,1052.841944,-574.277424,-10145.567824
3085.418153,1550.549045,1129.412267,-9131.011042
3085.420717,-306.281293,-38.285162,-9992.427178
3085.423280,-516.849682,880.558717,-10451.849117
3085.425844,899.701298,1952.543242,-9896.714274
3085.428407,535.992262,-133.998066,-9743.573627
3085.430971,382.851616,153.140646,-9705.288466
3085.433535,-287.138712,1722.832272,-9839.286531
3085.436098,-1339.980656,1225.125171,-10260.423309
3085.438662,-1359.123237,2411.965181,-9552.147819
3085.441225,133.998066,2048.256146,-9743.573627
3085.443789,3732.803256,133.998066,-10088.140082
3085.446352,-1780.260014,3656.232933,-9111.868461
3085.448916,-1780.260014,-1473.978722,-10643.274925
3085.451479,19.142581,2048.256146,-9992.427178
3085.454043,1646.261949,-114.855485,-9609.575562
3085.456607,2622.533570,-1339.980656,-10030.712339
3085.459170,344.566454,3273.381317,-9724.431046
3085.461734,2354.537438,-1091.127106,-9839.286531
3085.464298,-976.271621,1320.838075,-9456.434915
3085.466861,191.425808,-784.845813,-10566.704602
3085.469425,1378.265818,612.562586,-9896.714274
3085.471989,689.132909,2354.537438,-9475.577496
3085.474552,2316.252277,-957.129040,-10317.851051
3085.477116,1282.552914,1359.123237,-9437.292334
3085.479680,-95.712904,153.140646,-9877.571693
3085.482244,114.855485,-669.990328,-10394.421374
3085.484807,1837.687757,1205.982590,-9513.862658
3085.487371,1205.982590,401.994197,-9896.714274
3085.489935,153.140646,267.996131,-10030.712339
3085.492498,555.134843,708.275490,-9724.431046
3085.495062,1416.550979,-133.998066,-10413.563955
3085.497626,1837.687757,325.423874,-9934.999435
3085.500189,2201.396792,-76.570323,-9399.007173
3085.502753,-229.710970,-1186.840010,-9934.999435
3085.505317,-823.130974,2105.683888,-9820.143950
3085.507880,1722.832272,612.562586,-9992.427178
3085.510444,3273.381317,-2545.963246,-10528.419440
3085.513008,-957.129040,3407.379382,-9456.434915
3085.515571,-344.566454,-2603.390989,-10451.849117
3085.518135,267.996131,1531.406464,-9533.005238
3085.520699,-2163.111630,4192.225195,-9647.860723
3085.523263,861.416136,440.279358,-10336.993632
3085.525826,842.273555,4230.510357,-9150.153622
3085.528390,1703.689691,-3120.240670,-10451.849117
3085.530954,-727.418070,1665.404530,-9456.434915
3085.533517,-1129.412267,2928.814862,-9934.999435
3085.536081,-1186.840010,650.847747,-10375.278794
3085.538645,1282.552914,2067.398726,-9590.432981
3085.541208,1167.697429,19.142581,-9954.142016
3085.543772,-421.136778,1301.695494,-9437.292334
3085.546336,172.283227,1263.410333,-9896.714274
3085.548899,631.705166,593.420005,-10375.278794
3085.551463,497.707101,1588.834206,-9647.860723
3085.554027,497.707101,38.285162,-9820.143950
3085.556591,-95.712904,1129.412267,-10336.993632
3085.559155,-1301.695494,2699.103893,-9743.573627
3085.561719,-1531.406464,1320.838075,-10068.997501
3085.564283,287.138712,2641.676150,-9705.288466
3085.566847,3656.232933,612.562586,-9628.718142
3085.569411,-1856.830338,3043.670347,-9092.725880
3085.571976,-1627.119368,-1416.550979,-10892.128475
3085.574540,133.998066,2220.539373,-10107.282662
3085.577104,1244.267752,-344.566454,-9686.145885
3085.579668,1837.687757,-4230.510357,-10930.413637
3085.582232,1052.841944,2909.672282,-9341.579430
3085.584796,2699.103893,-1971.685822,-10030.712339
3085.587360,-1014.556782,1071.984525,-9571.290400
3085.589924,76.570323,2775.674216,-9724.431046
3085.592488,1607.976787,19.142581,-10298.708470
3085.595052,1071.984525,1148.554848,-9628.718142
3085.597616,1722.832272,0.000000,-9686.145885
3085.600180,1301.695494,-574.277424,-9762.716208
3085.602744,-210.568389,1397.408398,-9705.288466
3085.605308,210.568389,19.142581,-10336.993632
3085.607872,1531.406464,631.705166,-10145.567824
3085.610436,823.130974,1148.554848,-9628.718142
3085.613000,114.855485,172.283227,-9571.290400
3085.615564,1397.408398,-1052.841944,-10126.425243
3085.618128,1895.115499,1435.693560,-9973.284597
3085.620692,2239.681954,-440.279358,-10279.565890
3085.623257,1588.834206,-784.845813,-9954.142016
3085.625821,-2297.109696,3464.807125,-9188.438784
3085.628385,1665.404530,-3330.809059,-10662.417506
3085.630949,3024.527766,784.845813,-9647.860723
3085.633513,918.843878,440.279358,-9934.999435
3085.636077,1378.265818,-2105.683888,-10509.276859
3085.638641,-689.132909,5417.350366,-8882.157491
3085.641205,-344.566454,-689.132909,-9915.856854
3085.643769,-1665.404530,3637.090352,-9781.858789
3085.646333,803.988394,765.703232,-10432.706536
3085.648897,2086.541307,-267.996131,-9686.145885
3085.651461,-114.855485,2890.529701,-9188.438784
3085.654025,-861.416136,-1607.976787,-10451.849117
3085.656589,-1282.552914,2756.531635,-9379.864592
3085.659152,-746.560651,3828.516160,-9801.001370
3085.661716,1014.556782,861.416136,-10030.712339
3085.664280,1167.697429,-267.996131,-9379.864592
3085.666844,555.134843,382.851616,-9934.999435
3085.669407,-746.560651,1493.121302,-10068.997501
3085.671971,1014.556782,899.701298,-9839.286531
3085.674535,478.564520,114.855485,-9992.427178
3085.677098,-401.994197,1780.260014,-9379.864592
3085.679662,-823.130974,1684.547110,-9973.284597
3085.682226,-1071.984525,1703.689691,-10164.710405
3085.684789,-38.285162,2756.531635,-9360.722011
3085.687353,3675.375514,401.994197,-9858.429112
3085.689917,-1435.693560,3177.668413,-9265.009107
3085.692481,-1933.400661,-918.843878,-10317.851051
3085.695044,-267.996131,2239.681954,-10145.567824
3085.697608,1244.267752,-689.132909,-10202.995566
3085.700172,2622.533570,-1493.121302,-9992.427178
3085.702735,957.129040,3675.375514,-9054.440718
3085.705299,2890.529701,-3139.383251,-10547.562021
3085.707863,-1129.412267,1780.260014,-9073.583299
3085.710426,-114.855485,-478.564520,-10624.132344
3085.712990,631.705166,76.570323,-10317.851051
3085.715554,1033.699363,2526.820666,-9265.009107
3085.718118,2201.396792,-803.988394,-10088.140082
3085.720681,1282.552914,287.138712,-10068.997501
3085.723245,-57.427742,-708.275490,-10126.425243
3085.725809,-153.140646,1473.978722,-9973.284597
3085.728372,1493.121302,899.701298,-10260.423309
3085.730936,1014.556782,899.701298,-9647.860723
3085.733500,555.134843,76.570323,-9896.714274
3085.736064,516.849682,631.705166,-10088.140082
3085.738627,1780.260014,459.421939,-10068.997501
3085.741191,2411.965181,-114.855485,-10107.282662
3085.743755,1014.556782,-306.281293,-10030.712339
3085.746318,-1378.265818,2890.529701,-9207.581365
3085.748882,1473.978722,-2603.390989,-10662.417506
3085.751446,3311.666478,-287.138712,-9896.714274
3085.754009,153.140646,1512.263883,-9724.431046
3085.756573,1397.408398,-2469.392923,-10528.419440
3085.759137,-593.420005,5398.207786,-8575.876198
3085.761700,-306.281293,440.279358,-9743.573627
3085.764264,-1301.695494,2297.109696,-10241.280728
3085.766827,497.707101,1550.549045,-9647.860723
3085.769391,2450.250342,-1684.547110,-9705.288466
3085.771954,-57.427742,1875.972918,-9475.577496
3085.774518,-1320.838075,-899.701298,-10049.854920
3085.777081,-918.843878,1933.400661,-9590.432981
3085.779645,516.849682,3215.953574,-9609.575562
3085.782208,669.990328,1397.408398,-9437.292334
3085.784772,574.277424,-229.710970,-9762.716208
3085.787335,516.849682,38.285162,-10222.138147
3085.789899,-153.140646,1722.832272,-10068.997501
3085.792462,727.418070,708.275490,-10413.563955
3085.795026,153.140646,421.136778,-9992.427178
3085.797589,-650.847747,2124.826469,-9111.868461
3085.800153,-1091.127106,1378.265818,-10317.851051
3085.802716,-1397.408398,2392.822600,-10241.280728
3085.805280,784.845813,3043.670347,-9705.288466
3085.807843,2373.680019,-1454.836141,-10432.706536
3085.810407,-1148.554848,2852.244539,-9647.860723
3085.812970,-2775.674216,3828.516160,-9533.005238
3085.815534,2986.242605,-2124.826469,-10643.274925
3085.818097,478.564520,4345.365842,-8977.870395
3085.820661,1359.123237,-3081.955509,-10624.132344
3085.823225,1818.545176,-38.285162,-9934.999435
3085.825788,1588.834206,-95.712904,-9686.145885
3085.828352,-287.138712,-555.134843,-10088.140082
3085.830915,-976.271621,2871.387120,-9590.432981
3085.833479,2086.541307,344.566454,-9896.714274
3085.836042,1741.974853,976.271621,-9533.005238
3085.838606,1129.412267,-746.560651,-9992.427178
3085.841166,516.849682,-1244.267752,-9992.427178
3085.843730,727.418070,287.138712,-9781.858789
3085.846294,-114.855485,823.130974,-10164.710405
3085.848857,497.707101,1148.554848,-9858.429112
3085.851421,918.843878,-612.562586,-9781.858789
3085.853984,861.416136,803.988394,-9686.145885
3085.856548,899.701298,153.140646,-10241.280728
3085.859112,2392.822600,-153.140646,-10222.138147
3085.861675,1627.119368,267.996131,-9801.001370
3085.864239,-2163.111630,1569.691626,-9513.862658
3085.866802,2029.113565,-2737.389054,-10719.845248
3085.869366,2182.254211,2105.683888,-9418.149754
3085.871930,-267.996131,1263.410333,-10049.854920
3085.874493,803.988394,-191.425808,-10183.852986
3085.877057,-153.140646,4938.785846,-8748.159426
3085.879620,-57.427742,-1856.830338,-10356.136213
3085.882184,-2775.674216,4460.221326,-9781.858789
3085.884748,1091.127106,57.427742,-10566.704602
3085.887311,2182.254211,2182.254211,-9188.438784
3085.889875,382.851616,1952.543242,-9207.581365
3085.892438,-95.712904,-2258.824534,-10279.565890
3085.895002,-1110.269686,1799.402595,-9724.431046
3085.897566,-210.568389,2813.959378,-9877.571693
3085.900129,976.271621,593.420005,-10164.710405
3085.902693,1148.554848,784.845813,-9437.292334
3085.905256,57.427742,191.425808,-9628.718142
3085.907820,172.283227,708.275490,-10202.995566
3085.910384,669.990328,1110.269686,-10336.993632
3085.912947,497.707101,823.130974,-9781.858789
3085.915511,-516.849682,1512.263883,-9533.005238
3085.918074,-899.701298,1186.840010,-9992.427178
3085.920638,-1397.408398,2986.242605,-10011.569758
3085.923201,1263.410333,2048.256146,-10183.852986
3085.925765,1473.978722,-1052.841944,-10049.854920
3085.928329,-1129.412267,1895.115499,-9628.718142
3085.930892,-2794.816797,3790.230998,-9609.575562
3085.933456,2316.252277,-2373.680019,-10164.710405
3085.936019,1493.121302,4479.363907,-8997.012976
3085.938583,1205.982590,-2392.822600,-10834.700733
3085.941147,1588.834206,-689.132909,-9724.431046
3085.943710,1339.980656,229.710970,-9705.288466
3085.946273,-612.562586,-803.988394,-10260.423309
3085.948836,-440.279358,3024.527766,-9552.147819
3085.951399,2239.681954,1569.691626,-9858.429112
3085.953962,1933.400661,535.992262,-9724.431046
3085.956526,1110.269686,-114.855485,-9494.720077
3085.959089,899.701298,-1741.974853,-10356.136213
3085.961652,344.566454,2105.683888,-9781.858789
3085.964215,401.994197,555.134843,-10088.140082
3085.966778,842.273555,267.996131,-10088.140082
3085.969341,937.986459,765.703232,-9245.866526
3085.971904,1052.841944,229.710970,-9954.142016
3085.974468,1416.550979,-650.847747,-10566.704602
3085.977031,1971.685822,382.851616,-9724.431046
3085.979594,535.992262,-593.420005,-9934.999435
3085.982157,-76.570323,1703.689691,-9858.429112
3085.984720,1071.984525,38.285162,-9762.716208
3085.987283,3101.098090,-2545.963246,-10164.710405
3085.989846,-1071.984525,2565.105827,-9934.999435
3085.992410,727.418070,-2584.248408,-10738.987829
3085.994973,-133.998066,2584.248408,-9169.296203
3085.997536,-2029.113565,3503.092286,-9418.149754
3086.000099,-459.421939,1531.406464,-10202.995566
3086.002662,497.707101,3732.803256,-9647.860723
3086.005225,1320.838075,-1378.265818,-9934.999435
3086.007789,38.285162,-306.281293,-9858.429112
3086.010352,-1473.978722,2392.822600,-9801.001370
3086.012915,-1320.838075,-267.996131,-10413.563955
3086.015478,1110.269686,2852.244539,-9571.290400
3086.018041,1186.840010,1282.552914,-9858.429112
3086.020604,-191.425808,287.138712,-9686.145885
3086.023167,708.275490,363.709035,-9781.858789
3086.025731,382.851616,995.414202,-10164.710405
3086.028294,937.986459,1588.834206,-9934.999435
3086.030857,-210.568389,1512.263883,-9762.716208
3086.033420,-1129.412267,765.703232,-9667.003304
3086.035983,-1148.554848,1952.543242,-9724.431046
3086.038546,-114.855485,2584.248408,-10202.995566
3086.041109,3311.666478,-1741.974853,-10451.849117
3086.043673,-1071.984525,4517.649069,-8786.444587
3086.046235,-2775.674216,1607.976787,-9973.284597
3086.048798,2220.539373,-2833.101958,-10317.851051
3086.051361,1435.693560,5111.069074,-8748.159426
3086.053923,1416.550979,-2507.678085,-11121.839445
3086.056486,1761.117434,-1531.406464,-10164.710405
3086.059049,1990.828403,-172.283227,-9226.723946
3086.061611,-937.986459,76.570323,-9915.856854
3086.064174,-516.849682,2277.967115,-10088.140082
3086.066737,1512.263883,1205.982590,-9801.001370
3086.069299,1818.545176,918.843878,-9801.001370
3086.071862,1225.125171,-593.420005,-9647.860723
3086.074425,689.132909,-76.570323,-9724.431046
3086.076987,-133.998066,76.570323,-10088.140082
3086.079550,612.562586,1416.550979,-9973.284597
3086.082113,1225.125171,803.988394,-9992.427178
3086.084675,1129.412267,-765.703232,-9762.716208
3086.087238,574.277424,1052.841944,-9360.722011
3086.089801,1780.260014,-76.570323,-10164.710405
3086.092363,1818.545176,-689.132909,-10624.132344
3086.094926,287.138712,1052.841944,-9609.575562
3086.097489,2029.113565,-1416.550979,-10202.995566
3086.100051,1569.691626,1875.972918,-9322.436850
3086.102614,2679.961312,-1416.550979,-10011.569758
3086.105177,-880.558717,2833.101958,-10126.425243
3086.107739,574.277424,-2833.101958,-11064.411702
3086.110302,440.279358,2373.680019,-8863.014910
3086.112865,-2335.394858,4058.227130,-9188.438784
3086.115427,-95.712904,995.414202,-10700.702667
3086.117990,555.134843,4536.791650,-9265.009107
3086.120553,1129.412267,-861.416136,-10145.567824
3086.123115,38.285162,-1378.265818,-10011.569758
3086.125678,-1052.841944,2603.390989,-9533.005238
3086.128241,-1110.269686,-172.283227,-10643.274925
3086.130803,1033.699363,2411.965181,-9628.718142
3086.133366,937.986459,2450.250342,-9341.579430
3086.135929,-114.855485,-306.281293,-9915.856854
3086.138491,555.134843,-325.423874,-9820.143950
3086.141054,76.570323,2373.680019,-9705.288466
3086.143617,19.142581,-76.570323,-10279.565890
3086.146179,-133.998066,1627.119368,-9590.432981
3086.148742,-1167.697429,1971.685822,-9513.862658
3086.151304,-1646.261949,1129.412267,-9877.571693
3086.153867,2067.398726,2220.539373,-10030.712339
3086.156429,1071.984525,1339.980656,-9896.714274
3086.158992,-1531.406464,-287.138712,-10107.282662
3086.161554,-2239.681954,3847.658741,-9265.009107
3086.164117,2220.539373,-2737.389054,-10202.995566
3086.166679,2622.533570,-401.994197,-10164.710405
3086.169242,1014.556782,3369.094221,-9705.288466
3086.171804,2699.103893,-2584.248408,-10068.997501
3086.174367,593.420005,-593.420005,-9647.860723
3086.176929,-535.992262,-1052.841944,-10490.134278
3086.179492,-344.566454,2718.246474,-9724.431046
3086.182054,1493.121302,1952.543242,-9877.571693
3086.184617,2105.683888,631.705166,-9839.286531
3086.187180,1244.267752,267.996131,-9341.579430
3086.189742,76.570323,-76.570323,-10164.710405
3086.192305,114.855485,574.277424,-10126.425243
3086.194867,957.129040,1301.695494,-9820.143950
3086.197430,1014.556782,-555.134843,-10260.423309
3086.199992,842.273555,1091.127106,-9207.581365
3086.202555,1225.125171,0.000000,-9686.145885
3086.205117,1761.117434,-708.275490,-10432.706536
3086.207680,1244.267752,382.851616,-10011.569758
3086.210242,-937.986459,2794.816797,-9418.149754
3086.212805,1971.685822,-1091.127106,-10145.567824
3086.215367,3101.098090,-1818.545176,-9877.571693
3086.217930,-1703.689691,1627.119368,-9992.427178
3086.220492,1875.972918,-2009.970984,-10949.556218
3086.223055,-95.712904,5589.633594,-8652.446522
3086.225617,-574.277424,-535.992262,-9896.714274
3086.228180,-1990.828403,3503.092286,-9934.999435
3086.230742,516.849682,1301.695494,-10394.421374
3086.233305,1933.400661,114.855485,-9896.714274
3086.235867,478.564520,1818.545176,-9571.290400
3086.238430,-1359.123237,267.996131,-9858.429112
3086.240993,-976.271621,535.992262,-10049.854920
3086.243555,114.855485,3043.670347,-10030.712339
3086.246118,823.130974,516.849682,-9858.429112
3086.248680,689.132909,1148.554848,-9399.007173
3086.251220,191.425808,535.992262,-9973.284597
3086.253759,-382.851616,1780.260014,-9647.860723
3086.256299,401.994197,689.132909,-10375.278794
3086.258839,229.710970,1359.123237,-9801.001370
3086.261379,-1282.552914,1607.976787,-9284.151688
3086.263918,-1186.840010,1225.125171,-10107.282662
3086.266458,1205.982590,2737.389054,-9781.858789
3086.268998,1033.699363,344.566454,-9724.431046
3086.271537,-650.847747,344.566454,-10279.565890
3086.274077,-2565.105827,4211.367776,-9418.149754
3086.276617,2316.252277,-2277.967115,-9954.142016
3086.279157,1148.554848,3713.660675,-9207.581365
3086.281696,1435.693560,-1359.123237,-10719.845248
3086.284236,2392.822600,-2833.101958,-10260.423309
3086.286776,1263.410333,-1091.127106,-9954.142016
3086.289315,-478.564520,-421.136778,-10030.712339
3086.291855,-1014.556782,2584.248408,-9781.858789
3086.294395,1914.258080,1148.554848,-10145.567824
3086.296935,2009.970984,1799.402595,-9513.862658
3086.299474,918.843878,38.285162,-9628.718142
3086.302014,555.134843,-2086.541307,-10202.995566
3086.304554,669.990328,1799.402595,-9705.288466
3086.307093,287.138712,1378.265818,-10183.852986
3086.309633,1531.406464,-287.138712,-10222.138147
3086.312173,478.564520,1282.552914,-9092.725880
3086.314713,1263.410333,-803.988394,-9896.714274
3086.317252,1837.687757,-401.994197,-10356.136213
3086.319792,650.847747,899.701298,-9743.573627
3086.322332,-76.570323,1397.408398,-9705.288466
3086.324871,1799.402595,-842.273555,-10011.569758
3086.327411,3005.385186,-2086.541307,-10107.282662
3086.329951,-1607.976787,1856.830338,-10126.425243
3086.332491,1091.127106,-2679.961312,-11160.124606
3086.335030,-210.568389,3981.656806,-8575.876198
3086.337570,-1416.550979,2450.250342,-9437.292334
3086.340110,-861.416136,2545.963246,-10241.280728
3086.342649,191.425808,2986.242605,-9571.290400
3086.345189,2048.256146,-2277.967115,-10451.849117
3086.347729,287.138712,2258.824534,-9552.147819
3086.350268,-880.558717,-19.142581,-9839.286531
3086.352812,-1205.982590,-497.707101,-10796.415571
3086.355355,631.705166,2813.959378,-9667.003304
3086.357898,1301.695494,2277.967115,-9475.577496
3086.360441,57.427742,-746.560651,-10049.854920
3086.362984,382.851616,1186.840010,-9360.722011
3086.365527,-76.570323,1990.828403,-9743.573627
3086.368070,248.853550,-631.705166,-10872.985894
3086.370613,-248.853550,2813.959378,-9226.723946
3086.373156,-1071.984525,1397.408398,-9533.005238
3086.375699,-765.703232,669.990328,-10298.708470
3086.378242,2794.816797,669.990328,-9877.571693
3086.380785,-1225.125171,4919.643266,-9111.868461
3086.383328,-1550.549045,-995.414202,-10892.128475
3086.385871,535.992262,1952.543242,-9475.577496
3086.388415,95.712904,918.843878,-9494.720077
3086.390958,2852.244539,-3656.232933,-11217.552349
3086.393501,1071.984525,4039.084549,-9207.581365
3086.396044,2833.101958,-2105.683888,-9896.714274
3086.398587,19.142581,421.136778,-9590.432981
3086.401130,-593.420005,880.558717,-10145.567824
3086.403673,612.562586,287.138712,-10547.562021
3086.406216,1684.547110,1780.260014,-9954.142016
3086.408759,1895.115499,248.853550,-9609.575562
3086.411302,1033.699363,1014.556782,-9379.864592
3086.413845,-38.285162,-1512.263883,-10394.421374
3086.416388,497.707101,1339.980656,-9839.286531
3086.418931,976.271621,1339.980656,-10183.852986
3086.421474,306.281293,248.853550,-9552.147819
3086.424017,1703.689691,-344.566454,-9303.294269
3086.426561,1780.260014,19.142581,-10260.423309
3086.429104,1014.556782,-880.558717,-10451.849117
3086.431647,-497.707101,3196.810994,-9169.296203
3086.434190,1378.265818,-267.996131,-9973.284597
3086.436733,3369.094221,-2316.252277,-9915.856854
3086.439276,-1148.554848,1952.543242,-9686.145885
3086.441819,1205.982590,-2048.256146,-11026.126541
3086.444362,-440.279358,5034.498750,-8748.159426
3086.446905,-153.140646,153.140646,-9705.288466
3086.449448,-2411.965181,3349.951640,-10049.854920
3086.451991,306.281293,1244.267752,-10145.567824
3086.454537,2373.680019,669.990328,-9705.288466
3086.457084,0.000000,1359.123237,-9571.290400
3086.459630,-995.414202,76.570323,-9781.858789
3086.462176,-727.418070,1282.552914,-10126.425243
3086.464722,267.996131,3062.812928,-9820.143950
3086.467269,535.992262,899.701298,-9839.286531
3086.469815,1167.697429,957.129040,-9896.714274
3086.472361,555.134843,-114.855485,-9973.284597
3086.474907,-1052.841944,2009.970984,-9379.864592
3086.477454,1014.556782,689.132909,-10413.563955
3086.480000,-172.283227,1473.978722,-9915.856854
3086.482546,-957.129040,2450.250342,-9284.151688
3086.485092,-1091.127106,1225.125171,-10107.282662
3086.487638,3177.668413,-880.558717,-10241.280728
3086.490185,-1033.699363,5608.776174,-8748.159426
3086.492731,-2258.824534,-19.142581,-10872.985894
3086.495277,1205.982590,689.132909,-9896.714274
3086.497823,-19.142581,2488.535504,-8805.587168
3086.500370,2603.390989,-4268.795518,-11313.265253
3086.502916,1990.828403,363.709035,-10011.569758
3086.505462,2947.957443,-267.996131,-9418.149754
3086.508008,-1397.408398,-153.140646,-9667.003304
3086.510555,-210.568389,727.418070,-10088.140082
3086.513101,937.986459,1627.119368,-10049.854920
3086.515647,1167.697429,1052.841944,-9992.427178
3086.518193,2507.678085,172.283227,-9705.288466
3086.520739,957.129040,1033.699363,-9437.292334
3086.523286,133.998066,-1952.543242,-10509.276859
3086.525832,727.418070,1205.982590,-9781.858789
3086.528378,918.843878,1071.984525,-9992.427178
3086.530924,1071.984525,-689.132909,-9934.999435
3086.533471,1435.693560,1014.556782,-9322.436850
3086.536017,1818.545176,-344.566454,-9973.284597
3086.538563,-114.855485,-1110.269686,-10356.136213
3086.541109,765.703232,2124.826469,-9647.860723
3086.543656,1665.404530,708.275490,-9552.147819
3086.546202,3235.096155,-3369.094221,-10279.565890
3086.548748,-1818.545176,2220.539373,-9609.575562
3086.551294,287.138712,-3081.955509,-11006.983960
3086.553841,555.134843,1761.117434,-9533.005238
3086.556389,-2048.256146,4173.082614,-9150.153622
3086.558938,-784.845813,1990.828403,-10011.569758
3086.561487,631.705166,3196.810994,-9628.718142
3086.564035,2048.256146,-1799.402595,-10375.278794
3086.566584,363.709035,1129.412267,-9724.431046
3086.569133,-669.990328,19.142581,-10088.140082
3086.571681,-650.847747,1473.978722,-9973.284597
3086.574230,478.564520,2967.100024,-9533.005238
3086.576779,803.988394,861.416136,-10011.569758
3086.579327,650.847747,803.988394,-9705.288466
3086.581876,306.281293,516.849682,-9820.143950
3086.584425,-478.564520,1014.556782,-10088.140082
3086.586974,976.271621,1512.263883,-9839.286531
3086.589522,-976.271621,1607.976787,-10107.282662
3086.592071,-1454.836141,1339.980656,-9801.001370
3086.594620,861.416136,2373.680019,-9628.718142
3086.597168,-650.847747,2067.398726,-9877.571693
3086.599717,-593.420005,-210.568389,-10145.567824
3086.602266,-2029.113565,4211.367776,-9437.292334
3086.604814,1493.121302,-2967.100024,-10547.562021
3086.607363,1990.828403,2967.100024,-8901.300072
3086.609912,1378.265818,746.560651,-10107.282662
3086.612460,2239.681954,-3541.377448,-10719.845248
3086.615009,1856.830338,-306.281293,-9418.149754
3086.617558,-306.281293,133.998066,-9973.284597
3086.620107,-555.134843,1703.689691,-10030.712339
3086.622655,1607.976787,2297.109696,-9552.147819
3086.625204,2067.398726,689.132909,-9724.431046
3086.627753,1627.119368,-248.853550,-9762.716208
3086.630301,-382.851616,248.853550,-9820.143950
3086.632850,19.142581,-267.996131,-10145.567824
3086.635399,1588.834206,1320.838075,-10068.997501
3086.637947,267.996131,1014.556782,-9839.286531
3086.640496,1359.123237,-95.712904,-9628.718142
3086.643045,2143.969050,-191.425808,-9781.858789
3086.645593,669.990328,-38.285162,-10030.712339
3086.648142,-516.849682,1722.832272,-9762.716208
3086.650691,2182.254211,-593.420005,-10068.997501
3086.653240,3464.807125,-1971.685822,-9973.284597
3086.655788,-1052.841944,937.986459,-9686.145885
3086.658339,1282.552914,-765.703232,-10566.704602
3086.660890,-325.423874,4555.934230,-9016.155557
3086.663441,-497.707101,-1071.984525,-10260.423309
3086.665992,-2737.389054,3407.379382,-10088.140082
3086.668543,727.418070,2086.541307,-9686.145885
3086.671094,1627.119368,-1263.410333,-10183.852986
3086.673644,57.427742,1933.400661,-9705.288466
3086.676195,-880.558717,-363.709035,-9992.427178
3086.678746,-1244.267752,1301.695494,-9743.573627
3086.681297,-210.568389,1550.549045,-10107.282662
3086.683848,1186.840010,1473.978722,-9839.286531
3086.686399,459.421939,765.703232,-9743.573627
3086.688950,-38.285162,363.709035,-9992.427178
3086.691501,-650.847747,1301.695494,-9628.718142
3086.694052,210.568389,1071.984525,-10241.280728
3086.696602,-899.701298,1359.123237,-9896.714274
3086.699153,-746.560651,2297.109696,-9207.581365
3086.701704,1014.556782,1282.552914,-10164.710405
3086.704255,612.562586,210.568389,-10088.140082
3086.706806,-1014.556782,1818.545176,-9667.003304
3086.709357,-2105.683888,3483.949706,-9896.714274
3086.711908,2641.676150,-1837.687757,-10107.282662
3086.714459,2641.676150,1607.976787,-9341.579430
3086.717009,1014.556782,1780.260014,-10183.852986
3086.719560,1818.545176,-3101.098090,-10260.423309
3086.722111,1761.117434,-1205.982590,-9801.001370
3086.724662,-133.998066,-555.134843,-10298.708470
3086.727213,-1129.412267,2354.537438,-9762.716208
3086.729764,2048.256146,1741.974853,-9820.143950
3086.732315,2029.113565,1435.693560,-9915.856854
3086.734866,344.566454,363.709035,-9705.288466
3086.737417,-344.566454,-1741.974853,-10451.849117
3086.739967,823.130974,574.277424,-9858.429112
3086.742518,880.558717,1684.547110,-10011.569758
3086.745069,363.709035,-325.423874,-10394.421374
3086.747620,1933.400661,823.130974,-9341.579430
3086.750171,1799.402595,-57.427742,-9647.860723
3086.752722,191.425808,-1550.549045,-10585.847182
3086.755273,631.705166,2603.390989,-9590.432981
3086.757824,1607.976787,497.707101,-9609.575562
3086.760377,2852.244539,-3235.096155,-10432.706536
3086.762930,-1665.404530,2718.246474,-9399.007173
3086.765483,1359.123237,-2737.389054,-11045.269122
3086.768036,-153.140646,2967.100024,-9399.007173
3086.770589,-1454.836141,3349.951640,-9169.296203
3086.773143,-1091.127106,3139.383251,-9781.858789
3086.775696,401.994197,2545.963246,-9877.571693
3086.778249,1799.402595,-1971.685822,-10202.995566
3086.780802,612.562586,2354.537438,-9265.009107
3086.783355,-1129.412267,765.703232,-9992.427178
3086.785908,-1205.982590,38.285162,-10241.280728
3086.788462,861.416136,2392.822600,-9667.003304
3086.791015,1339.980656,1607.976787,-9705.288466
3086.793568,-306.281293,459.421939,-9896.714274
3086.796121,-267.996131,784.845813,-9820.143950
3086.798674,401.994197,765.703232,-9934.999435
3086.801227,-555.134843,1933.400661,-9915.856854
3086.803781,-478.564520,1665.404530,-9934.999435
3086.806334,-363.709035,1339.980656,-9686.145885
3086.808887,2641.676150,-823.130974,-10183.852986
3086.811440,-1665.404530,4728.217458,-9207.581365
3086.813993,-1990.828403,842.273555,-10298.708470
3086.816546,1320.838075,1014.556782,-9934.999435
3086.819100,382.851616,1569.691626,-9513.862658
3086.821653,2354.537438,-3464.807125,-10624.132344
3086.824206,1397.408398,3081.955509,-9475.577496
3086.826759,2775.674216,-1895.115499,-10260.423309
3086.829312,-210.568389,593.420005,-9322.436850
3086.831865,210.568389,631.705166,-10260.423309
3086.834419,574.277424,861.416136,-10413.563955
3086.836972,1091.127106,1339.980656,-9686.145885
3086.839525,2335.394858,153.140646,-9877.571693
3086.842078,1129.412267,918.843878,-9533.005238
3086.844631,-133.998066,325.423874,-9762.716208
3086.847184,842.273555,593.420005,-10279.565890
3086.849738,1588.834206,631.705166,-10088.140082
3086.852291,1378.265818,-191.425808,-9743.573627
3086.854844,2009.970984,306.281293,-9475.577496
3086.857397,918.843878,-382.851616,-9973.284597
3086.859950,-650.847747,1684.547110,-9954.142016
3086.862481,1741.974853,-1225.125171,-10011.569758
3086.865015,3330.809059,-3215.953574,-10317.851051
3086.867548,-1493.121302,1684.547110,-9590.432981
3086.870082,1607.976787,-1359.123237,-10509.276859
3086.872616,-267.996131,4632.504554,-9111.868461
3086.875149,-459.421939,784.845813,-9781.858789
3086.877683,-2488.535504,3905.086483,-9820.143950
3086.880217,229.710970,823.130974,-10202.995566
3086.882751,2182.254211,650.847747,-9456.434915
3086.885284,593.420005,1512.263883,-9552.147819
3086.887818,-784.845813,-287.138712,-10202.995566
3086.890352,-1110.269686,1454.836141,-9954.142016
3086.892885,191.425808,2833.101958,-9801.001370
3086.895419,1033.699363,363.709035,-9858.429112
3086.897953,669.990328,1569.691626,-9571.290400
3086.900487,38.285162,114.855485,-10202.995566
3086.903020,-516.849682,880.558717,-9781.858789
3086.905554,267.996131,1837.687757,-10030.712339
3086.908088,-957.129040,1014.556782,-10279.565890
3086.910621,-306.281293,1780.260014,-9590.432981
3086.913155,2297.109696,-880.558717,-10183.852986
3086.915689,-1454.836141,4173.082614,-9379.864592
3086.918222,-2220.539373,1665.404530,-10164.710405
3086.920756,1722.832272,803.988394,-10030.712339
3086.923290,57.427742,2124.826469,-9360.722011
3086.925824,2431.107762,-4326.223261,-10738.987829
3086.928357,1703.689691,2871.387120,-9533.005238
3086.930891,2699.103893,-1665.404530,-10183.852986
3086.933425,-248.853550,631.705166,-9379.864592
3086.935958,0.000000,918.843878,-10222.138147
3086.938492,1186.840010,803.988394,-10183.852986
3086.941026,1110.269686,1856.830338,-9513.862658
3086.943559,1952.543242,248.853550,-9762.716208
3086.946093,478.564520,95.712904,-9781.858789
3086.948627,516.849682,-689.132909,-10241.280728
3086.951161,-153.140646,1205.982590,-9820.143950
3086.953694,1588.834206,172.283227,-10183.852986
3086.956228,1359.123237,1091.127106,-9781.858789
3086.958762,1761.117434,57.427742,-9686.145885
3086.961295,-153.140646,-1263.410333,-10202.995566
3086.963834,1359.123237,612.562586,-10049.854920
3086.966372,1110.269686,1569.691626,-9513.862658
3086.968910,3464.807125,-3215.953574,-10336.993632
3086.971449,-1550.549045,1875.972918,-9590.432981
3086.973987,1435.693560,-2545.963246,-10719.845248
3086.976525,-95.712904,4977.071008,-8997.012976
3086.979064,-401.994197,1263.410333,-9820.143950
3086.981602,-995.414202,2297.109696,-10260.423309
3086.984140,555.134843,3464.807125,-9379.864592
3086.986679,1971.685822,-1837.687757,-10202.995566
3086.989217,229.710970,669.990328,-9915.856854
3086.991755,-823.130974,574.277424,-10145.567824
3086.994293,-1148.554848,1225.125171,-10049.854920
3086.996832,-459.421939,3081.955509,-9705.288466
3086.999370,1244.267752,-19.142581,-10183.852986
3087.001908,823.130974,976.271621,-9456.434915
3087.004447,-210.568389,1167.697429,-9877.571693
3087.006985,-555.134843,689.132909,-10279.565890
3087.009523,-363.709035,2641.676150,-9609.575562
3087.012062,-918.843878,1703.689691,-9839.286531
3087.014600,344.566454,1359.123237,-9647.860723
3087.017138,1378.265818,-363.709035,-9992.427178
3087.019677,-1205.982590,1952.543242,-10126.425243
3087.022215,-2756.531635,4364.508422,-9609.575562
3087.024753,2737.389054,-1320.838075,-10030.712339
3087.027292,2431.107762,2775.674216,-9150.153622
3087.029830,995.414202,382.851616,-9954.142016
3087.032368,2163.111630,-3579.662610,-10700.702667
3087.034906,2048.256146,-1186.840010,-9992.427178
3087.037445,-995.414202,1071.984525,-9513.862658
3087.039983,-861.416136,1320.838075,-10030.712339
3087.042521,2201.396792,1397.408398,-9915.856854
3087.045060,1282.552914,1818.545176,-9456.434915
3087.047598,1225.125171,-19.142581,-9954.142016
3087.050136,191.425808,-363.709035,-9877.571693
3087.052675,133.998066,1320.838075,-9533.005238
3087.055213,1684.547110,574.277424,-10509.276859
3087.057751,937.986459,-114.855485,-10049.854920
3087.060290,1722.832272,287.138712,-9418.149754
3087.062828,1569.691626,-344.566454,-10011.569758
3087.065371,-1091.127106,1148.554848,-9973.284597
3087.067913,1952.543242,-2622.533570,-10375.278794
3087.070456,2718.246474,650.847747,-9533.005238
3087.072999,57.427742,325.423874,-9858.429112
3087.075541,593.420005,1052.841944,-9571.290400
3087.078084,-267.996131,3541.377448,-9437.292334
3087.080627,0.000000,-1895.115499,-10432.706536
3087.083169,-3847.658741,4862.215523,-9590.432981
3087.085712,823.130974,38.285162,-10719.845248
3087.088255,1799.402595,3139.383251,-9169.296203
3087.090797,1339.980656,937.986459,-9360.722011
3087.093340,-287.138712,-1071.984525,-10317.851051
3087.095883,-1493.121302,1837.687757,-9475.577496
3087.098425,-459.421939,555.134843,-10260.423309
3087.100968,1320.838075,1780.260014,-9801.001370
3087.103511,382.851616,1244.267752,-9475.577496
3087.106053,-1110.269686,95.712904,-9896.714274
3087.108596,631.705166,1550.549045,-10049.854920
3087.111139,-1129.412267,2009.970984,-10030.712339
3087.113681,-497.707101,1263.410333,-9915.856854
3087.116224,76.570323,2833.101958,-9571.290400
3087.118767,2067.398726,-1263.410333,-10088.140082
3087.121309,-937.986459,2105.683888,-9896.714274
3087.123852,-2947.957443,4173.082614,-9705.288466
3087.126395,2928.814862,-1359.123237,-10126.425243
3087.128937,880.558717,4211.367776,-8805.587168
3087.131480,1780.260014,-3732.803256,-10853.843314
3087.134023,1837.687757,-612.562586,-9934.999435
3087.136565,2986.242605,-95.712904,-9781.858789
3087.139108,-1129.412267,-153.140646,-9839.286531
3087.141651,-210.568389,1359.123237,-9839.286531
3087.144193,1761.117434,1493.121302,-9954.142016
3087.146736,2124.826469,995.414202,-9475.577496
3087.149279,708.275490,497.707101,-9839.286531
3087.151821,1110.269686,-1512.263883,-10509.276859
3087.154364,516.849682,1148.554848,-9552.147819
3087.156907,1129.412267,1014.556782,-9896.714274
3087.159449,1091.127106,-669.990328,-10413.563955
3087.161992,1933.400661,267.996131,-9533.005238
3087.164535,1225.125171,-401.994197,-9743.573627
3087.167081,-497.707101,1703.689691,-10068.997501
3087.169627,1607.976787,-1665.404530,-10279.565890
3087.172173,3196.810994,-1091.127106,-9743.573627
3087.174719,593.420005,57.427742,-10088.140082
3087.177265,-133.998066,1033.699363,-9877.571693
3087.179811,57.427742,3043.670347,-9111.868461
3087.182357,191.425808,-1971.685822,-10585.847182
3087.184903,-4134.797453,4192.225195,-9801.001370
3087.187449,1014.556782,1167.697429,-10164.710405
3087.189995,2067.398726,1244.267752,-9513.862658
3087.192541,344.566454,1244.267752,-9379.864592
3087.195087,-38.285162,-861.416136,-10145.567824
3087.197633,-1550.549045,2048.256146,-9839.286531
3087.200179,-325.423874,1033.699363,-10164.710405
3087.202725,1071.984525,2182.254211,-9667.003304
3087.205271,689.132909,784.845813,-9915.856854
3087.207818,-38.285162,516.849682,-9724.431046
3087.210364,-478.564520,1531.406464,-9781.858789
3087.212910,-459.421939,1033.699363,-10183.852986
3087.215456,-823.130974,2029.113565,-9877.571693
3087.218002,1569.691626,2431.107762,-9475.577496
3087.220548,287.138712,-689.132909,-10068.997501
3087.223094,-1282.552914,1416.550979,-9781.858789
3087.225640,-2469.392923,4613.361973,-9628.718142
3087.228186,2603.390989,-2143.969050,-10279.565890
3087.230732,1416.550979,4670.789715,-8575.876198
3087.233278,1914.258080,-2852.244539,-10872.985894
3087.235824,1761.117434,-3981.656806,-10643.274925
3087.238370,1952.543242,-1091.127106,-9705.288466
3087.240916,-669.990328,708.275490,-10126.425243
3087.243462,-1263.410333,1359.123237,-10088.140082
3087.246008,2182.254211,2297.109696,-9437.292334
3087.248554,1875.972918,1550.549045,-9839.286531
3087.251100,38.285162,-57.427742,-9858.429112
3087.253646,880.558717,-1167.697429,-10413.563955
3087.256193,76.570323,918.843878,-9801.001370
3087.258739,1301.695494,746.560651,-10011.569758
3087.261285,1627.119368,555.134843,-10068.997501
3087.263831,1665.404530,574.277424,-9571.290400
3087.266377,-325.423874,-861.416136,-9858.429112
3087.268926,1684.547110,133.998066,-10183.852986
3087.271475,1588.834206,2603.390989,-8939.585234
3087.274024,2641.676150,-1722.832272,-10011.569758
3087.276573,-880.558717,2354.537438,-9858.429112
3087.279123,823.130974,-2431.107762,-10624.132344
3087.281672,229.710970,2105.683888,-9226.723946
3087.284221,-1818.545176,3790.230998,-9647.860723
3087.286770,-1378.265818,3196.810994,-10049.854920
3087.289319,669.990328,2890.529701,-9437.292334
3087.291868,1933.400661,-1378.265818,-10183.852986
3087.294417,555.134843,-574.277424,-9915.856854
3087.296967,-1148.554848,1244.267752,-10030.712339
3087.299516,-1550.549045,459.421939,-10432.706536
3087.302065,1339.980656,1263.410333,-9762.716208
3087.304614,669.990328,2526.820666,-9322.436850
3087.307163,95.712904,-440.279358,-10049.854920
3087.309712,-133.998066,1512.263883,-9552.147819
3087.312262,-401.994197,1167.697429,-10030.712339
3087.314811,-765.703232,1531.406464,-10183.852986
3087.317360,-669.990328,2373.680019,-9705.288466
3087.319909,1722.832272,-880.558717,-10030.712339
3087.322458,-1033.699363,2641.676150,-9724.431046
3087.325007,-2852.244539,3522.234867,-9934.999435
3087.327556,2450.250342,-612.562586,-10241.280728
3087.330106,325.423874,4383.651003,-8863.014910
3087.332655,2909.672282,-4996.213589,-10930.413637
3087.335204,1818.545176,803.988394,-9667.003304
3087.337753,2775.674216,-574.277424,-9781.858789
3087.340302,-880.558717,-1339.980656,-9877.571693
3087.342851,-325.423874,1856.830338,-9934.999435
3087.345400,1033.699363,689.132909,-10049.854920
3087.347950,1799.402595,842.273555,-9705.288466
3087.350499,1837.687757,-325.423874,-10107.282662
3087.353048,555.134843,497.707101,-9743.573627
3087.355597,-57.427742,669.990328,-10049.854920
3087.358146,1129.412267,1148.554848,-10260.423309
3087.360695,976.271621,-267.996131,-10049.854920
3087.363245,1952.543242,-248.853550,-9686.145885
3087.365794,-114.855485,172.283227,-9877.571693
3087.368343,1550.549045,-344.566454,-10183.852986
3087.370895,1473.978722,1339.980656,-9667.003304
3087.373447,2718.246474,-2392.822600,-10030.712339
3087.375999,-1473.978722,593.420005,-9877.571693
3087.378552,2029.113565,-1780.260014,-10834.700733
3087.381104,-287.138712,4977.071008,-8786.444587
3087.383656,-803.988394,976.271621,-9609.575562
3087.386208,-2507.678085,4479.363907,-10107.282662
3087.388760,76.570323,1071.984525,-9456.434915
3087.391313,2124.826469,-1607.976787,-10183.852986
3087.393865,1014.556782,1397.408398,-9571.290400
3087.396417,-1052.841944,-918.843878,-10241.280728
3087.398969,-803.988394,765.703232,-10068.997501
3087.401521,-210.568389,3713.660675,-9571.290400
3087.404074,1225.125171,267.996131,-9877.571693
3087.406626,727.418070,535.992262,-9609.575562
3087.409178,-918.843878,2316.252277,-9571.290400
3087.411730,-803.988394,76.570323,-10547.562021
3087.414282,-995.414202,2048.256146,-9877.571693
3087.416834,-133.998066,2699.103893,-9360.722011
3087.419387,2105.683888,-2163.111630,-10432.706536
3087.421939,-803.988394,4211.367776,-9513.862658
3087.424491,-3062.812928,3273.381317,-9762.716208
3087.427043,2009.970984,-191.425808,-10183.852986
3087.429595,650.847747,4077.369710,-9207.581365
3087.432148,2584.248408,-4957.928427,-10796.415571
3087.434700,2029.113565,-2679.961312,-10490.134278
3087.437252,2373.680019,-497.707101,-9915.856854
3087.439804,-1167.697429,267.996131,-9628.718142
3087.442356,-95.712904,1416.550979,-10241.280728
3087.444909,1091.127106,899.701298,-10241.280728
3087.447461,1435.693560,937.986459,-9341.579430
3087.450013,1627.119368,995.414202,-9915.856854
3087.452567,631.705166,-650.847747,-10183.852986
3087.455122,95.712904,593.420005,-9647.860723
3087.457676,1531.406464,516.849682,-10413.563955
3087.460231,880.558717,1110.269686,-9667.003304
3087.462785,1990.828403,-478.564520,-9667.003304
3087.465340,-669.990328,478.564520,-9954.142016
3087.467894,2258.824534,-1761.117434,-10413.563955
3087.470449,1741.974853,2201.396792,-9226.723946
3087.473003,2565.105827,-2565.105827,-10336.993632
3087.475558,-1244.267752,1607.976787,-9743.573627
3087.478112,1665.404530,-2009.970984,-10700.702667
3087.480667,-248.853550,3311.666478,-9131.011042
3087.483221,-3292.523898,4747.360038,-9379.864592
3087.485775,-306.281293,2794.816797,-10183.852986
3087.488330,593.420005,3349.951640,-9418.149754
3087.490884,1990.828403,-976.271621,-9820.143950
3087.493439,899.701298,363.709035,-9954.142016
3087.495993,-880.558717,-689.132909,-10356.136213
3087.498548,-708.275490,784.845813,-10088.140082
3087.501102,95.712904,3713.660675,-9571.290400
3087.503657,1339.980656,-267.996131,-10145.567824
3087.506211,-76.570323,861.416136,-9456.434915
3087.508766,-535.992262,1550.549045,-9781.858789
3087.511320,-1263.410333,631.705166,-10451.849117
3087.513875,-765.703232,2584.248408,-9686.145885
3087.516429,2067.398726,2067.398726,-9705.288466
3087.518984,-95.712904,555.134843,-9858.429112
3087.521538,-1473.978722,669.990328,-10107.282662
3087.524092,-2794.816797,4364.508422,-9647.860723
3087.526647,2526.820666,-2354.537438,-10585.847182
3087.529201,3522.234867,708.275490,-9437.292334
3087.531756,1110.269686,2488.535504,-9399.007173
3087.534310,1473.978722,-3885.943902,-10375.278794
3087.536865,1875.972918,-1875.972918,-9992.427178
3087.539419,-650.847747,918.843878,-10145.567824
3087.541974,-976.271621,1665.404530,-10107.282662
3087.544528,1914.258080,2048.256146,-9399.007173
3087.547083,2201.396792,650.847747,-9647.860723
3087.549637,899.701298,191.425808,-10088.140082
3087.552192,-57.427742,401.994197,-9896.714274
3087.554748,1033.699363,325.423874,-10088.140082
3087.557305,803.988394,133.998066,-9992.427178
3087.559861,1856.830338,-19.142581,-9915.856854
3087.562418,1071.984525,-516.849682,-9934.999435
3087.564975,191.425808,2220.539373,-9437.292334
3087.567531,1473.978722,-2067.398726,-10317.851051
3087.570088,2947.957443,-1952.543242,-10202.995566
3087.572645,497.707101,440.279358,-9781.858789
3087.575201,1761.117434,-1531.406464,-10643.274925
3087.577758,-19.142581,4479.363907,-8997.012976
3087.580315,-650.847747,727.418070,-9686.145885
3087.582871,-3177.668413,4326.223261,-10030.712339
3087.585428,363.709035,555.134843,-10566.704602
3087.587985,2124.826469,1148.554848,-9207.581365
3087.590541,899.701298,1033.699363,-9399.007173
3087.593098,0.000000,-1244.267752,-10547.562021
3087.595655,-1607.976787,2737.389054,-9609.575562
3087.598211,-248.853550,1071.984525,-9934.999435
3087.600768,1761.117434,669.990328,-10088.140082
3087.603325,-421.136778,1473.978722,-9609.575562
3087.605881,-593.420005,823.130974,-9781.858789
3087.608438,-803.988394,1225.125171,-10164.710405
3087.610995,-995.414202,2086.541307,-10088.140082
3087.613551,0.000000,1990.828403,-10068.997501
3087.616108,1990.828403,-306.281293,-9934.999435
3087.618665,-880.558717,2756.531635,-9494.720077
3087.621221,-3158.525832,3924.229064,-9437.292334
3087.623778,2277.967115,-2009.970984,-10509.276859
3087.626335,2507.678085,4670.789715,-8786.444587
3087.628891,1856.830338,-1933.400661,-10413.563955
3087.631448,1914.258080,-3120.240670,-10336.993632
3087.634004,2450.250342,-555.134843,-9667.003304
3087.636561,-1493.121302,535.992262,-9858.429112
3087.639118,-267.996131,1588.834206,-10298.708470
3087.641674,1607.976787,1359.123237,-9858.429112
3087.644231,2067.398726,765.703232,-9226.723946
3087.646788,172.283227,421.136778,-9858.429112
3087.649344,1071.984525,-880.558717,-10375.278794
3087.651901,574.277424,995.414202,-9705.288466
3087.654458,689.132909,248.853550,-10030.712339
3087.657016,1512.263883,-19.142581,-9934.999435
3087.659574,1741.974853,459.421939,-9475.577496
3087.662132,-153.140646,1627.119368,-9590.432981
3087.664690,1856.830338,-2411.965181,-10394.421374
3087.667248,2947.957443,-2699.103893,-10241.280728
3087.669806,-746.560651,440.279358,-9896.714274
3087.672364,1129.412267,-478.564520,-10260.423309
3087.674922,708.275490,3560.520029,-9226.723946
3087.677480,-478.564520,172.283227,-9934.999435
3087.680039,-2411.965181,4153.940034,-10049.854920
3087.682597,114.855485,1071.984525,-10490.134278
3087.685155,2584.248408,95.712904,-9552.147819
3087.687713,210.568389,1110.269686,-9418.149754
3087.690271,-95.712904,-1454.836141,-10777.272990
3087.692829,-1588.834206,2641.676150,-9820.143950
3087.695387,325.423874,1225.125171,-9992.427178
3087.697945,899.701298,2163.111630,-9820.143950
3087.700503,899.701298,210.568389,-9781.858789
3087.703061,-708.275490,1071.984525,-9628.718142
3087.705619,-1263.410333,2105.683888,-10107.282662
3087.708177,-899.701298,1205.982590,-10241.280728
3087.710736,2220.539373,2258.824534,-9609.575562
3087.713294,-574.277424,2890.529701,-9360.722011
3087.715852,-1110.269686,-861.416136,-10470.991698
3087.718410,-2890.529701,4766.502619,-9552.147819
3087.720968,1818.545176,-2584.248408,-10662.417506
3087.723526,2928.814862,3522.234867,-8901.300072
3087.726084,1627.119368,3349.951640,-9111.868461
3087.728642,1703.689691,-3426.521963,-10260.423309
3087.731200,1684.547110,-1952.543242,-10068.997501
3087.733758,-363.709035,1148.554848,-10260.423309
3087.736316,-765.703232,1895.115499,-10164.710405
3087.738874,1588.834206,2009.970984,-9131.011042
3087.741433,2488.535504,650.847747,-9360.722011
3087.743991,267.996131,-287.138712,-10088.140082
3087.746549,363.709035,95.712904,-10183.852986
3087.749107,555.134843,1301.695494,-9896.714274
3087.751665,784.845813,325.423874,-9647.860723
3087.754223,1741.974853,-306.281293,-9609.575562
3087.756781,95.712904,976.271621,-9762.716208
3087.759341,2584.248408,-2086.541307,-10547.562021
3087.761900,1339.980656,1512.263883,-9360.722011
3087.764460,2182.254211,-1780.260014,-10107.282662
3087.767019,-1359.123237,1033.699363,-9858.429112
3087.769579,1799.402595,-2048.256146,-10643.274925
3087.772139,248.853550,3426.521963,-9245.866526
3087.774698,-3177.668413,4058.227130,-9437.292334
3087.777258,-1071.984525,3349.951640,-10068.997501
3087.779818,593.420005,2928.814862,-9628.718142
3087.782377,2124.826469,-1014.556782,-9820.143950
3087.784937,823.130974,574.277424,-9781.858789
3087.787496,-248.853550,-689.132909,-10662.417506
3087.790056,-2201.396792,1148.554848,-9934.999435
3087.792616,669.990328,2201.396792,-9590.432981
3087.795175,1627.119368,248.853550,-10088.140082
3087.797735,-593.420005,1416.550979,-9494.720077
3087.800294,-593.420005,593.420005,-10068.997501
3087.802854,-1550.549045,2143.969050,-10030.712339
3087.805414,-440.279358,1837.687757,-9801.001370
3087.807973,2603.390989,-995.414202,-10107.282662
3087.810533,-861.416136,4651.647134,-9207.581365
3087.813093,-2737.389054,1818.545176,-10030.712339
3087.815652,784.845813,1225.125171,-10030.712339
3087.818212,76.570323,2124.826469,-9590.432981
3087.820771,3158.525832,-4575.076811,-10892.128475
3087.823331,2239.681954,-1205.982590,-10088.140082
3087.825891,2411.965181,-76.570323,-9552.147819
3087.828450,-918.843878,-555.134843,-9877.571693
3087.831010,287.138712,1837.687757,-10202.995566
3087.833569,229.710970,555.134843,-10260.423309
3087.836129,1397.408398,1435.693560,-9111.868461
3087.838689,2526.820666,-133.998066,-9915.856854
3087.841248,440.279358,382.851616,-10145.567824
3087.843808,-153.140646,1263.410333,-9858.429112
3087.846368,1512.263883,-497.707101,-10413.563955
3087.848927,1741.974853,497.707101,-9609.575562
3087.851487,1091.127106,287.138712,-9609.575562
3087.854046,1033.699363,612.562586,-10241.280728
3087.856606,1569.691626,-153.140646,-9820.143950
3087.859166,2565.105827,-2718.246474,-10164.710405
3087.861725,-210.568389,401.994197,-10145.567824
3087.864286,650.847747,823.130974,-9858.429112
3087.866846,287.138712,3866.801322,-9150.153622
3087.869407,-669.990328,1301.695494,-9743.573627
3087.871968,-3024.527766,4977.071008,-9724.431046
3087.874529,114.855485,784.845813,-10643.274925
3087.877090,2029.113565,1110.269686,-9379.864592
3087.879651,995.414202,842.273555,-9284.151688
3087.882212,-248.853550,-1014.556782,-10585.847182
3087.884773,-861.416136,2258.824534,-9839.286531
3087.887333,-784.845813,2392.822600,-9475.577496
3087.889894,1378.265818,325.423874,-10260.423309
3087.892455,95.712904,1129.412267,-9513.862658
3087.895016,-497.707101,1359.123237,-9781.858789
3087.897577,-1684.547110,1071.984525,-10183.852986
3087.900138,-880.558717,1722.832272,-9896.714274
3087.902699,2909.672282,612.562586,-9724.431046
3087.905259,-976.271621,4402.793584,-9016.155557
3087.907820,-1971.685822,-440.279358,-10624.132344
3087.910381,-1052.841944,3158.525832,-9494.720077
3087.912942,1033.699363,-535.992262,-10222.138147
3087.915503,2833.101958,-4977.071008,-11026.126541
3087.918064,2239.681954,1971.685822,-9265.009107
3087.920625,2067.398726,-1493.121302,-9858.429112
3087.923186,248.853550,-2086.541307,-10279.565890
3087.925746,-172.283227,2354.537438,-9915.856854
3087.928307,-306.281293,191.425808,-10681.560086
3087.930868,1531.406464,1091.127106,-9322.436850
3087.933429,1952.543242,2354.537438,-9054.440718
3087.935990,497.707101,-2411.965181,-10796.415571
3087.938551,344.566454,746.560651,-9992.427178
3087.941112,1014.556782,823.130974,-10049.854920
3087.943672,1818.545176,-957.129040,-10011.569758
3087.946233,1607.976787,612.562586,-9533.005238
3087.948794,918.843878,1435.693560,-9820.143950
3087.951355,1627.119368,-1569.691626,-10183.852986
3087.953916,2488.535504,-2105.683888,-10107.282662
3087.956477,-382.851616,153.140646,-9992.427178
3087.959038,708.275490,593.420005,-9954.142016
3087.961598,1052.841944,4747.360038,-8882.157491
3087.964160,-823.130974,957.129040,-9686.145885
3087.966722,-3349.951640,4594.219392,-9934.999435
3087.969283,19.142581,1052.841944,-10566.704602
3087.971845,2163.111630,1033.699363,-9265.009107
3087.974406,1091.127106,976.271621,-9284.151688
3087.976968,19.142581,-248.853550,-10356.136213
3087.979529,-1167.697429,2373.680019,-9705.288466
3087.982091,-1167.697429,1148.554848,-10107.282662
3087.984652,1263.410333,38.285162,-9743.573627
3087.987214,631.705166,1607.976787,-9418.149754
3087.989775,-1014.556782,957.129040,-10049.854920
3087.992337,-1186.840010,1550.549045,-9839.286531
3087.994898,-842.273555,2143.969050,-9973.284597
3087.997460,2488.535504,-1091.127106,-10183.852986
3088.000022,-363.709035,5264.209720,-8614.161360
3088.002583,-2584.248408,1359.123237,-10356.136213
3088.005145,153.140646,1512.263883,-9896.714274
3088.007706,95.712904,4670.789715,-8690.731683
3088.010268,2756.531635,-4785.645200,-11217.552349
3088.012829,2258.824534,-535.992262,-9820.143950
3088.015391,2277.967115,133.998066,-9341.579430
3088.017952,-593.420005,-2009.970984,-10336.993632
3088.020514,114.855485,2813.959378,-9896.714274
3088.023075,-153.140646,306.281293,-10375.278794
3088.025637,1627.119368,669.990328,-9226.723946
3088.028198,1339.980656,2086.541307,-9207.581365
3088.030760,1033.699363,-1033.699363,-10509.276859
3088.033322,1167.697429,1186.840010,-9915.856854
3088.035883,765.703232,727.418070,-10011.569758
3088.038445,1435.693560,-1473.978722,-10107.282662
3088.041006,535.992262,1454.836141,-9284.151688
3088.043568,2545.963246,-1359.123237,-10375.278794
3088.046129,1301.695494,555.134843,-9743.573627
3088.048691,2143.969050,-1761.117434,-10088.140082
3088.051252,-1837.687757,727.418070,-9839.286531
3088.053814,1646.261949,-1895.115499,-10662.417506
3088.056375,765.703232,1588.834206,-9341.579430
3088.058937,-2258.824534,4134.797453,-9245.866526
3088.061498,-1761.117434,4058.227130,-10088.140082
3088.064060,-172.283227,2220.539373,-9915.856854
3088.066622,2239.681954,-689.132909,-9513.862658
3088.069185,918.843878,306.281293,-9858.429112
3088.071747,-650.847747,-1091.127106,-10719.845248
3088.074309,-976.271621,2565.105827,-9705.288466
3088.076872,-229.710970,1493.121302,-9820.143950
3088.079434,1052.841944,172.283227,-10088.140082
3088.081996,-57.427742,1588.834206,-9360.722011
3088.084559,-823.130974,1014.556782,-9934.999435
3088.087121,-1741.974853,1473.978722,-10222.138147
3088.089683,2526.820666,1473.978722,-9781.858789
3088.092246,-957.129040,4268.795518,-9016.155557
3088.094808,-1244.267752,-784.845813,-10681.560086
3088.097370,-1856.830338,3637.090352,-9686.145885
3088.099933,1339.980656,-1971.685822,-10317.851051
3088.102495,2622.533570,1129.412267,-9609.575562
3088.105057,1531.406464,1895.115499,-9552.147819
3088.107620,2048.256146,-4019.941968,-10202.995566
3088.110182,2009.970984,-1761.117434,-9801.001370
3088.112744,-306.281293,1990.828403,-10202.995566
3088.115307,-344.566454,1129.412267,-10432.706536
3088.117869,1550.549045,2220.539373,-9188.438784
3088.120431,1473.978722,153.140646,-9475.577496
3088.122994,1703.689691,-1052.841944,-10317.851051
3088.125556,-1014.556782,1741.974853,-9820.143950
3088.128118,1359.123237,248.853550,-10126.425243
3088.130681,1531.406464,612.562586,-10030.712339
3088.133243,1129.412267,-382.851616,-9628.718142
3088.135805,2450.250342,-1971.685822,-10317.851051
3088.138368,1722.832272,1301.695494,-9820.143950
3088.140930,1646.261949,-2239.681954,-10126.425243
3088.143492,-1569.691626,-114.855485,-9877.571693
3088.146055,1971.685822,-459.421939,-10394.421374
3088.148617,612.562586,3732.803256,-8997.012976
3088.151180,-344.566454,1282.552914,-9667.003304
3088.153742,-3847.658741,4364.508422,-10317.851051
3088.156304,57.427742,842.273555,-10336.993632
3088.158867,1761.117434,1550.549045,-9169.296203
3088.161429,937.986459,899.701298,-9686.145885
3088.163991,153.140646,-1110.269686,-10547.562021
3088.166554,-1856.830338,3062.812928,-9820.143950
3088.169117,-133.998066,861.416136,-10030.712339
3088.171680,1875.972918,765.703232,-9590.432981
3088.174243,-153.140646,440.279358,-9781.858789
3088.176807,-918.843878,1225.125171,-9858.429112
3088.179370,-1588.834206,2737.389054,-9858.429112
3088.181933,-153.140646,689.132909,-10279.565890
3088.184497,-708.275490,1818.545176,-9456.434915
3088.187060,-229.710970,229.710970,-10298.708470
3088.189623,-2316.252277,4000.799387,-9896.714274
3088.192186,1818.545176,-1531.406464,-9973.284597
3088.194750,1856.830338,4211.367776,-8824.729749
3088.197313,1856.830338,-2239.681954,-10681.560086
3088.199876,2124.826469,-3196.810994,-10183.852986
3088.202440,2622.533570,-401.994197,-9513.862658
3088.205003,-899.701298,-19.142581,-10126.425243
3088.207566,-727.418070,1837.687757,-10030.712339
3088.210129,1225.125171,1071.984525,-9724.431046
3088.212693,2258.824534,765.703232,-9265.009107
3088.215256,842.273555,669.990328,-9762.716208
3088.217819,-95.712904,-19.142581,-10470.991698
3088.220383,1378.265818,1282.552914,-9992.427178
3088.222946,1301.695494,708.275490,-9820.143950
3088.225509,1225.125171,-1665.404530,-10222.138147
3088.228072,1895.115499,1895.115499,-9322.436850
3088.230636,2163.111630,1225.125171,-9781.858789
3088.233199,1359.123237,-3235.096155,-10585.847182
3088.235762,-1607.976787,708.275490,-9705.288466
3088.238326,2067.398726,-325.423874,-10183.852986
3088.240889,478.564520,2909.672282,-9533.005238
3088.243452,-191.425808,1493.121302,-9590.432981
3088.246015,-3503.092286,4517.649069,-9820.143950
3088.248579,-344.566454,344.566454,-10872.985894
3088.251142,1646.261949,2048.256146,-9054.440718
3088.253705,1091.127106,727.418070,-9590.432981
3088.256269,-421.136778,-976.271621,-10662.417506
3088.258832,-1473.978722,2507.678085,-9801.001370
3088.261395,-76.570323,1531.406464,-10011.569758
3088.263958,1588.834206,555.134843,-9762.716208
3088.266522,153.140646,1722.832272,-9418.149754
3088.269085,-344.566454,612.562586,-10088.140082
3088.271649,-1627.119368,1722.832272,-10068.997501
3088.274213,306.281293,1607.976787,-9915.856854
3088.276776,-1282.552914,3024.527766,-9284.151688
3088.279340,-421.136778,-229.710970,-10432.706536
3088.281904,-2124.826469,4153.940034,-9705.288466
3088.284468,1359.123237,-2277.967115,-10241.280728
3088.287032,2660.818731,2507.678085,-9341.579430
3088.289595,1416.550979,555.134843,-9915.856854
3088.292159,1703.689691,-4096.512291,-10451.849117
3088.294723,2699.103893,-1684.547110,-9915.856854
3088.297287,-1167.697429,1607.976787,-9877.571693
3088.299851,-325.423874,325.423874,-10566.704602
3088.302414,1722.832272,1627.119368,-9475.577496
3088.304978,2392.822600,1531.406464,-9131.011042
3088.307542,248.853550,-650.847747,-10164.710405
3088.310106,459.421939,516.849682,-10298.708470
3088.312670,1397.408398,1033.699363,-9801.001370
3088.315233,574.277424,-306.281293,-10222.138147
3088.317797,191.425808,133.998066,-9858.429112
3088.320361,3311.666478,0.000000,-9571.290400
3088.322925,1703.689691,287.138712,-10068.997501
3088.325489,880.558717,-1301.695494,-10145.567824
3088.328052,-1856.830338,1550.549045,-9513.862658
3088.330616,2009.970984,-2182.254211,-10796.415571
3088.333180,631.705166,2833.101958,-9111.868461
3088.335744,-1167.697429,3464.807125,-9016.155557
3088.338308,-2392.822600,4613.361973,-10241.280728
3088.340871,38.285162,1225.125171,-10317.851051
3088.343435,2239.681954,-57.427742,-9322.436850
3088.345999,1033.699363,497.707101,-9590.432981
3088.348563,-631.705166,76.570323,-10413.563955
3088.351127,-1569.691626,1263.410333,-10088.140082
3088.353690,880.558717,1665.404530,-9743.573627
3088.356254,1110.269686,918.843878,-9590.432981
3088.358818,-114.855485,727.418070,-9590.432981
3088.361382,-1014.556782,1493.121302,-9877.571693
3088.363946,-1416.550979,1627.119368,-10164.710405
3088.366510,2124.826469,401.994197,-10164.710405
3088.369073,-1033.699363,5015.356170,-8939.585234
3088.371637,-2143.969050,2737.389054,-9705.288466
3088.374201,1148.554848,918.843878,-9973.284597
3088.376766,-38.285162,2469.392923,-9705.288466
3088.379330,2986.242605,-4402.793584,-10911.271056
3088.381895,1741.974853,1512.263883,-9513.862658
3088.384459,2163.111630,-1818.545176,-9877.571693
3088.387023,1225.125171,-1378.265818,-9781.858789
3088.389588,38.285162,2469.392923,-10088.140082
3088.392152,-401.994197,-19.142581,-10796.415571
3088.394716,516.849682,823.130974,-8920.442653
3088.397281,2163.111630,-363.709035,-9934.999435
3088.399845,880.558717,555.134843,-10279.565890
3088.402409,191.425808,1129.412267,-9762.716208
3088.404974,1129.412267,-57.427742,-10202.995566
3088.407538,1703.689691,-478.564520,-10107.282662
3088.410103,1071.984525,2507.678085,-9035.298138
3088.412667,2469.392923,-1952.543242,-10298.708470
3088.415231,2947.957443,-2182.254211,-10394.421374
3088.417796,-823.130974,172.283227,-9628.718142
3088.420360,-38.285162,727.418070,-10164.710405
3088.422924,689.132909,2143.969050,-9628.718142
3088.425489,765.703232,229.710970,-9647.860723
3088.428053,-3905.086483,4077.369710,-9896.714274
3088.430617,-114.855485,1205.982590,-10700.702667
3088.433182,899.701298,3273.381317,-9111.868461
3088.435746,1607.976787,-1473.978722,-9609.575562
3088.438310,516.849682,631.705166,-9877.571693
3088.440875,-401.994197,2220.539373,-10011.569758
3088.443439,-650.847747,1856.830338,-10049.854920
3088.446004,899.701298,957.129040,-9705.288466
3088.448568,382.851616,516.849682,-9705.288466
3088.451132,-421.136778,689.132909,-10011.569758
3088.453697,-1741.974853,2124.826469,-9934.999435
3088.456261,1320.838075,1359.123237,-10145.567824
3088.458825,-861.416136,2450.250342,-9609.575562
3088.461390,-478.564520,669.990328,-9973.284597
3088.463954,-2067.398726,4115.654872,-9552.147819
3088.466518,1205.982590,-1301.695494,-10279.565890
3088.469083,2354.537438,229.710970,-9667.003304
3088.471647,1282.552914,2239.681954,-9705.288466
3088.474212,1952.543242,-4153.940034,-10528.419440
3088.476776,2201.396792,-1569.691626,-9552.147819
3088.479341,-1071.984525,1646.261949,-10126.425243
3088.481906,-76.570323,880.558717,-10968.698798
3088.484471,1627.119368,2392.822600,-9054.440718
3088.487036,708.275490,1186.840010,-9131.011042
3088.489601,593.420005,-1990.828403,-10624.132344
3088.492166,1091.127106,1837.687757,-9705.288466
3088.494731,516.849682,325.423874,-10260.423309
3088.497296,976.271621,-937.986459,-10068.997501
3088.499861,765.703232,2986.242605,-8843.872330
3088.502426,2143.969050,-689.132909,-10049.854920
3088.504991,2699.103893,-3215.953574,-10394.421374
3088.507556,191.425808,650.847747,-9820.143950
3088.510121,-1033.699363,1359.123237,-9877.571693
3088.512686,478.564520,861.416136,-9571.290400
3088.515251,1416.550979,-172.283227,-10011.569758
3088.517816,-3464.807125,3751.945837,-9992.427178
3088.520381,-555.134843,2507.678085,-10260.423309
3088.522946,535.992262,3560.520029,-9379.864592
3088.525511,937.986459,-765.703232,-9341.579430
