#time,accel_x,accel_y,accel_z
372.936961,-880.558717,38.285162,-9743.573627
372.940179,-650.847747,2029.113565,-9590.432981
372.943397,-937.986459,650.847747,-9705.288466
372.946615,0.000000,612.562586,-9571.290400
372.949833,2297.109696,1588.834206,-9207.581365
372.953051,1531.406464,-612.562586,-10049.854920
372.956269,1761.117434,823.130974,-9054.440718
372.959487,459.421939,-880.558717,-10183.852986
372.962705,-478.564520,2411.965181,-9399.007173
372.965923,-363.709035,172.283227,-9915.856854
372.969141,593.420005,765.703232,-9379.864592
372.972359,1684.547110,2641.676150,-9437.292334
372.975577,2067.398726,1588.834206,-9628.718142
372.978795,1493.121302,3139.383251,-8403.592971
372.982013,210.568389,440.279358,-10336.993632
372.985231,-784.845813,1416.550979,-9801.001370
372.988449,-153.140646,-133.998066,-9609.575562
372.991667,-1473.978722,-344.566454,-9552.147819
372.994885,-516.849682,1071.984525,-9533.005238
372.998103,1091.127106,-727.418070,-10222.138147
373.001321,1454.836141,1531.406464,-8901.300072
373.004539,2316.252277,57.427742,-9494.720077
373.007757,689.132909,823.130974,-9418.149754
373.010975,306.281293,-210.568389,-10279.565890
373.014193,-535.992262,1722.832272,-9341.579430
373.017411,-344.566454,-229.710970,-9513.862658
373.020629,421.136778,1493.121302,-9686.145885
373.023847,210.568389,267.996131,-10126.425243
373.027047,1263.410333,746.560651,-9054.440718
373.030248,1014.556782,172.283227,-9303.294269
373.033449,555.134843,325.423874,-10126.425243
373.036649,-459.421939,1588.834206,-9494.720077
373.039850,-325.423874,153.140646,-9801.001370
373.043050,-995.414202,1531.406464,-9245.866526
373.046251,-1186.840010,-612.562586,-10222.138147
373.049452,1359.123237,918.843878,-9418.149754
373.052652,516.849682,-2277.967115,-9877.571693
373.055853,784.845813,-1741.974853,-9877.571693
373.059053,-593.420005,-95.712904,-9724.431046
373.062254,-1052.841944,1780.260014,-9475.577496
373.065455,1359.123237,2239.681954,-8824.729749
373.068655,976.271621,-1627.119368,-10604.989763
373.071856,746.560651,1627.119368,-9896.714274
373.075056,861.416136,3005.385186,-9341.579430
373.078257,784.845813,1397.408398,-9207.581365
373.081458,803.988394,-76.570323,-9494.720077
373.084658,669.990328,-459.421939,-10202.995566
373.087859,708.275490,497.707101,-9303.294269
373.091060,153.140646,38.285162,-9877.571693
373.094260,306.281293,2277.967115,-9475.577496
373.097461,325.423874,1416.550979,-9820.143950
373.100661,1780.260014,1071.984525,-9360.722011
373.103862,1550.549045,-76.570323,-9341.579430
373.107063,1780.260014,535.992262,-9628.718142
373.110263,708.275490,191.425808,-9456.434915
373.113464,114.855485,1033.699363,-9533.005238
373.116664,-650.847747,784.845813,-9801.001370
373.119865,114.855485,497.707101,-9552.147819
373.123066,-459.421939,1167.697429,-9667.003304
373.126266,555.134843,823.130974,-9609.575562
373.129452,1971.685822,995.414202,-9131.011042
373.132638,1378.265818,-287.138712,-9896.714274
373.135823,248.853550,1033.699363,-9590.432981
373.139009,325.423874,-440.279358,-9801.001370
373.142195,287.138712,2048.256146,-9360.722011
373.145381,-784.845813,957.129040,-9781.858789
373.148566,1627.119368,1607.976787,-9571.290400
373.151752,2928.814862,1971.685822,-9169.296203
373.154938,2431.107762,861.416136,-9858.429112
373.158123,1263.410333,1397.408398,-9437.292334
373.161309,-880.558717,1033.699363,-9915.856854
373.164495,1435.693560,3847.658741,-8614.161360
373.167681,995.414202,-459.421939,-9896.714274
373.170866,-1837.687757,-1493.121302,-10490.134278
373.174052,-1933.400661,-555.134843,-9667.003304
373.177238,382.851616,-1416.550979,-9992.427178
373.180424,1875.972918,-191.425808,-9245.866526
373.183609,1607.976787,-650.847747,-10068.997501
373.186795,-133.998066,1646.261949,-9284.151688
373.189981,-1359.123237,267.996131,-9571.290400
373.193166,-76.570323,823.130974,-9973.284597
373.196352,-842.273555,1397.408398,-9628.718142
373.199538,631.705166,1033.699363,-9533.005238
373.202724,1799.402595,880.558717,-9016.155557
373.205909,1780.260014,574.277424,-9801.001370
373.209095,1110.269686,401.994197,-9628.718142
373.212281,650.847747,57.427742,-9341.579430
373.215466,-535.992262,2392.822600,-9513.862658
373.218652,-287.138712,-210.568389,-9934.999435
373.221838,-210.568389,1761.117434,-9226.723946
373.225024,-19.142581,76.570323,-10183.852986
373.228209,1091.127106,1416.550979,-9035.298138
373.231405,1914.258080,516.849682,-9360.722011
373.234601,325.423874,-19.142581,-10011.569758
373.237797,0.000000,-459.421939,-9513.862658
373.240993,306.281293,-153.140646,-9801.001370
373.244188,-1531.406464,-689.132909,-9705.288466
373.247384,-1244.267752,-1550.549045,-10356.136213
373.250580,363.709035,1607.976787,-9437.292334
373.253776,1569.691626,1378.265818,-8824.729749
373.256972,2928.814862,1359.123237,-9073.583299
373.260167,1914.258080,-2201.396792,-10317.851051
373.263363,880.558717,957.129040,-9973.284597
373.266559,459.421939,4651.647134,-8863.014910
373.269755,0.000000,3081.955509,-9609.575562
373.272951,-937.986459,1014.556782,-9475.577496
373.276147,1148.554848,306.281293,-10088.140082
373.279342,2239.681954,-76.570323,-9647.860723
373.282538,1703.689691,153.140646,-9111.868461
373.285734,669.990328,153.140646,-9839.286531
373.288930,76.570323,1895.115499,-9475.577496
373.292126,-535.992262,478.564520,-9839.286531
373.295321,-421.136778,1607.976787,-9245.866526
373.298517,76.570323,382.851616,-9915.856854
373.301713,1186.840010,1646.261949,-9513.862658
373.304909,1244.267752,344.566454,-9647.860723
373.308105,1990.828403,995.414202,-9111.868461
373.311301,1148.554848,-401.994197,-9609.575562
373.314496,516.849682,1703.689691,-9724.431046
373.317692,-1110.269686,229.710970,-10011.569758
373.320888,-823.130974,1454.836141,-9169.296203
373.324084,248.853550,803.988394,-9801.001370
373.327280,1186.840010,535.992262,-9858.429112
373.330475,2488.535504,1167.697429,-9207.581365
373.333680,746.560651,-535.992262,-9762.716208
373.336885,1703.689691,1952.543242,-9188.438784
373.340090,1378.265818,1627.119368,-9934.999435
373.343295,229.710970,1473.978722,-9456.434915
373.346500,-325.423874,708.275490,-9724.431046
373.349705,-784.845813,1646.261949,-9992.427178
373.352910,3503.092286,4077.369710,-9054.440718
373.356114,2718.246474,1167.697429,-9284.151688
373.359319,-19.142581,-746.560651,-9571.290400
373.362524,-1722.832272,-2182.254211,-10260.423309
373.365729,-1493.121302,-1320.838075,-9801.001370
373.368934,-19.142581,-459.421939,-9820.143950
373.372139,-516.849682,1205.982590,-9781.858789
373.375344,-631.705166,1244.267752,-9303.294269
373.378548,306.281293,861.416136,-9743.573627
373.381753,1741.974853,497.707101,-9456.434915
373.384958,937.986459,153.140646,-9590.432981
373.388163,957.129040,1052.841944,-9226.723946
373.391368,153.140646,382.851616,-9743.573627
373.394573,-76.570323,1263.410333,-9647.860723
373.397778,-287.138712,535.992262,-9839.286531
373.400983,248.853550,421.136778,-9399.007173
373.404187,-191.425808,210.568389,-9877.571693
373.407392,1741.974853,880.558717,-9647.860723
373.410597,957.129040,593.420005,-9284.151688
373.413802,-95.712904,-421.136778,-10030.712339
373.417007,-574.277424,2526.820666,-9418.149754
373.420212,-1071.984525,708.275490,-10011.569758
373.423417,-823.130974,1282.552914,-8997.012976
373.426622,1225.125171,-172.283227,-10145.567824
373.429826,1205.982590,-306.281293,-9552.147819
373.433031,76.570323,-1454.836141,-9475.577496
373.436231,-57.427742,-2392.822600,-10164.710405
373.439444,-1856.830338,1071.984525,-9303.294269
373.442657,153.140646,1454.836141,-9647.860723
373.445870,937.986459,-574.277424,-9667.003304
373.449083,1856.830338,133.998066,-10375.278794
373.452296,1684.547110,2986.242605,-9379.864592
373.455509,325.423874,2794.816797,-9169.296203
373.458722,133.998066,76.570323,-9437.292334
373.461935,248.853550,593.420005,-9801.001370
373.465148,459.421939,-287.138712,-10164.710405
373.468361,899.701298,1627.119368,-8690.731683
373.471574,-478.564520,401.994197,-10068.997501
373.474787,-593.420005,1722.832272,-9628.718142
373.478000,995.414202,1531.406464,-9724.431046
373.481212,1569.691626,555.134843,-9303.294269
373.484425,1244.267752,-114.855485,-9226.723946
373.487638,1856.830338,727.418070,-9858.429112
373.490851,76.570323,440.279358,-9705.288466
373.494064,-248.853550,784.845813,-9245.866526
373.497277,-880.558717,1339.980656,-9686.145885
373.500490,382.851616,765.703232,-9877.571693
373.503703,516.849682,976.271621,-9399.007173
373.506916,2469.392923,306.281293,-9647.860723
373.510129,2201.396792,535.992262,-9322.436850
373.513342,823.130974,57.427742,-9781.858789
373.516555,-1435.693560,1320.838075,-9475.577496
373.519768,-382.851616,880.558717,-9992.427178
373.522981,57.427742,2641.676150,-9265.009107
373.526194,1646.261949,2833.101958,-9188.438784
373.529407,2431.107762,363.709035,-10260.423309
373.532620,57.427742,957.129040,-9207.581365
373.535833,1320.838075,2335.394858,-9131.011042
373.539030,976.271621,2813.959378,-8901.300072
373.542227,-1722.832272,95.712904,-9973.284597
373.545425,-1627.119368,-1531.406464,-10241.280728
373.548622,-1110.269686,-1512.263883,-9513.862658
373.551819,669.990328,-210.568389,-9801.001370
373.555016,689.132909,1703.689691,-9533.005238
373.558213,880.558717,76.570323,-9647.860723
373.561411,497.707101,937.986459,-9016.155557
373.564608,287.138712,153.140646,-10164.710405
373.567805,516.849682,1205.982590,-9475.577496
373.571002,-631.705166,306.281293,-9762.716208
373.574199,-650.847747,1244.267752,-9322.436850
373.577397,19.142581,669.990328,-9667.003304
373.580594,1416.550979,918.843878,-9724.431046
373.583791,1416.550979,650.847747,-9245.866526
373.586988,1914.258080,-38.285162,-9418.149754
373.590186,459.421939,1148.554848,-9762.716208
373.593383,-1033.699363,-172.283227,-10107.282662
373.596580,-1301.695494,1837.687757,-9035.298138
373.599777,-172.283227,803.988394,-9954.142016
373.602974,-287.138712,1454.836141,-9169.296203
373.606172,1512.263883,267.996131,-9724.431046
373.609369,1435.693560,-248.853550,-9494.720077
373.612566,133.998066,-612.562586,-9494.720077
373.615763,-1933.400661,-2239.681954,-10528.419440
373.618961,-2450.250342,440.279358,-9399.007173
373.622158,-516.849682,2029.113565,-9571.290400
373.625355,1282.552914,1071.984525,-9418.149754
373.628552,3215.953574,172.283227,-10068.997501
373.631749,3024.527766,2469.392923,-9552.147819
373.634947,593.420005,2584.248408,-9054.440718
373.638144,-478.564520,-478.564520,-9379.864592
373.641351,-459.421939,1914.258080,-9494.720077
373.644558,267.996131,-937.986459,-10624.132344
373.647764,382.851616,1684.547110,-8690.731683
373.650971,-133.998066,133.998066,-10145.567824
373.654178,-478.564520,1895.115499,-9781.858789
373.657385,1320.838075,1416.550979,-9475.577496
373.660592,2469.392923,401.994197,-9360.722011
373.663799,1378.265818,248.853550,-9245.866526
373.667005,1569.691626,325.423874,-9973.284597
373.670212,-172.283227,1378.265818,-9705.288466
373.673419,-1091.127106,325.423874,-9399.007173
373.676626,-535.992262,1799.402595,-9245.866526
373.679833,823.130974,325.423874,-10202.995566
373.683040,1761.117434,1818.545176,-9150.153622
373.686247,2488.535504,-669.990328,-9609.575562
373.689453,2009.970984,1435.693560,-9303.294269
373.692660,-382.851616,153.140646,-9820.143950
373.695867,-497.707101,1531.406464,-9533.005238
373.699074,-669.990328,2258.824534,-9590.432981
373.702281,650.847747,3043.670347,-9399.007173
373.705488,1588.834206,1512.263883,-9705.288466
373.708695,535.992262,-593.420005,-10011.569758
373.711901,1799.402595,3177.668413,-8690.731683
373.715108,1493.121302,1493.121302,-9284.151688
373.744045,38.285162,727.418070,-9705.288466
373.747260,-153.140646,0.000000,-9456.434915
373.750475,-440.279358,861.416136,-9705.288466
373.753690,-440.279358,1282.552914,-9992.427178
373.756906,172.283227,976.271621,-9552.147819
373.760121,1531.406464,593.420005,-9226.723946
373.763336,995.414202,1110.269686,-9379.864592
373.766551,382.851616,-708.275490,-10068.997501
373.769766,0.000000,1071.984525,-9533.005238
373.772982,-899.701298,421.136778,-10011.569758
373.776197,-899.701298,1186.840010,-9073.583299
373.779412,995.414202,306.281293,-9839.286531
373.782627,497.707101,-727.418070,-10164.710405
373.785842,267.996131,-746.560651,-9609.575562
373.789058,-153.140646,-1703.689691,-9877.571693
373.792273,-535.992262,1627.119368,-9150.153622
373.795488,1033.699363,612.562586,-9743.573627
373.798703,-153.140646,-1856.830338,-10164.710405
373.801918,1435.693560,-516.849682,-10279.565890
373.805133,1033.699363,3426.521963,-9494.720077
373.808349,459.421939,4843.072942,-8977.870395
373.811564,1263.410333,133.998066,-9686.145885
373.814779,1397.408398,344.566454,-9054.440718
373.817994,669.990328,57.427742,-10298.708470
373.821217,1320.838075,1167.697429,-9265.009107
373.824439,-306.281293,555.134843,-9418.149754
373.827662,-669.990328,1378.265818,-9647.860723
373.830884,382.851616,1512.263883,-9801.001370
373.834107,880.558717,650.847747,-9820.143950
373.837330,1397.408398,401.994197,-9245.866526
373.840552,1990.828403,401.994197,-9686.145885
373.843775,746.560651,650.847747,-9896.714274
373.846997,325.423874,153.140646,-9513.862658
373.850220,229.710970,899.701298,-9494.720077
373.853442,-76.570323,650.847747,-9934.999435
373.856665,-344.566454,861.416136,-9533.005238
373.859887,382.851616,535.992262,-9877.571693
373.863110,1397.408398,1741.974853,-9303.294269
373.866333,2833.101958,1052.841944,-9360.722011
373.869555,3196.810994,1301.695494,-9322.436850
373.872778,1531.406464,-267.996131,-9781.858789
373.876000,-669.990328,1052.841944,-9781.858789
373.879223,-1339.980656,2947.957443,-9418.149754
373.882445,382.851616,3617.947771,-9322.436850
373.885668,1454.836141,1148.554848,-9494.720077
373.888891,344.566454,-1033.699363,-10222.138147
373.892113,-1761.117434,-1110.269686,-9571.290400
373.895336,-1416.550979,-574.277424,-9533.005238
373.898558,459.421939,-555.134843,-9590.432981
373.901781,746.560651,1741.974853,-9360.722011
373.905003,-344.566454,-38.285162,-10183.852986
373.908226,-1033.699363,1741.974853,-8863.014910
373.911448,459.421939,-114.855485,-10126.425243
373.914671,1014.556782,1512.263883,-9877.571693
373.917894,784.845813,344.566454,-9245.866526
373.921116,1397.408398,440.279358,-9169.296203
373.924345,669.990328,421.136778,-9934.999435
373.927574,-95.712904,1014.556782,-9705.288466
373.930803,-765.703232,669.990328,-9437.292334
373.934033,-574.277424,1301.695494,-9686.145885
373.937262,-76.570323,1397.408398,-9686.145885
373.940491,995.414202,114.855485,-9647.860723
373.943720,976.271621,421.136778,-9418.149754
373.946949,325.423874,19.142581,-9877.571693
373.950178,-382.851616,-593.420005,-9475.577496
373.953407,-1263.410333,133.998066,-9724.431046
373.956636,191.425808,1550.549045,-9513.862658
373.959865,-382.851616,-1473.978722,-10068.997501
373.963094,-1263.410333,-1741.974853,-10068.997501
373.966324,-1320.838075,-76.570323,-10049.854920
373.969553,1875.972918,2986.242605,-8977.870395
373.972782,4307.080680,2239.681954,-8786.444587
373.976011,4211.367776,1703.689691,-9973.284597
373.979240,-784.845813,2584.248408,-9686.145885
373.982469,-1416.550979,-421.136778,-9418.149754
373.985698,-1493.121302,3139.383251,-9609.575562
373.988927,401.994197,-612.562586,-10585.847182
373.992156,2469.392923,1435.693560,-8537.591037
373.995385,2048.256146,-210.568389,-9494.720077
373.998615,593.420005,516.849682,-10164.710405
374.001844,823.130974,459.421939,-9571.290400
374.005073,267.996131,382.851616,-9571.290400
374.008302,-593.420005,1627.119368,-9379.864592
374.011531,-612.562586,76.570323,-10260.423309
374.014760,1148.554848,2373.680019,-9245.866526
374.017989,229.710970,-267.996131,-9705.288466
374.021218,2813.959378,1703.689691,-8901.300072
374.024447,2009.970984,-95.712904,-9934.999435
374.027682,669.990328,382.851616,-9839.286531
374.030918,-1531.406464,1416.550979,-9035.298138
374.034153,-516.849682,1014.556782,-9973.284597
374.037388,306.281293,3369.094221,-9207.581365
374.040623,1799.402595,1033.699363,-9915.856854
374.043858,2507.678085,612.562586,-9475.577496
374.047093,267.996131,1129.412267,-9284.151688
374.050328,1588.834206,2718.246474,-9207.581365
374.053563,1588.834206,2526.820666,-8863.014910
374.056799,-1244.267752,-784.845813,-10107.282662
374.060034,-3292.523898,-1550.549045,-10164.710405
374.063269,-2297.109696,-2009.970984,-10164.710405
374.066504,-287.138712,153.140646,-9494.720077
374.069739,1091.127106,1550.549045,-9724.431046
374.072974,1014.556782,-344.566454,-9571.290400
374.076209,784.845813,440.279358,-9245.866526
374.079444,784.845813,574.277424,-10222.138147
374.082680,401.994197,459.421939,-9399.007173
374.085915,-650.847747,172.283227,-9609.575562
374.089150,-1454.836141,1588.834206,-9552.147819
374.092385,267.996131,574.277424,-9896.714274
374.095620,2373.680019,1473.978722,-9169.296203
374.098855,1493.121302,-899.701298,-9743.573627
374.102090,1971.685822,1091.127106,-9092.725880
374.105325,574.277424,-191.425808,-10088.140082
374.108561,-1110.269686,1071.984525,-9705.288466
374.111796,-1512.263883,497.707101,-9609.575562
374.115031,-650.847747,574.277424,-9839.286531
374.118266,-1205.982590,1493.121302,-9475.577496
374.121501,2335.394858,746.560651,-9781.858789
374.124736,1627.119368,-1933.400661,-9456.434915
374.127971,-1129.412267,-2277.967115,-10068.997501
374.131212,-1416.550979,2411.965181,-9513.862658
374.134452,-153.140646,3139.383251,-9035.298138
374.137693,2297.109696,1531.406464,-9322.436850
374.140933,3081.955509,2737.389054,-9513.862658
374.144173,593.420005,2297.109696,-9973.284597
374.147414,-306.281293,1569.691626,-8939.585234
374.150654,325.423874,880.558717,-9360.722011
374.153895,1531.406464,-19.142581,-10260.423309
374.157135,1607.976787,344.566454,-9322.436850
374.160375,-57.427742,1148.554848,-9322.436850
374.163616,-823.130974,669.990328,-10049.854920
374.166856,-306.281293,1531.406464,-9724.431046
374.170097,-861.416136,669.990328,-9475.577496
374.173337,1837.687757,842.273555,-9150.153622
374.176578,1933.400661,631.705166,-9667.003304
374.179818,1052.841944,-57.427742,-10145.567824
374.183058,1167.697429,765.703232,-9150.153622
374.186299,-555.134843,-325.423874,-10030.712339
374.189539,-516.849682,2603.390989,-9513.862658
374.192780,172.283227,38.285162,-9896.714274
374.196020,2488.535504,1761.117434,-9111.868461
374.199260,2718.246474,1186.840010,-9705.288466
374.202501,2277.967115,-114.855485,-9858.429112
374.205741,382.851616,1416.550979,-9303.294269
374.208982,210.568389,2277.967115,-9743.573627
374.212222,842.273555,2201.396792,-9054.440718
374.215462,1033.699363,-1014.556782,-10317.851051
374.218703,-976.271621,478.564520,-9877.571693
374.221943,-3541.377448,803.988394,-9399.007173
374.225184,-382.851616,727.418070,-9284.151688
374.228424,2488.535504,-880.558717,-9111.868461
374.231665,2009.970984,-1205.982590,-10432.706536
374.234910,669.990328,880.558717,-9571.290400
374.238155,-995.414202,823.130974,-8958.727814
374.241400,-631.705166,1952.543242,-9724.431046
374.244645,-248.853550,-689.132909,-10585.847182
374.247890,-19.142581,1914.258080,-8786.444587
374.251135,689.132909,-765.703232,-9973.284597
374.254380,1339.980656,1550.549045,-9188.438784
374.257625,976.271621,-19.142581,-10049.854920
374.260870,19.142581,784.845813,-9762.716208
374.264115,-1531.406464,325.423874,-9399.007173
374.267360,-708.275490,1071.984525,-9877.571693
374.270605,-363.709035,2009.970984,-9533.005238
374.273850,1435.693560,-535.992262,-9992.427178
374.277095,363.709035,-957.129040,-9131.011042
374.280340,-497.707101,-631.705166,-9801.001370
374.283585,-76.570323,1416.550979,-9686.145885
374.286830,-363.709035,1397.408398,-8958.727814
374.290075,-593.420005,-1607.976787,-9839.286531
374.293320,-1761.117434,-669.990328,-10183.852986
374.296565,976.271621,2086.541307,-9877.571693
374.299810,2890.529701,4479.363907,-8422.735552
374.303055,4383.651003,3426.521963,-9169.296203
374.306300,2373.680019,478.564520,-9954.142016
374.309545,-95.712904,-708.275490,-9341.579430
374.312791,-1416.550979,2603.390989,-9896.714274
374.316036,-899.701298,0.000000,-9839.286531
374.319281,-363.709035,1512.263883,-8595.018779
374.322526,440.279358,1014.556782,-10126.425243
374.325771,1741.974853,555.134843,-10011.569758
374.329016,2354.537438,995.414202,-8901.300072
374.332261,612.562586,-746.560651,-9801.001370
374.335506,842.273555,1110.269686,-9188.438784
374.338732,-593.420005,95.712904,-10413.563955
374.341957,-267.996131,1761.117434,-9418.149754
374.345183,-535.992262,0.000000,-9399.007173
374.348409,57.427742,1684.547110,-9533.005238
374.351635,957.129040,1473.978722,-9839.286531
374.354861,3196.810994,1186.840010,-9284.151688
374.358087,2354.537438,325.423874,-9111.868461
374.361313,-727.418070,210.568389,-10088.140082
374.364538,-459.421939,2067.398726,-9724.431046
374.367764,-325.423874,2622.533570,-9513.862658
374.370990,1129.412267,1933.400661,-8920.442653
374.374216,1952.543242,-669.990328,-10336.993632
374.377442,899.701298,727.418070,-9954.142016
374.380668,-1856.830338,2277.967115,-8518.448456
374.383893,-784.845813,-38.285162,-9379.864592
374.387119,1186.840010,-823.130974,-9437.292334
374.390345,1473.978722,-1186.840010,-10470.991698
374.393571,-421.136778,2928.814862,-9533.005238
374.396797,-727.418070,-325.423874,-9226.723946
374.400023,191.425808,2086.541307,-9245.866526
374.403248,1550.549045,172.283227,-10796.415571
374.406474,1799.402595,-38.285162,-9035.298138
374.409700,1225.125171,574.277424,-8863.014910
374.412926,-765.703232,191.425808,-10432.706536
374.416152,-689.132909,1320.838075,-9533.005238
374.419378,-708.275490,287.138712,-9781.858789
374.422603,-95.712904,1971.685822,-9150.153622
374.425829,478.564520,-497.707101,-10336.993632
374.429055,1473.978722,861.416136,-9360.722011
374.432281,784.845813,1186.840010,-9207.581365
374.435507,191.425808,516.849682,-9150.153622
374.438733,823.130974,497.707101,-9284.151688
374.441968,-1569.691626,-3024.527766,-11064.411702
374.445201,-2526.820666,689.132909,-9552.147819
374.448433,-1665.404530,1397.408398,-9437.292334
374.451666,1148.554848,2431.107762,-9169.296203
374.454898,4670.789715,57.427742,-9877.571693
374.458130,3828.516160,1512.263883,-9609.575562
374.461363,746.560651,5532.205851,-8480.163294
374.464595,-1071.984525,-267.996131,-10068.997501
374.467827,-555.134843,2718.246474,-8863.014910
374.471060,57.427742,-344.566454,-11045.269122
374.474292,1033.699363,2297.109696,-8824.729749
374.477525,1473.978722,-344.566454,-8920.442653
374.480757,1761.117434,1244.267752,-9973.284597
374.483989,2029.113565,-344.566454,-9896.714274
374.487222,899.701298,421.136778,-8920.442653
374.490454,57.427742,306.281293,-9667.003304
374.493687,-842.273555,1378.265818,-9973.284597
374.496919,133.998066,1435.693560,-9858.429112
374.500151,57.427742,401.994197,-9245.866526
374.503384,1435.693560,1416.550979,-9284.151688
374.506616,1320.838075,287.138712,-10126.425243
374.509849,2258.824534,2182.254211,-8920.442653
374.513081,1186.840010,287.138712,-9628.718142
374.516313,-631.705166,574.277424,-9801.001370
374.519546,-861.416136,1110.269686,-9992.427178
374.522778,-497.707101,2469.392923,-9686.145885
374.526011,1914.258080,3024.527766,-8729.016845
374.529243,3292.523898,-1454.836141,-10202.995566
374.532475,1378.265818,0.000000,-9820.143950
374.535708,-2947.957443,-114.855485,-9762.716208
374.538940,-2239.681954,1186.840010,-9092.725880
374.542172,727.418070,-1110.269686,-9513.862658
374.545387,1493.121302,-401.994197,-10375.278794
374.548602,95.712904,574.277424,-9992.427178
374.551817,-918.843878,650.847747,-8633.303941
374.555032,937.986459,2124.826469,-9533.005238
374.558247,1378.265818,-803.988394,-10451.849117
374.561462,459.421939,1359.123237,-8748.159426
374.564677,1071.984525,-497.707101,-9915.856854
374.567892,-459.421939,2105.683888,-9647.860723
374.571107,-210.568389,19.142581,-9973.284597
374.574322,-325.423874,708.275490,-9475.577496
374.577537,516.849682,842.273555,-9743.573627
374.580752,535.992262,880.558717,-9456.434915
374.583967,1761.117434,1320.838075,-9341.579430
374.587182,344.566454,-1263.410333,-10030.712339
374.590397,-1186.840010,-650.847747,-9552.147819
374.593612,-1914.258080,-114.855485,-10068.997501
374.596827,-2297.109696,1818.545176,-9513.862658
374.600042,-76.570323,1339.980656,-9284.151688
374.603257,1110.269686,-2258.824534,-10126.425243
374.606472,2124.826469,-229.710970,-9590.432981
374.609687,3541.377448,2775.674216,-9360.722011
374.612902,2067.398726,4498.506488,-8939.585234
374.616117,1071.984525,-19.142581,-9915.856854
374.619332,-669.990328,593.420005,-9245.866526
374.622531,-555.134843,1129.412267,-10202.995566
374.625731,114.855485,1933.400661,-10011.569758
374.628931,2009.970984,172.283227,-8575.876198
374.632131,1703.689691,1167.697429,-9724.431046
374.635331,2373.680019,153.140646,-10222.138147
374.638531,803.988394,382.851616,-9341.579430
374.641731,-861.416136,746.560651,-9245.866526
374.644930,-823.130974,1091.127106,-9839.286531
374.648130,-1225.125171,1761.117434,-10107.282662
374.651330,133.998066,497.707101,-9437.292334
374.654530,1990.828403,976.271621,-9265.009107
374.657730,1320.838075,-267.996131,-9743.573627
374.660930,1301.695494,1933.400661,-9571.290400
374.664130,1646.261949,1263.410333,-9418.149754
374.667329,861.416136,1741.974853,-9245.866526
374.670529,153.140646,612.562586,-10049.854920
374.673729,-1550.549045,1282.552914,-9858.429112
374.676929,2124.826469,4173.082614,-8633.303941
374.680129,2545.963246,2220.539373,-9265.009107
374.683329,1397.408398,-114.855485,-9571.290400
374.686529,-2833.101958,-1875.972918,-10375.278794
374.689729,-2775.674216,382.851616,-9303.294269
374.692928,-248.853550,-153.140646,-9131.011042
374.696128,1052.841944,612.562586,-9973.284597
374.699328,-191.425808,114.855485,-10183.852986
374.702528,382.851616,440.279358,-8709.874264
374.705728,1761.117434,1856.830338,-9475.577496
374.708928,880.558717,-497.707101,-10470.991698
374.712128,593.420005,1014.556782,-8499.305875
374.715327,459.421939,-535.992262,-9954.142016
374.718527,-669.990328,2029.113565,-9877.571693
374.721727,-1990.828403,-440.279358,-9801.001370
374.724914,229.710970,1875.972918,-9111.868461
374.728101,1454.836141,631.705166,-9915.856854
374.731288,2373.680019,803.988394,-9513.862658
374.734475,746.560651,-1818.545176,-9667.003304
374.737662,-1301.695494,-1531.406464,-10145.567824
374.740849,-1244.267752,2603.390989,-9379.864592
374.744037,-497.707101,555.134843,-9552.147819
374.747224,-229.710970,-76.570323,-9494.720077
374.750411,-823.130974,-2201.396792,-10566.704602
374.753598,1493.121302,1722.832272,-9341.579430
374.756785,4211.367776,3043.670347,-8461.020714
374.759972,3943.371645,1684.547110,-9092.725880
374.763159,650.847747,1416.550979,-9781.858789
374.766346,19.142581,-1282.552914,-9533.005238
374.769533,-1263.410333,3637.090352,-9360.722011
374.772720,-76.570323,-957.129040,-11179.267187
374.775907,1129.412267,2660.818731,-8097.311678
374.779094,1397.408398,-650.847747,-10145.567824
374.782281,2737.389054,1990.828403,-9590.432981
374.785468,1435.693560,-1129.412267,-9686.145885
374.788655,76.570323,1493.121302,-9379.864592
374.791842,-612.562586,325.423874,-9628.718142
374.795029,-880.558717,1071.984525,-9762.716208
374.798216,-746.560651,1684.547110,-9820.143950
374.801403,535.992262,210.568389,-9552.147819
374.804590,2220.539373,746.560651,-9131.011042
374.807778,2258.824534,-114.855485,-10011.569758
374.810965,1033.699363,1531.406464,-9265.009107
374.814152,1397.408398,2947.957443,-8882.157491
374.817339,650.847747,1780.260014,-9494.720077
374.820526,-708.275490,210.568389,-10088.140082
374.823713,153.140646,1875.972918,-9762.716208
374.826912,2584.248408,3445.664544,-8767.302006
374.830111,76.570323,1282.552914,-9418.149754
374.833310,-1129.412267,-2603.390989,-10317.851051
374.836509,-172.283227,-2947.957443,-9877.571693
374.839708,57.427742,-803.988394,-9571.290400
374.842907,-516.849682,2718.246474,-9437.292334
374.846106,-937.986459,-727.418070,-10145.567824
374.849305,191.425808,1837.687757,-8977.870395
374.852504,1205.982590,-76.570323,-10336.993632
374.855704,1091.127106,1607.976787,-9073.583299
374.858903,1665.404530,-229.710970,-9456.434915
374.862102,1263.410333,1339.980656,-9475.577496
374.865301,-516.849682,-823.130974,-10068.997501
374.868500,-363.709035,2392.822600,-9131.011042
374.871699,-593.420005,574.277424,-9858.429112
374.874898,382.851616,535.992262,-9360.722011
374.878097,-861.416136,-1397.408398,-10164.710405
374.881296,172.283227,401.994197,-9724.431046
374.884495,1263.410333,1665.404530,-9016.155557
374.887694,344.566454,-1722.832272,-10126.425243
374.890893,-2143.969050,-1550.549045,-9590.432981
374.894092,-2143.969050,-803.988394,-10528.419440
374.897292,-650.847747,3101.098090,-8939.585234
374.900491,2986.242605,1550.549045,-9150.153622
374.903690,4728.217458,1722.832272,-10011.569758
374.906889,1895.115499,4689.932296,-8824.729749
374.910088,478.564520,-937.986459,-9341.579430
374.913287,-19.142581,2488.535504,-8748.159426
374.916486,-516.849682,-1052.841944,-11198.409768
374.919685,19.142581,2699.103893,-8997.012976
374.922884,-287.138712,-689.132909,-9131.011042
374.926083,421.136778,2813.959378,-9552.147819
374.954967,784.845813,1397.408398,-9647.860723
374.958176,1225.125171,3732.803256,-8729.016845
374.961386,708.275490,689.132909,-9858.429112
374.964595,-823.130974,784.845813,-9647.860723
374.967804,861.416136,2584.248408,-9628.718142
374.971014,1416.550979,3349.951640,-8958.727814
374.974223,1014.556782,1033.699363,-9073.583299
374.977432,-1895.115499,-3024.527766,-10470.991698
374.980642,-1493.121302,-1071.984525,-9533.005238
374.983851,-172.283227,-880.558717,-9801.001370
374.987060,-1129.412267,3349.951640,-9322.436850
374.990270,-287.138712,-1052.841944,-10088.140082
374.993479,574.277424,2775.674216,-8729.016845
374.996688,1454.836141,-861.416136,-10662.417506
374.999898,1167.697429,1856.830338,-8977.870395
375.003107,765.703232,-708.275490,-9552.147819
375.006316,1244.267752,1818.545176,-9092.725880
375.009526,-191.425808,-76.570323,-10068.997501
375.012735,-1129.412267,861.416136,-9934.999435
375.015944,-440.279358,1665.404530,-9150.153622
375.019153,-459.421939,1282.552914,-9513.862658
375.022363,401.994197,535.992262,-9647.860723
375.025572,612.562586,-1646.261949,-9934.999435
375.028781,-478.564520,-287.138712,-9590.432981
375.032000,-957.129040,1856.830338,-9073.583299
375.035219,210.568389,1722.832272,-9341.579430
375.038437,-497.707101,-2009.970984,-10317.851051
375.041656,76.570323,-1052.841944,-10088.140082
375.044875,3235.096155,3541.377448,-8882.157491
375.048094,3656.232933,3330.809059,-9494.720077
375.051312,1244.267752,2277.967115,-9379.864592
375.054531,1205.982590,-1990.828403,-9284.151688
375.057750,440.279358,2794.816797,-9513.862658
375.060968,-401.994197,-287.138712,-10872.985894
375.064187,-421.136778,2335.394858,-8250.452325
375.067406,-689.132909,-267.996131,-10126.425243
375.070624,440.279358,2220.539373,-9801.001370
375.073843,1646.261949,631.705166,-9533.005238
375.077062,1875.972918,287.138712,-9226.723946
375.080280,1148.554848,516.849682,-9418.149754
375.083499,-535.992262,459.421939,-10202.995566
375.086718,-401.994197,2048.256146,-9360.722011
375.089936,114.855485,842.273555,-9494.720077
375.093155,1225.125171,746.560651,-9552.147819
375.096374,823.130974,2009.970984,-9743.573627
375.099593,2660.818731,3120.240670,-9111.868461
375.102811,2928.814862,2871.387120,-8652.446522
375.106030,1646.261949,-1033.699363,-9973.284597
375.109249,-19.142581,1110.269686,-9992.427178
375.112467,-210.568389,2450.250342,-9513.862658
375.115686,-1320.838075,1780.260014,-9111.868461
375.118905,-3215.953574,-1856.830338,-10126.425243
375.122123,1033.699363,-2775.674216,-10298.708470
375.125342,2316.252277,-306.281293,-9360.722011
375.128561,918.843878,1454.836141,-9762.716208
375.131779,38.285162,-918.843878,-9513.862658
375.134983,784.845813,727.418070,-9552.147819
375.138187,-1052.841944,1225.125171,-10604.989763
375.141391,-1301.695494,708.275490,-9265.009107
375.144595,937.986459,1493.121302,-8997.012976
375.147799,1416.550979,-382.851616,-10241.280728
375.151003,1454.836141,1397.408398,-9226.723946
375.154207,1722.832272,-287.138712,-9781.858789
375.157411,1244.267752,861.416136,-9284.151688
375.160615,-2009.970984,-842.273555,-9705.288466
375.163819,-2086.541307,172.283227,-10088.140082
375.167023,-1359.123237,2603.390989,-9360.722011
375.170227,-172.283227,38.285162,-9571.290400
375.173431,153.140646,-1110.269686,-9552.147819
375.176635,459.421939,-19.142581,-9954.142016
375.179839,995.414202,2565.105827,-9073.583299
375.183043,2545.963246,1110.269686,-8958.727814
375.186247,2947.957443,1875.972918,-9896.714274
375.189451,-401.994197,4709.074877,-9456.434915
375.192655,-1091.127106,-555.134843,-9762.716208
375.195859,172.283227,2699.103893,-8499.305875
375.199062,1282.552914,-765.703232,-11026.126541
375.202266,1167.697429,2584.248408,-8441.878133
375.205470,1569.691626,-1339.980656,-9322.436850
375.208674,1033.699363,1569.691626,-9954.142016
375.211878,-650.847747,38.285162,-9896.714274
375.215082,-401.994197,2048.256146,-9245.866526
375.218286,-344.566454,191.425808,-9705.288466
375.221490,0.000000,918.843878,-9513.862658
375.224694,1607.976787,1225.125171,-9839.286531
375.227898,2622.533570,918.843878,-9322.436850
375.231102,1703.689691,0.000000,-9418.149754
375.234306,-669.990328,1110.269686,-9724.431046
375.237520,95.712904,3503.092286,-9322.436850
375.240735,669.990328,2679.961312,-9456.434915
375.243949,401.994197,-363.709035,-9552.147819
375.247163,1129.412267,1301.695494,-9743.573627
375.250378,650.847747,1435.693560,-10011.569758
375.253592,-57.427742,2622.533570,-8518.448456
375.256806,-2124.826469,-2450.250342,-9934.999435
375.260020,-325.423874,-1971.685822,-10088.140082
375.263235,325.423874,-803.988394,-9858.429112
375.266449,-957.129040,3196.810994,-9628.718142
375.269663,-1282.552914,-746.560651,-9513.862658
375.272878,861.416136,2067.398726,-8767.302006
375.276092,1378.265818,631.705166,-10777.272990
375.279306,1301.695494,497.707101,-9284.151688
375.282521,631.705166,401.994197,-8729.016845
375.285735,1493.121302,765.703232,-10011.569758
375.288949,-133.998066,1301.695494,-9801.001370
375.292163,-1205.982590,-248.853550,-9781.858789
375.295378,191.425808,2220.539373,-8977.870395
375.298592,535.992262,133.998066,-9628.718142
375.301806,497.707101,-459.421939,-9877.571693
375.305021,172.283227,-1550.549045,-9820.143950
375.308235,-287.138712,344.566454,-9322.436850
375.311449,133.998066,1397.408398,-9111.868461
375.314664,-765.703232,-2756.531635,-10777.272990
375.317878,210.568389,-765.703232,-10049.854920
375.321092,1990.828403,2277.967115,-9226.723946
375.324306,1914.258080,4268.795518,-9360.722011
375.327521,1378.265818,3503.092286,-9743.573627
375.330735,2029.113565,-2182.254211,-9418.149754
375.333949,2258.824534,1933.400661,-8882.157491
375.337164,880.558717,-459.421939,-10872.985894
375.340387,-746.560651,1684.547110,-8690.731683
375.343610,-516.849682,-38.285162,-9437.292334
375.346833,57.427742,2507.678085,-10164.710405
375.350057,-267.996131,344.566454,-9571.290400
375.353280,1493.121302,1454.836141,-9073.583299
375.356503,2182.254211,153.140646,-9915.856854
375.359726,1531.406464,842.273555,-9609.575562
375.362949,478.564520,306.281293,-9609.575562
375.366173,1186.840010,210.568389,-9647.860723
375.369396,-1186.840010,1837.687757,-9552.147819
375.372619,516.849682,3598.805190,-9150.153622
375.375842,1588.834206,2048.256146,-9399.007173
375.379065,1627.119368,-401.994197,-9858.429112
375.382289,1627.119368,1110.269686,-9762.716208
375.385512,2201.396792,2565.105827,-9131.011042
375.388735,-172.283227,957.129040,-9284.151688
375.417744,440.279358,1052.841944,-8709.874264
375.420967,1914.258080,689.132909,-9379.864592
375.424190,957.129040,344.566454,-9973.284597
375.427413,1282.552914,669.990328,-9131.011042
375.430637,1512.263883,229.710970,-9743.573627
375.433860,-1416.550979,-153.140646,-9552.147819
375.437083,-2220.539373,-842.273555,-9934.999435
375.440306,-516.849682,1761.117434,-9705.288466
375.443526,-1110.269686,2201.396792,-9131.011042
375.446757,995.414202,-1014.556782,-9590.432981
375.449988,325.423874,-1435.693560,-9877.571693
375.453219,880.558717,1531.406464,-9609.575562
375.456450,2603.390989,2603.390989,-8958.727814
375.459681,2584.248408,2852.244539,-9073.583299
375.462912,57.427742,3426.521963,-10107.282662
375.466143,-612.562586,-823.130974,-9724.431046
375.469374,153.140646,1952.543242,-8671.589102
375.472605,57.427742,-248.853550,-11217.552349
375.475836,421.136778,1014.556782,-8690.731683
375.479067,1607.976787,382.851616,-8977.870395
375.482298,1186.840010,-210.568389,-10681.560086
375.485529,-593.420005,1512.263883,-9437.292334
375.488760,-727.418070,-38.285162,-9571.290400
375.491991,-19.142581,1990.828403,-9533.005238
375.495222,-382.851616,382.851616,-10011.569758
375.498453,2048.256146,1282.552914,-9399.007173
375.501684,2756.531635,516.849682,-9475.577496
375.504915,363.709035,727.418070,-9552.147819
375.508146,1320.838075,2450.250342,-9073.583299
375.511377,1244.267752,2163.111630,-9552.147819
375.514608,57.427742,306.281293,-9762.716208
375.517839,-363.709035,669.990328,-9896.714274
375.546981,363.709035,-325.423874,-10738.987829
375.550218,1129.412267,2182.254211,-8958.727814
375.553456,2182.254211,-708.275490,-9475.577496
375.556694,1244.267752,555.134843,-9533.005238
375.559932,899.701298,-133.998066,-9801.001370
375.563170,746.560651,612.562586,-9762.716208
375.566408,-1722.832272,-306.281293,-9513.862658
375.569646,-2163.111630,-1033.699363,-10030.712339
375.572884,-76.570323,2335.394858,-9513.862658
375.576122,-325.423874,1780.260014,-9399.007173
375.579360,1531.406464,-669.990328,-9341.579430
375.582597,133.998066,-1818.545176,-9896.714274
375.585835,76.570323,1761.117434,-9590.432981
375.589073,1914.258080,2794.816797,-8939.585234
375.592311,2756.531635,1780.260014,-9360.722011
375.595549,-440.279358,3694.518094,-9801.001370
375.598787,-899.701298,-765.703232,-9992.427178
375.602025,516.849682,2833.101958,-8575.876198
375.605263,1569.691626,-57.427742,-10796.415571
375.608501,1167.697429,1741.974853,-8499.305875
375.611739,1588.834206,-861.416136,-9245.866526
375.614976,1378.265818,1512.263883,-10317.851051
375.618214,-765.703232,478.564520,-9801.001370
375.621452,-957.129040,842.273555,-9111.868461
375.624673,401.994197,1550.549045,-9686.145885
375.627894,-1225.125171,650.847747,-9934.999435
375.631115,2488.535504,1952.543242,-9150.153622
375.634336,3101.098090,612.562586,-9341.579430
375.637556,1205.982590,95.712904,-9609.575562
375.640777,-440.279358,1531.406464,-9896.714274
375.643998,-689.132909,2220.539373,-9590.432981
375.647219,76.570323,2699.103893,-9150.153622
375.650440,880.558717,-478.564520,-10126.425243
375.653661,861.416136,1167.697429,-9705.288466
375.656882,-287.138712,1435.693560,-9858.429112
375.660102,-1780.260014,-133.998066,-9131.011042
375.663323,1627.119368,-1397.408398,-9437.292334
375.666544,1588.834206,-19.142581,-10107.282662
375.669765,-421.136778,2258.824534,-9724.431046
375.672986,-19.142581,-497.707101,-8958.727814
375.676207,-593.420005,1569.691626,-9954.142016
375.679427,-38.285162,497.707101,-10643.274925
375.682648,1473.978722,1703.689691,-8575.876198
375.685869,2009.970984,-1014.556782,-9571.290400
375.689090,421.136778,1416.550979,-9647.860723
375.692311,555.134843,-363.709035,-10011.569758
375.695532,-1703.689691,114.855485,-9590.432981
375.698752,-1837.687757,689.132909,-9513.862658
375.701973,459.421939,880.558717,-9667.003304
375.705194,899.701298,-1148.554848,-9954.142016
375.708415,-76.570323,-2143.969050,-10145.567824
375.711636,440.279358,1129.412267,-9341.579430
375.714857,842.273555,1493.121302,-9188.438784
375.718077,2431.107762,191.425808,-9762.716208
375.721298,2239.681954,1550.549045,-9934.999435
375.724519,803.988394,4019.941968,-9131.011042
375.727725,-1473.978722,2335.394858,-9360.722011
375.730931,287.138712,-555.134843,-9494.720077
375.734137,1818.545176,2354.537438,-9686.145885
375.737344,1588.834206,-1129.412267,-10202.995566
375.740550,401.994197,1703.689691,-8269.594906
375.743756,1359.123237,-363.709035,-10490.134278
375.746962,-248.853550,2105.683888,-9973.284597
375.750168,-1014.556782,-229.710970,-9494.720077
375.753374,210.568389,1837.687757,-9054.440718
375.756580,555.134843,612.562586,-10222.138147
375.759786,1512.263883,2201.396792,-9494.720077
375.762992,3024.527766,1071.984525,-9035.298138
375.766198,1971.685822,-784.845813,-9667.003304
375.769405,-38.285162,1607.976787,-9801.001370
375.772611,-306.281293,2545.963246,-9743.573627
375.775817,-114.855485,3235.096155,-8843.872330
375.779023,803.988394,-153.140646,-9896.714274
375.782229,459.421939,535.992262,-10183.852986
375.785435,-574.277424,1818.545176,-9131.011042
375.788641,-1799.402595,-995.414202,-9399.007173
375.791847,1607.976787,-689.132909,-9073.583299
375.795053,2565.105827,-918.843878,-10260.423309
375.798259,-57.427742,2526.820666,-9915.856854
375.801466,-1091.127106,-1550.549045,-9303.294269
375.804672,-306.281293,2565.105827,-8824.729749
375.807878,-669.990328,-382.851616,-11408.978157
375.811084,478.564520,2163.111630,-8384.450390
375.814290,2124.826469,-803.988394,-9303.294269
375.817496,1607.976787,689.132909,-9915.856854
375.820702,842.273555,1435.693560,-9839.286531
375.823908,-2029.113565,-1014.556782,-9820.143950
375.827114,-2086.541307,-344.566454,-9418.149754
375.830330,-1473.978722,937.986459,-10049.854920
375.833546,76.570323,2526.820666,-9054.440718
375.836762,1684.547110,-976.271621,-9341.579430
375.839978,1282.552914,-1856.830338,-10068.997501
375.843194,1225.125171,689.132909,-9379.864592
375.846410,2584.248408,2143.969050,-9265.009107
375.849626,2124.826469,3254.238736,-9207.581365
375.852842,-133.998066,2450.250342,-9877.571693
375.856058,-363.709035,38.285162,-9533.005238
375.859274,-344.566454,1339.980656,-9322.436850
375.862489,669.990328,1339.980656,-10585.847182
375.865705,1263.410333,-497.707101,-9035.298138
375.868921,1550.549045,1186.840010,-8805.587168
375.872137,191.425808,-57.427742,-10528.419440
375.875353,612.562586,1359.123237,-9360.722011
375.878569,-708.275490,631.705166,-9571.290400
375.881785,-708.275490,1263.410333,-9379.864592
375.885001,1550.549045,1454.836141,-9533.005238
375.888217,2718.246474,689.132909,-10030.712339
375.891433,1397.408398,1186.840010,-9265.009107
375.894649,1569.691626,1378.265818,-9245.866526
375.897864,1761.117434,2928.814862,-9303.294269
375.901080,133.998066,-57.427742,-10068.997501
375.904296,-516.849682,344.566454,-9973.284597
375.933313,1435.693560,-497.707101,-9743.573627
375.936537,-459.421939,861.416136,-10413.563955
375.939761,-1129.412267,708.275490,-9379.864592
375.942985,-210.568389,689.132909,-9456.434915
375.946209,-76.570323,1225.125171,-9628.718142
375.949433,-248.853550,612.562586,-10011.569758
375.952657,1167.697429,1301.695494,-9016.155557
375.955881,1416.550979,-1378.265818,-9590.432981
375.959105,-1225.125171,-2009.970984,-10183.852986
375.962329,-1473.978722,-1110.269686,-10011.569758
375.965553,-497.707101,2258.824534,-9322.436850
375.968777,-229.710970,-1071.984525,-9762.716208
375.972001,861.416136,-1397.408398,-10183.852986
375.975225,3158.525832,1990.828403,-9590.432981
375.978449,2871.387120,3101.098090,-9207.581365
375.981673,1454.836141,3177.668413,-8901.300072
375.984897,1301.695494,-2565.105827,-9992.427178
375.988121,535.992262,2565.105827,-9322.436850
375.991345,-363.709035,-19.142581,-10758.130410
375.994569,-995.414202,2105.683888,-8671.589102
375.997793,-535.992262,-248.853550,-9934.999435
376.001017,516.849682,2565.105827,-9992.427178
376.004241,1665.404530,382.851616,-9590.432981
376.007465,1493.121302,38.285162,-9111.868461
376.010689,746.560651,325.423874,-9533.005238
376.013913,1244.267752,267.996131,-10298.708470
376.017137,-631.705166,2316.252277,-9456.434915
376.020361,440.279358,2182.254211,-9035.298138
376.023585,1493.121302,803.988394,-9762.716208
376.026809,765.703232,1320.838075,-9915.856854
376.030033,2411.965181,2890.529701,-8958.727814
376.033257,2545.963246,2718.246474,-8652.446522
376.036489,823.130974,-248.853550,-9686.145885
376.039721,-2431.107762,-248.853550,-10088.140082
376.042953,-3751.945837,-708.275490,-9724.431046
376.046185,-689.132909,-459.421939,-9169.296203
376.049417,-995.414202,2124.826469,-9686.145885
376.052648,210.568389,440.279358,-10432.706536
376.055880,1646.261949,516.849682,-8499.305875
376.059112,1703.689691,-114.855485,-9686.145885
376.062344,1186.840010,650.847747,-10068.997501
376.065576,459.421939,229.710970,-9322.436850
376.068808,-669.990328,593.420005,-9456.434915
376.072040,-19.142581,1071.984525,-9820.143950
376.075271,-976.271621,-153.140646,-10145.567824
376.078503,57.427742,-363.709035,-9475.577496
376.081735,440.279358,995.414202,-9341.579430
376.084967,1071.984525,1205.982590,-9341.579430
376.088199,516.849682,-803.988394,-9724.431046
376.091431,-1167.697429,-440.279358,-10049.854920
376.094662,-421.136778,2584.248408,-9188.438784
376.097894,1397.408398,3235.096155,-9016.155557
376.101126,2105.683888,2258.824534,-9705.288466
376.104358,1359.123237,3120.240670,-9686.145885
376.107590,1244.267752,421.136778,-9284.151688
376.110822,497.707101,535.992262,-8863.014910
376.114054,1014.556782,-57.427742,-10700.702667
376.117285,-95.712904,689.132909,-9609.575562
376.120517,-421.136778,574.277424,-8805.587168
376.123749,-38.285162,1397.408398,-10145.567824
376.126981,344.566454,1071.984525,-10088.140082
376.130213,1512.263883,133.998066,-9054.440718
376.133445,1875.972918,823.130974,-9322.436850
376.136677,1837.687757,459.421939,-9781.858789
376.139915,1091.127106,1761.117434,-9590.432981
376.143153,555.134843,1339.980656,-9418.149754
376.146392,344.566454,172.283227,-9877.571693
376.149630,-1205.982590,880.558717,-9954.142016
376.152869,784.845813,3445.664544,-9188.438784
376.156107,2411.965181,1780.260014,-9226.723946
376.159346,1512.263883,-727.418070,-9781.858789
376.162584,-1684.547110,0.000000,-9628.718142
376.165823,-2067.398726,-1148.554848,-9647.860723
376.169061,-497.707101,-421.136778,-9418.149754
376.172300,-401.994197,1339.980656,-9647.860723
376.175538,306.281293,1071.984525,-10107.282662
376.178777,861.416136,631.705166,-8901.300072
376.182015,1263.410333,727.418070,-9820.143950
376.185254,1378.265818,535.992262,-10202.995566
376.188492,1091.127106,344.566454,-8977.870395
376.191731,-114.855485,38.285162,-9456.434915
376.194969,-153.140646,1359.123237,-9839.286531
376.198207,-1091.127106,784.845813,-9877.571693
376.201446,-1493.121302,-937.986459,-9552.147819
376.204684,-1033.699363,-172.283227,-9667.003304
376.207923,746.560651,1531.406464,-9437.292334
376.211161,1837.687757,76.570323,-9303.294269
376.214400,-191.425808,-1741.974853,-10164.710405
376.217638,765.703232,-401.994197,-9781.858789
376.220877,1110.269686,3081.955509,-9322.436850
376.224115,861.416136,2871.387120,-9647.860723
376.227354,267.996131,2603.390989,-9667.003304
376.230592,899.701298,-1110.269686,-9571.290400
376.233831,1263.410333,2029.113565,-9341.579430
376.237069,1397.408398,-38.285162,-10643.274925
376.240308,535.992262,727.418070,-8882.157491
376.243552,172.283227,421.136778,-8920.442653
376.246797,0.000000,1512.263883,-10164.710405
376.250041,-612.562586,1033.699363,-9858.429112
376.253286,-803.988394,459.421939,-9169.296203
376.256530,1914.258080,2143.969050,-9284.151688
376.259775,2641.676150,612.562586,-9858.429112
376.263019,861.416136,861.416136,-9437.292334
376.266264,1186.840010,976.271621,-9360.722011
376.269508,1378.265818,2813.959378,-9188.438784
376.272753,-133.998066,555.134843,-9915.856854
376.275997,-516.849682,440.279358,-10107.282662
376.279242,516.849682,1454.836141,-9533.005238
376.282486,-957.129040,2067.398726,-9150.153622
376.285731,-76.570323,-497.707101,-9667.003304
376.288975,1091.127106,-2928.814862,-10107.282662
376.292220,1378.265818,-1493.121302,-9686.145885
376.295464,-784.845813,2565.105827,-9533.005238
376.298709,-593.420005,-95.712904,-9743.573627
376.301953,-727.418070,1627.119368,-9111.868461
376.305198,153.140646,421.136778,-10260.423309
376.308443,861.416136,1703.689691,-9533.005238
376.311687,1550.549045,-516.849682,-9207.581365
376.314932,2201.396792,861.416136,-9494.720077
376.318176,57.427742,-1014.556782,-10030.712339
376.321421,-1665.404530,-248.853550,-9915.856854
376.324665,-1416.550979,1569.691626,-9284.151688
376.327910,-497.707101,440.279358,-9418.149754
376.331154,-306.281293,-382.851616,-9762.716208
376.334399,363.709035,-478.564520,-10145.567824
376.337643,2316.252277,2392.822600,-8882.157491
376.340888,3158.525832,1512.263883,-8920.442653
376.344132,1914.258080,2124.826469,-9877.571693
376.347358,555.134843,2297.109696,-9839.286531
376.350584,-631.705166,708.275490,-9379.864592
376.353811,-593.420005,1703.689691,-9035.298138
376.357037,765.703232,823.130974,-10585.847182
376.360263,1416.550979,708.275490,-9494.720077
376.363489,1837.687757,421.136778,-8748.159426
376.366715,995.414202,248.853550,-9954.142016
376.369941,516.849682,899.701298,-9973.284597
376.373167,-765.703232,1052.841944,-9533.005238
376.376393,497.707101,1244.267752,-9111.868461
376.379619,746.560651,1627.119368,-9820.143950
376.382845,153.140646,650.847747,-10068.997501
376.386071,1722.832272,2699.103893,-8920.442653
376.389297,2833.101958,1952.543242,-8958.727814
376.392523,803.988394,-325.423874,-9762.716208
376.395750,-459.421939,1033.699363,-10183.852986
376.398976,-784.845813,1186.840010,-9628.718142
376.402202,-1761.117434,1971.685822,-9092.725880
376.405428,-1818.545176,-803.988394,-9877.571693
376.408654,57.427742,-1971.685822,-10336.993632
376.411880,2258.824534,-1741.974853,-9724.431046
376.415106,1320.838075,2239.681954,-9245.866526
376.418332,593.420005,-1627.119368,-9801.001370
376.421558,612.562586,2392.822600,-8901.300072
376.424784,-497.707101,344.566454,-10834.700733
376.428010,-708.275490,1129.412267,-9092.725880
376.431236,-401.994197,267.996131,-9571.290400
376.434462,57.427742,1722.832272,-9934.999435
376.437689,1071.984525,1129.412267,-9131.011042
376.440915,555.134843,-2335.394858,-9877.571693
376.444141,-995.414202,210.568389,-9513.862658
376.447367,-1359.123237,1895.115499,-9418.149754
376.476483,1110.269686,1531.406464,-10604.989763
376.479716,1933.400661,-459.421939,-9533.005238
376.482950,1378.265818,957.129040,-8403.592971
376.486183,38.285162,-306.281293,-10738.987829
376.489417,172.283227,1684.547110,-9628.718142
376.492650,-1378.265818,210.568389,-9762.716208
376.495883,612.562586,2373.680019,-9226.723946
376.499117,1837.687757,937.986459,-9513.862658
376.502350,1646.261949,-95.712904,-9877.571693
376.505583,2067.398726,1627.119368,-9399.007173
376.508817,1569.691626,1569.691626,-9494.720077
376.512050,133.998066,976.271621,-9245.866526
376.515284,-363.709035,-191.425808,-10394.421374
376.518517,-325.423874,2009.970984,-9762.716208
376.521750,-1320.838075,1550.549045,-9054.440718
376.524984,-784.845813,-650.847747,-9667.003304
376.528217,440.279358,-1780.260014,-9858.429112
376.531450,2239.681954,-2507.678085,-10126.425243
376.534684,-229.710970,3139.383251,-9092.725880
376.537917,-248.853550,-2048.256146,-9820.143950
376.541151,-746.560651,2679.961312,-8958.727814
376.544384,-248.853550,57.427742,-10777.272990
376.547617,555.134843,1875.972918,-9131.011042
376.550851,1588.834206,-497.707101,-9303.294269
376.554090,459.421939,172.283227,-10126.425243
376.557330,344.566454,1435.693560,-9494.720077
376.560570,306.281293,-650.847747,-9609.575562
376.563810,-1320.838075,-1895.115499,-9552.147819
376.567050,-2335.394858,-1263.410333,-10490.134278
376.570290,-650.847747,2067.398726,-9686.145885
376.573529,784.845813,803.988394,-9150.153622
376.576769,3254.238736,-995.414202,-9858.429112
376.580009,3273.381317,1856.830338,-9322.436850
376.583249,1263.410333,2679.961312,-9877.571693
376.586489,535.992262,1722.832272,-8901.300072
376.589728,-153.140646,-918.843878,-9322.436850
376.592968,76.570323,2373.680019,-9992.427178
376.596208,-344.566454,153.140646,-10356.136213
376.599448,114.855485,1722.832272,-8575.876198
376.602688,1856.830338,-555.134843,-9609.575562
376.605927,2182.254211,1703.689691,-9801.001370
376.609167,363.709035,-708.275490,-9839.286531
376.612407,1282.552914,1454.836141,-9092.725880
376.615647,401.994197,1359.123237,-9437.292334
376.618887,-593.420005,689.132909,-10164.710405
376.622126,-535.992262,1531.406464,-9533.005238
376.625366,1148.554848,1875.972918,-9418.149754
376.628606,2163.111630,1416.550979,-8977.870395
376.657816,1550.549045,2067.398726,-9150.153622
376.661061,612.562586,-727.418070,-10796.415571
376.664307,-306.281293,1856.830338,-8767.302006
376.667552,-19.142581,-95.712904,-9590.432981
376.670798,-1607.976787,-57.427742,-10068.997501
376.674043,-1818.545176,114.855485,-9801.001370
376.677289,363.709035,918.843878,-9571.290400
376.680534,1550.549045,344.566454,-8882.157491
376.683780,-114.855485,-2909.672282,-10241.280728
376.687025,-19.142581,1722.832272,-9724.431046
376.690271,1014.556782,2526.820666,-9092.725880
376.693516,1167.697429,1320.838075,-9169.296203
376.696762,1531.406464,2450.250342,-9513.862658
376.700007,1627.119368,3388.236802,-9820.143950
376.703253,861.416136,1301.695494,-9150.153622
376.706498,1320.838075,-1014.556782,-9016.155557
376.709744,1607.976787,689.132909,-10356.136213
376.712989,287.138712,-191.425808,-9877.571693
376.716235,-153.140646,2048.256146,-8499.305875
376.719480,-401.994197,267.996131,-10317.851051
376.722726,555.134843,1761.117434,-9724.431046
376.725971,1052.841944,133.998066,-9628.718142
376.729217,2411.965181,899.701298,-9360.722011
376.732462,1607.976787,1435.693560,-9418.149754
376.735712,1454.836141,1627.119368,-9533.005238
376.738963,765.703232,995.414202,-9686.145885
376.742213,-1110.269686,-267.996131,-10145.567824
376.745464,-612.562586,3158.525832,-9150.153622
376.748714,784.845813,2124.826469,-9360.722011
376.751964,1397.408398,172.283227,-9973.284597
376.755215,172.283227,-172.283227,-9418.149754
376.758465,-76.570323,-1339.980656,-9399.007173
376.761715,-19.142581,-689.132909,-9513.862658
376.764966,-76.570323,976.271621,-9934.999435
376.768216,-708.275490,1359.123237,-9743.573627
376.771467,363.709035,497.707101,-8958.727814
376.774717,-95.712904,1607.976787,-9743.573627
376.777967,708.275490,593.420005,-10260.423309
376.781218,1875.972918,689.132909,-8882.157491
376.784468,-76.570323,-746.560651,-9494.720077
376.787718,-823.130974,1301.695494,-9647.860723
376.790969,210.568389,612.562586,-9858.429112
376.794219,-1205.982590,-1933.400661,-9877.571693
376.797470,-2239.681954,-1378.265818,-9667.003304
376.800720,918.843878,1665.404530,-9705.288466
376.803970,2660.818731,172.283227,-9743.573627
376.807221,2603.390989,-708.275490,-9418.149754
376.810471,2526.820666,1071.984525,-9475.577496
376.813721,803.988394,3809.373579,-9552.147819
376.816972,-497.707101,1263.410333,-9858.429112
376.820222,-382.851616,669.990328,-9092.725880
376.823473,-38.285162,899.701298,-10317.851051
376.826723,-344.566454,1339.980656,-9781.858789
376.829973,1741.974853,650.847747,-9073.583299
376.833224,1780.260014,650.847747,-9571.290400
376.836474,861.416136,306.281293,-9590.432981
376.839705,1952.543242,689.132909,-9590.432981
376.842937,325.423874,363.709035,-10049.854920
376.846168,-612.562586,1761.117434,-9207.581365
376.849400,899.701298,2469.392923,-9188.438784
376.852631,2239.681954,708.275490,-10145.567824
376.855863,306.281293,248.853550,-9839.286531
376.859094,1512.263883,2220.539373,-8920.442653
376.862326,1627.119368,2163.111630,-9207.581365
376.865557,-248.853550,153.140646,-9992.427178
376.868789,-1741.974853,-306.281293,-10030.712339
376.872020,-2526.820666,-650.847747,-9590.432981
376.875251,-918.843878,382.851616,-9647.860723
376.878483,382.851616,1512.263883,-9801.001370
376.881714,2009.970984,535.992262,-9686.145885
376.884946,1512.263883,153.140646,-8786.444587
376.888177,-19.142581,248.853550,-9667.003304
376.891409,229.710970,1301.695494,-10088.140082
376.894640,-153.140646,746.560651,-9418.149754
376.897872,-1741.974853,-248.853550,-9303.294269
376.901103,-1129.412267,631.705166,-10088.140082
376.904334,1588.834206,1646.261949,-9820.143950
376.907566,1282.552914,861.416136,-8920.442653
376.910797,708.275490,-2488.535504,-9590.432981
376.914029,631.705166,842.273555,-9896.714274
376.917260,976.271621,2182.254211,-9590.432981
376.920492,1225.125171,-287.138712,-9609.575562
376.923723,497.707101,2067.398726,-9552.147819
376.926955,210.568389,3885.943902,-9781.858789
376.930186,708.275490,937.986459,-9628.718142
376.933418,2584.248408,1071.984525,-8575.876198
376.936649,1531.406464,-478.564520,-10241.280728
376.939880,57.427742,823.130974,-9590.432981
376.943118,95.712904,861.416136,-9571.290400
376.946355,-937.986459,823.130974,-9801.001370
376.949593,-861.416136,1473.978722,-9379.864592
376.952830,1780.260014,1244.267752,-9820.143950
376.956068,2928.814862,1225.125171,-9226.723946
376.959305,1971.685822,-344.566454,-9743.573627
376.962543,1646.261949,1627.119368,-9437.292334
376.965780,1205.982590,3062.812928,-9341.579430
376.994917,363.709035,1550.549045,-9686.145885
376.998155,478.564520,-325.423874,-9131.011042
377.001392,-191.425808,1091.127106,-9437.292334
377.004630,-708.275490,842.273555,-10662.417506
377.007867,-133.998066,1512.263883,-9207.581365
377.011105,114.855485,-133.998066,-9303.294269
377.014342,631.705166,516.849682,-9437.292334
377.017580,2086.541307,937.986459,-9762.716208
377.020817,382.851616,-2718.246474,-10107.282662
377.024055,-1741.974853,-1339.980656,-9609.575562
377.027292,-306.281293,1512.263883,-9552.147819
377.030530,631.705166,-401.994197,-10164.710405
377.033767,1416.550979,-555.134843,-9858.429112
377.037005,1684.547110,1301.695494,-9513.862658
377.040242,2182.254211,3771.088418,-9265.009107
377.043479,1473.978722,555.134843,-9820.143950
377.046722,210.568389,-287.138712,-9437.292334
377.049965,421.136778,210.568389,-10107.282662
377.053208,-689.132909,1397.408398,-9686.145885
377.056451,-689.132909,1052.841944,-9092.725880
377.059693,861.416136,784.845813,-9896.714274
377.062936,1263.410333,823.130974,-9552.147819
377.066179,2488.535504,1741.974853,-9303.294269
377.069422,2565.105827,957.129040,-9533.005238
377.072664,153.140646,19.142581,-9590.432981
377.075907,-57.427742,2622.533570,-9341.579430
377.079150,689.132909,2909.672282,-9399.007173
377.082393,-497.707101,765.703232,-9590.432981
377.085635,210.568389,-229.710970,-9992.427178
377.088878,1033.699363,2163.111630,-9437.292334
377.092121,1014.556782,1473.978722,-9111.868461
377.095364,-401.994197,-1780.260014,-9801.001370
377.098606,-191.425808,-1722.832272,-9858.429112
377.101849,669.990328,-267.996131,-9877.571693
377.105092,-440.279358,2431.107762,-9801.001370
377.108335,-153.140646,-191.425808,-9552.147819
377.111577,880.558717,1588.834206,-9131.011042
377.114820,1607.976787,-191.425808,-10241.280728
377.118063,2086.541307,1818.545176,-8824.729749
377.121306,-210.568389,-1684.547110,-9781.858789
377.124548,-1205.982590,746.560651,-9475.577496
377.127791,-440.279358,803.988394,-9820.143950
377.131034,-1301.695494,-957.129040,-10049.854920
377.134277,-1856.830338,-1454.836141,-9552.147819
377.137519,957.129040,1014.556782,-9724.431046
377.140762,2737.389054,918.843878,-9494.720077
377.144005,3043.670347,-1435.693560,-9954.142016
377.147248,1129.412267,918.843878,-9513.862658
377.150495,957.129040,3656.232933,-9169.296203
377.153742,-823.130974,248.853550,-10011.569758
377.156990,-516.849682,1091.127106,-9111.868461
377.160237,478.564520,976.271621,-10011.569758
377.163485,1091.127106,1071.984525,-9743.573627
377.166732,1435.693560,229.710970,-9188.438784
377.169979,1990.828403,880.558717,-10030.712339
377.173227,574.277424,-344.566454,-9705.288466
377.176474,497.707101,1320.838075,-9111.868461
377.179721,306.281293,1588.834206,-9743.573627
377.182969,191.425808,1091.127106,-9801.001370
377.186216,172.283227,401.994197,-9801.001370
377.189464,1014.556782,2258.824534,-9513.862658
377.192711,1933.400661,1646.261949,-9245.866526
377.195958,1378.265818,-957.129040,-9973.284597
377.199206,-344.566454,-631.705166,-9801.001370
377.202453,-995.414202,287.138712,-9590.432981
377.205700,-2067.398726,-210.568389,-9724.431046
377.208948,-937.986459,-1091.127106,-9858.429112
377.212195,1014.556782,-38.285162,-10011.569758
377.215443,57.427742,727.418070,-9724.431046
377.218690,1665.404530,344.566454,-8939.585234
377.221937,1225.125171,1186.840010,-9628.718142
377.225185,153.140646,-535.992262,-10451.849117
377.228432,727.418070,1952.543242,-8767.302006
377.231679,-1052.841944,-38.285162,-9896.714274
377.234927,-1856.830338,133.998066,-9820.143950
377.238174,-1588.834206,478.564520,-9934.999435
377.241422,248.853550,1703.689691,-9073.583299
377.244669,1856.830338,-210.568389,-9111.868461
377.247916,1512.263883,-976.271621,-10241.280728
377.251164,2239.681954,1780.260014,-9111.868461
377.254392,1397.408398,2469.392923,-9169.296203
377.257620,229.710970,2679.961312,-9494.720077
377.260848,306.281293,2833.101958,-9762.716208
377.264076,440.279358,-287.138712,-9513.862658
377.267305,153.140646,1627.119368,-9016.155557
377.270533,1263.410333,172.283227,-10547.562021
377.273761,1397.408398,1091.127106,-9131.011042
377.276989,899.701298,-727.418070,-9360.722011
377.280217,-287.138712,1761.117434,-9858.429112
377.283446,803.988394,1359.123237,-9858.429112
377.286674,535.992262,1225.125171,-9245.866526
377.289902,-306.281293,574.277424,-9590.432981
377.293130,1722.832272,3235.096155,-9418.149754
377.296358,2947.957443,2679.961312,-9035.298138
377.299587,1473.978722,-95.712904,-9265.009107
377.302815,516.849682,306.281293,-9628.718142
377.306043,-76.570323,2354.537438,-9686.145885
377.309271,-976.271621,1225.125171,-9456.434915
377.312499,-1301.695494,-1091.127106,-9839.286531
377.315727,-1703.689691,-1837.687757,-10126.425243
377.318956,287.138712,172.283227,-9877.571693
377.322184,1473.978722,1990.828403,-9399.007173
377.325412,1225.125171,-382.851616,-9322.436850
377.328640,746.560651,-191.425808,-9131.011042
377.331868,478.564520,823.130974,-10336.993632
377.335097,-76.570323,1282.552914,-9724.431046
377.338325,-1588.834206,172.283227,-8977.870395
377.341553,-1665.404530,-842.273555,-10336.993632
377.344781,937.986459,2699.103893,-9609.575562
377.348009,1703.689691,-229.710970,-9360.722011
377.351238,1722.832272,-1129.412267,-8939.585234
377.354466,1205.982590,172.283227,-9877.571693
377.357677,1052.841944,2182.254211,-9724.431046
377.360889,555.134843,1531.406464,-9111.868461
377.364100,-114.855485,2009.970984,-9801.001370
377.367312,-172.283227,3560.520029,-9513.862658
377.370524,574.277424,-153.140646,-9820.143950
377.373735,1569.691626,2526.820666,-8690.731683
377.376947,1722.832272,-976.271621,-10451.849117
377.380158,937.986459,650.847747,-9111.868461
377.383370,861.416136,172.283227,-9820.143950
377.386581,-1397.408398,976.271621,-10011.569758
377.389793,-38.285162,2316.252277,-9035.298138
377.393004,1148.554848,-210.568389,-9896.714274
377.396216,1378.265818,2029.113565,-9207.581365
377.399428,1722.832272,1263.410333,-9858.429112
377.402639,2890.529701,2852.244539,-8843.872330
377.405851,382.851616,-38.285162,-9513.862658
377.409062,-708.275490,478.564520,-10260.423309
377.412274,-842.273555,2833.101958,-9111.868461
377.415485,-1454.836141,727.418070,-9724.431046
377.418697,-1454.836141,-248.853550,-9494.720077
377.421908,-19.142581,-1397.408398,-10126.425243
377.425120,1627.119368,765.703232,-9322.436850
377.428332,880.558717,803.988394,-9724.431046
377.431543,631.705166,-153.140646,-9475.577496
377.434755,535.992262,344.566454,-9801.001370
377.437966,-669.990328,861.416136,-10202.995566
377.441178,-689.132909,2163.111630,-9111.868461
377.444389,76.570323,-478.564520,-9686.145885
377.447601,478.564520,57.427742,-9647.860723
377.450813,191.425808,-1301.695494,-10336.993632
377.454024,631.705166,1339.980656,-8824.729749
377.457236,459.421939,172.283227,-9207.581365
377.460471,210.568389,-478.564520,-10279.565890
377.463691,535.992262,1454.836141,-9571.290400
377.466911,880.558717,2641.676150,-9399.007173
377.470131,440.279358,3177.668413,-9054.440718
377.473351,1320.838075,2163.111630,-9915.856854
377.476571,1550.549045,306.281293,-9303.294269
377.479791,957.129040,1339.980656,-8901.300072
377.483011,1244.267752,38.285162,-10298.708470
377.511990,-574.277424,1818.545176,-8977.870395
377.515210,516.849682,-95.712904,-9973.284597
377.518430,1588.834206,2182.254211,-9399.007173
377.521650,784.845813,1129.412267,-9111.868461
377.524870,-803.988394,-1837.687757,-9820.143950
377.528090,-937.986459,-478.564520,-9743.573627
377.531310,-306.281293,-325.423874,-9934.999435
377.534530,153.140646,2239.681954,-9686.145885
377.537750,-363.709035,-210.568389,-9513.862658
377.540970,880.558717,1435.693560,-9169.296203
377.544190,1761.117434,191.425808,-10030.712339
377.547410,593.420005,1244.267752,-9686.145885
377.550630,-478.564520,535.992262,-9207.581365
377.553849,-1550.549045,-976.271621,-9628.718142
377.557069,-2067.398726,-1225.125171,-10604.989763
377.560289,-1761.117434,937.986459,-9839.286531
377.563517,880.558717,1339.980656,-8901.300072
377.566744,2967.100024,-861.416136,-9705.288466
377.569971,2967.100024,459.421939,-9934.999435
377.573199,2507.678085,2163.111630,-9092.725880
377.576426,306.281293,2469.392923,-9226.723946
377.579654,-535.992262,3005.385186,-9667.003304
377.582881,172.283227,-937.986459,-9877.571693
377.586108,478.564520,2909.672282,-9111.868461
377.589336,153.140646,-765.703232,-10375.278794
377.592563,669.990328,1741.974853,-8671.589102
377.595791,1799.402595,-57.427742,-9686.145885
377.599018,2029.113565,1320.838075,-9820.143950
377.602245,267.996131,76.570323,-9647.860723
377.605473,-133.998066,440.279358,-9609.575562
377.608700,401.994197,4000.799387,-9207.581365
377.611927,727.418070,1244.267752,-10145.567824
377.615155,172.283227,593.420005,-9475.577496
377.618382,1875.972918,2641.676150,-8748.159426
377.621610,2143.969050,2833.101958,-9341.579430
377.624837,957.129040,325.423874,-9379.864592
377.628064,-650.847747,-1473.978722,-9992.427178
377.631292,-2373.680019,-440.279358,-9399.007173
377.634519,-1014.556782,-497.707101,-9973.284597
377.637747,-803.988394,2909.672282,-9762.716208
377.666852,1033.699363,1052.841944,-8729.016845
377.670086,2718.246474,-765.703232,-9801.001370
377.673320,2737.389054,1167.697429,-9628.718142
377.676553,2201.396792,2220.539373,-9073.583299
377.679787,574.277424,2775.674216,-9245.866526
377.683021,0.000000,2928.814862,-9590.432981
377.686255,267.996131,-842.273555,-9743.573627
377.689489,153.140646,2354.537438,-9284.151688
377.692723,172.283227,-325.423874,-10298.708470
377.695957,957.129040,1703.689691,-8805.587168
377.699191,1914.258080,-325.423874,-9609.575562
377.702425,1454.836141,1722.832272,-9820.143950
377.705659,1588.834206,-440.279358,-9418.149754
377.708892,-363.709035,784.845813,-9705.288466
377.712126,344.566454,3637.090352,-9303.294269
377.715360,1205.982590,2048.256146,-9743.573627
377.718594,612.562586,191.425808,-9590.432981
377.721828,1646.261949,1397.408398,-9647.860723
377.725062,2182.254211,2526.820666,-9265.009107
377.728296,344.566454,-19.142581,-9552.147819
377.731530,-1186.840010,-1225.125171,-9954.142016
377.734764,-2373.680019,-248.853550,-9609.575562
377.737998,-899.701298,535.992262,-9609.575562
377.741231,-1091.127106,2201.396792,-9781.858789
377.744471,957.129040,19.142581,-9552.147819
377.747711,1971.685822,612.562586,-8939.585234
377.750950,1454.836141,440.279358,-10126.425243
377.754190,-1110.269686,650.847747,-9954.142016
377.757430,-1052.841944,0.000000,-9092.725880
377.760669,-459.421939,593.420005,-9590.432981
377.763909,-1339.980656,-1837.687757,-10662.417506
377.767149,-1627.119368,-535.992262,-10088.140082
377.770388,1799.402595,1646.261949,-8882.157491
377.773628,2143.969050,-287.138712,-9762.716208
377.776868,2833.101958,-555.134843,-10011.569758
377.780107,1454.836141,1454.836141,-9437.292334
377.783347,38.285162,3464.807125,-9322.436850
377.786587,172.283227,1493.121302,-9762.716208
377.789826,-114.855485,765.703232,-9494.720077
377.793066,-344.566454,1435.693560,-9973.284597
377.796306,535.992262,957.129040,-9628.718142
377.799545,1761.117434,650.847747,-8805.587168
377.802785,1397.408398,-38.285162,-9973.284597
377.806025,1531.406464,363.709035,-9647.860723
377.809264,1473.978722,1091.127106,-9054.440718
377.812504,191.425808,306.281293,-9896.714274
377.815744,-382.851616,1397.408398,-9896.714274
377.818983,650.847747,2737.389054,-9513.862658
377.822223,-38.285162,1837.687757,-9188.438784
377.825463,1339.980656,0.000000,-9915.856854
377.828702,1339.980656,191.425808,-9820.143950
377.831942,287.138712,574.277424,-9303.294269
377.835182,-1301.695494,-1244.267752,-9839.286531
377.838421,-1914.258080,-1646.261949,-10068.997501
377.841661,-976.271621,1378.265818,-10011.569758
377.844901,-803.988394,1052.841944,-9839.286531
377.848146,612.562586,497.707101,-8977.870395
377.851390,1933.400661,421.136778,-9552.147819
377.854635,1454.836141,1225.125171,-10049.854920
377.857880,823.130974,-248.853550,-9150.153622
377.861124,-669.990328,-1071.984525,-9513.862658
377.864369,-1761.117434,650.847747,-10107.282662
377.867614,-1091.127106,2277.967115,-9379.864592
377.870859,440.279358,-248.853550,-9571.290400
377.874103,1435.693560,-57.427742,-9647.860723
377.877348,2794.816797,2182.254211,-9379.864592
377.880593,2718.246474,2143.969050,-9054.440718
377.883837,689.132909,1895.115499,-9590.432981
377.887082,-478.564520,2603.390989,-9762.716208
377.890327,-38.285162,401.994197,-9360.722011
377.893572,-861.416136,2277.967115,-9475.577496
377.896816,38.285162,191.425808,-10356.136213
377.900061,746.560651,1033.699363,-8977.870395
377.903306,1454.836141,191.425808,-9437.292334
377.906550,2297.109696,2086.541307,-9647.860723
377.909795,1837.687757,153.140646,-9379.864592
377.913040,95.712904,-133.998066,-9667.003304
377.916285,-191.425808,2603.390989,-9533.005238
377.919529,650.847747,2871.387120,-9494.720077
377.922774,-306.281293,114.855485,-9571.290400
377.926019,114.855485,459.421939,-9743.573627
377.929263,1282.552914,1990.828403,-9475.577496
377.932508,861.416136,650.847747,-9265.009107
377.935753,-593.420005,-1091.127106,-9781.858789
377.938998,-1091.127106,-1205.982590,-9839.286531
377.942242,306.281293,995.414202,-9647.860723
377.945487,-689.132909,1301.695494,-9973.284597
377.948732,-172.283227,363.709035,-9399.007173
377.951980,1205.982590,937.986459,-9245.866526
377.955229,2488.535504,918.843878,-9839.286531
377.958478,1282.552914,650.847747,-9188.438784
377.961726,-363.709035,-2067.398726,-9724.431046
377.964975,-1091.127106,1339.980656,-9513.862658
377.968223,-1033.699363,2105.683888,-9437.292334
377.971472,-287.138712,-727.418070,-9667.003304
377.974721,861.416136,-95.712904,-9877.571693
377.977969,2335.394858,2297.109696,-9418.149754
377.981218,2679.961312,2488.535504,-8863.014910
377.984467,1339.980656,1569.691626,-9609.575562
377.987715,746.560651,3273.381317,-9456.434915
377.990964,478.564520,-1282.552914,-9686.145885
377.994212,-114.855485,3158.525832,-9073.583299
377.997461,-229.710970,-727.418070,-10777.272990
378.000710,-191.425808,2201.396792,-8690.731683
378.029947,-76.570323,593.420005,-9801.001370
378.033196,-1110.269686,-57.427742,-9992.427178
378.036445,-1129.412267,-267.996131,-9839.286531
378.039693,-784.845813,-689.132909,-9590.432981
378.042942,861.416136,-459.421939,-9475.577496
378.046190,1761.117434,765.703232,-9724.431046
378.049439,1454.836141,-382.851616,-9781.858789
378.052688,669.990328,689.132909,-8729.016845
378.055940,-267.996131,669.990328,-10011.569758
378.059192,-2009.970984,459.421939,-10317.851051
378.062444,-1091.127106,1741.974853,-9111.868461
378.065696,-153.140646,861.416136,-9341.579430
378.068948,937.986459,-803.988394,-9954.142016
378.072200,421.136778,-2220.539373,-10394.421374
378.075452,1741.974853,1148.554848,-9111.868461
378.078704,746.560651,-727.418070,-9571.290400
378.081956,880.558717,287.138712,-9839.286531
378.085208,-401.994197,2297.109696,-9781.858789
378.088460,-95.712904,2297.109696,-9609.575562
378.091712,880.558717,1435.693560,-9226.723946
378.094964,1148.554848,-708.275490,-9437.292334
378.098216,1627.119368,1512.263883,-10145.567824
378.101468,1282.552914,-76.570323,-9533.005238
378.104720,133.998066,1071.984525,-8748.159426
378.107972,765.703232,478.564520,-10279.565890
378.111224,516.849682,1761.117434,-9839.286531
378.114476,-708.275490,287.138712,-9590.432981
378.117728,784.845813,2813.959378,-9016.155557
378.120980,2545.963246,2794.816797,-9341.579430
378.124232,957.129040,-133.998066,-9934.999435
378.127484,306.281293,2086.541307,-9054.440718
378.130736,-95.712904,1435.693560,-9494.720077
378.133988,-593.420005,1627.119368,-9284.151688
378.137240,-1014.556782,-976.271621,-10088.140082
378.140492,-1167.697429,-1301.695494,-9896.714274
378.143744,-95.712904,1148.554848,-9245.866526
378.146996,1722.832272,363.709035,-9858.429112
378.150248,1225.125171,727.418070,-9169.296203
378.153500,1071.984525,-363.709035,-9609.575562
378.156752,-210.568389,1569.691626,-9628.718142
378.160007,-727.418070,842.273555,-9628.718142
378.163261,-1339.980656,-344.566454,-9801.001370
378.166516,-1837.687757,-880.558717,-9973.284597
378.169771,-612.562586,1493.121302,-9379.864592
378.173025,1799.402595,765.703232,-9360.722011
378.176280,2833.101958,-287.138712,-9743.573627
378.179535,1875.972918,1607.976787,-9169.296203
378.182789,1588.834206,2354.537438,-9245.866526
378.186044,-153.140646,3369.094221,-9609.575562
378.189299,-19.142581,1722.832272,-9839.286531
378.192553,478.564520,382.851616,-9226.723946
378.195808,765.703232,1531.406464,-9571.290400
378.199063,1397.408398,1091.127106,-9839.286531
378.202317,1818.545176,516.849682,-9265.009107
378.205572,1818.545176,19.142581,-9303.294269
378.208827,229.710970,574.277424,-9992.427178
378.212081,-114.855485,1454.836141,-9858.429112
378.215336,708.275490,3081.955509,-9131.011042
378.218591,574.277424,440.279358,-9743.573627
378.221845,-95.712904,1071.984525,-9877.571693
378.225100,1588.834206,2431.107762,-9399.007173
378.228355,1435.693560,-76.570323,-9475.577496
378.231609,-210.568389,-976.271621,-9915.856854
378.234864,-593.420005,-861.416136,-10049.854920
378.238119,-1320.838075,765.703232,-9552.147819
378.241373,-1091.127106,-497.707101,-9628.718142
378.244628,421.136778,1493.121302,-9686.145885
378.247883,516.849682,-363.709035,-9973.284597
378.251137,1052.841944,1914.258080,-9035.298138
378.254392,1186.840010,727.418070,-9954.142016
378.257647,612.562586,382.851616,-9456.434915
378.260901,-1301.695494,-880.558717,-9571.290400
378.264158,-1301.695494,1359.123237,-9781.858789
378.267415,-1339.980656,2622.533570,-9169.296203
378.270672,-153.140646,-880.558717,-9705.288466
378.273929,1741.974853,880.558717,-9590.432981
378.277186,3311.666478,1761.117434,-9475.577496
378.280443,2297.109696,1282.552914,-8977.870395
378.283700,2163.111630,1684.547110,-9322.436850
378.286957,363.709035,1033.699363,-10107.282662
378.290214,-287.138712,689.132909,-9341.579430
378.293470,-344.566454,1990.828403,-9169.296203
378.296727,287.138712,440.279358,-10336.993632
378.299984,325.423874,650.847747,-9054.440718
378.303241,2277.967115,1052.841944,-9513.862658
378.306498,1933.400661,287.138712,-10107.282662
378.309755,1359.123237,1512.263883,-9092.725880
378.313012,1033.699363,401.994197,-9552.147819
378.316269,1263.410333,1225.125171,-9724.431046
378.319526,-1167.697429,1129.412267,-10068.997501
378.322783,-708.275490,2239.681954,-9303.294269
378.326040,574.277424,784.845813,-9456.434915
378.329297,1301.695494,-708.275490,-10126.425243
378.332554,593.420005,-38.285162,-9609.575562
378.335810,957.129040,-918.843878,-9437.292334
378.339067,172.283227,-976.271621,-9724.431046
378.342324,-1052.841944,976.271621,-10088.140082
378.345581,-899.701298,1052.841944,-9686.145885
378.348838,-842.273555,1550.549045,-9169.296203
378.352095,-172.283227,861.416136,-9954.142016
378.355352,957.129040,1493.121302,-9552.147819
378.358609,1014.556782,-1014.556782,-9667.003304
378.361866,-287.138712,631.705166,-9284.151688
378.365123,-861.416136,1359.123237,-9360.722011
378.368382,210.568389,727.418070,-9667.003304
378.371641,593.420005,401.994197,-9781.858789
378.374900,1091.127106,1799.402595,-9341.579430
378.378159,1320.838075,2909.672282,-8977.870395
378.381418,1282.552914,2431.107762,-9858.429112
378.384677,1684.547110,1378.265818,-9590.432981
378.387936,1148.554848,-727.418070,-9111.868461
378.391195,57.427742,2124.826469,-9456.434915
378.394454,267.996131,-267.996131,-10451.849117
378.397713,-363.709035,1148.554848,-9456.434915
378.400972,363.709035,1110.269686,-9552.147819
378.404232,746.560651,1550.549045,-9437.292334
378.407491,1359.123237,689.132909,-9992.427178
378.410750,3120.240670,2641.676150,-8958.727814
378.414009,2067.398726,918.843878,-9226.723946
378.417268,-38.285162,-344.566454,-9820.143950
378.420527,-727.418070,2718.246474,-9513.862658
378.423786,-574.277424,1627.119368,-9686.145885
378.427045,-287.138712,57.427742,-9303.294269
378.430304,363.709035,-650.847747,-9954.142016
378.433563,-172.283227,-210.568389,-9934.999435
378.436822,1646.261949,803.988394,-9245.866526
378.440081,1665.404530,650.847747,-9762.716208
378.443340,-440.279358,-765.703232,-9609.575562
378.446599,-344.566454,1741.974853,-9379.864592
378.449858,-1856.830338,287.138712,-10509.276859
378.453117,-1914.258080,1454.836141,-9054.440718
378.456376,440.279358,-210.568389,-9590.432981
378.459636,842.273555,-1952.543242,-10336.993632
378.462895,191.425808,-555.134843,-9781.858789
378.466154,2679.961312,421.136778,-9265.009107
378.469413,1627.119368,-421.136778,-9341.579430
378.472682,325.423874,38.285162,-10126.425243
378.475942,-344.566454,2565.105827,-9743.573627
378.479203,172.283227,2565.105827,-9456.434915
378.482463,555.134843,555.134843,-9456.434915
378.485724,842.273555,650.847747,-9533.005238
378.488984,1339.980656,631.705166,-10068.997501
378.492245,1205.982590,1033.699363,-9341.579430
378.495505,-19.142581,-421.136778,-9245.866526
378.524850,-19.142581,1129.412267,-9360.722011
378.528110,880.558717,-535.992262,-9801.001370
378.531371,842.273555,-1033.699363,-9686.145885
378.534631,1014.556782,153.140646,-9456.434915
378.537892,19.142581,1186.840010,-9781.858789
378.541152,-248.853550,95.712904,-9533.005238
378.544413,153.140646,1531.406464,-9590.432981
378.547673,-1205.982590,-133.998066,-10126.425243
378.550934,-784.845813,899.701298,-9341.579430
378.554194,1856.830338,497.707101,-9494.720077
378.557455,1282.552914,918.843878,-9169.296203
378.560715,784.845813,-2488.535504,-10030.712339
378.563975,1282.552914,421.136778,-9647.860723
378.567236,325.423874,861.416136,-9609.575562
378.570496,19.142581,-210.568389,-10030.712339
378.573757,535.992262,2163.111630,-9513.862658
378.576995,861.416136,2182.254211,-9934.999435
378.580234,1914.258080,95.712904,-9322.436850
378.583472,1627.119368,669.990328,-9169.296203
378.586710,631.705166,114.855485,-10356.136213
378.589948,574.277424,669.990328,-9207.581365
378.593187,1148.554848,918.843878,-9131.011042
378.596425,-76.570323,1091.127106,-10164.710405
378.599663,-38.285162,1339.980656,-9686.145885
378.602902,2392.822600,2603.390989,-8786.444587
378.606140,1990.828403,1703.689691,-9820.143950
378.609378,1129.412267,669.990328,-9628.718142
378.612617,803.988394,1703.689691,-9169.296203
378.615855,0.000000,995.414202,-9647.860723
378.619093,-1071.984525,-133.998066,-9877.571693
378.622331,-1052.841944,-593.420005,-9877.571693
378.625570,-1186.840010,-497.707101,-9801.001370
378.628808,-478.564520,650.847747,-9667.003304
378.632046,1569.691626,1416.550979,-9571.290400
378.635285,1320.838075,-593.420005,-9571.290400
378.638523,2526.820666,1339.980656,-9016.155557
378.641761,-153.140646,-1416.550979,-10336.993632
378.645000,-1933.400661,937.986459,-9628.718142
378.648238,-727.418070,1071.984525,-9475.577496
378.651476,-382.851616,-1186.840010,-9915.856854
378.654718,57.427742,-1244.267752,-10030.712339
378.657960,2431.107762,459.421939,-9992.427178
378.661202,2565.105827,535.992262,-9092.725880
378.664444,1359.123237,-823.130974,-9801.001370
378.667686,38.285162,2029.113565,-9686.145885
378.670929,-937.986459,2354.537438,-9915.856854
378.674171,-306.281293,593.420005,-9303.294269
378.677413,-957.129040,1665.404530,-9265.009107
378.680655,497.707101,401.994197,-10394.421374
378.683897,2201.396792,1627.119368,-9016.155557
378.687139,2775.674216,899.701298,-9418.149754
378.690381,2143.969050,727.418070,-9456.434915
378.693623,669.990328,229.710970,-9781.858789
378.696865,727.418070,2871.387120,-9207.581365
378.700107,306.281293,1646.261949,-9571.290400
378.703349,-880.558717,382.851616,-9801.001370
378.706591,-363.709035,2507.678085,-9341.579430
378.709833,1473.978722,1435.693560,-9820.143950
378.713075,1607.976787,-172.283227,-9226.723946
378.716317,421.136778,-1646.261949,-9762.716208
378.719559,-957.129040,57.427742,-9724.431046
378.722801,-459.421939,803.988394,-9724.431046
378.726043,-95.712904,1454.836141,-9456.434915
378.729285,-669.990328,344.566454,-9571.290400
378.732527,1033.699363,1129.412267,-9437.292334
378.735770,880.558717,114.855485,-9992.427178
378.739012,210.568389,-19.142581,-9647.860723
378.742254,650.847747,746.560651,-9054.440718
378.745496,0.000000,19.142581,-9552.147819
378.748738,-421.136778,-689.132909,-9992.427178
378.751980,1052.841944,267.996131,-10049.854920
378.755222,899.701298,382.851616,-9341.579430
378.758467,459.421939,1741.974853,-9207.581365
378.761712,1359.123237,2124.826469,-10145.567824
378.764958,1378.265818,1244.267752,-9494.720077
378.768203,727.418070,-440.279358,-9111.868461
378.771448,210.568389,2431.107762,-9341.579430
378.774694,267.996131,-172.283227,-10356.136213
378.777939,-153.140646,1818.545176,-9131.011042
378.781184,382.851616,153.140646,-9839.286531
378.784429,1339.980656,2067.398726,-9169.296203
378.787675,937.986459,-153.140646,-10298.708470
378.790920,1952.543242,2029.113565,-9265.009107
378.794165,2182.254211,2297.109696,-8901.300072
378.797411,-823.130974,-459.421939,-9934.999435
378.800656,-1052.841944,2469.392923,-9571.290400
378.803901,-612.562586,1301.695494,-9992.427178
378.807146,-516.849682,1263.410333,-8767.302006
378.810392,-114.855485,-1473.978722,-10011.569758
378.813637,516.849682,-535.992262,-10279.565890
378.816882,631.705166,1339.980656,-9303.294269
378.820127,918.843878,210.568389,-9437.292334
378.823373,516.849682,516.849682,-9150.153622
378.826618,-995.414202,-401.994197,-10470.991698
378.829863,-650.847747,2507.678085,-9437.292334
378.833109,-976.271621,-57.427742,-9513.862658
378.836354,-727.418070,-574.277424,-9647.860723
378.839599,-612.562586,-172.283227,-10298.708470
378.842844,2507.678085,1569.691626,-9207.581365
378.846090,2622.533570,-191.425808,-9265.009107
378.849335,842.273555,1091.127106,-9399.007173
378.852580,210.568389,3522.234867,-9245.866526
378.855826,421.136778,3158.525832,-9801.001370
378.859071,133.998066,612.562586,-9418.149754
378.862319,344.566454,267.996131,-9533.005238
378.865567,593.420005,1799.402595,-9762.716208
378.868815,1665.404530,95.712904,-9781.858789
378.872063,2813.959378,1359.123237,-8767.302006
378.875311,1071.984525,-842.273555,-9992.427178
378.878559,478.564520,1780.260014,-9571.290400
378.881807,669.990328,2048.256146,-9686.145885
378.885056,535.992262,880.558717,-9724.431046
378.888304,-1320.838075,1071.984525,-9456.434915
378.891552,535.992262,1914.258080,-9781.858789
378.894800,1837.687757,1148.554848,-9418.149754
378.898048,937.986459,-1818.545176,-9915.856854
378.901296,-612.562586,19.142581,-9245.866526
378.904544,-1225.125171,210.568389,-9877.571693
378.907792,-133.998066,708.275490,-9820.143950
378.911040,248.853550,1493.121302,-9475.577496
378.914288,172.283227,-401.994197,-9705.288466
378.917536,976.271621,2679.961312,-8939.585234
378.920784,1014.556782,631.705166,-10030.712339
378.924032,689.132909,267.996131,-9188.438784
378.927281,-133.998066,-478.564520,-9743.573627
378.930529,-497.707101,1895.115499,-9035.298138
378.933777,-267.996131,-918.843878,-10088.140082
378.937025,1435.693560,287.138712,-10183.852986
378.940273,918.843878,2143.969050,-8901.300072
378.943521,1397.408398,1378.265818,-9609.575562
378.946769,1493.121302,2488.535504,-9609.575562
378.950017,1052.841944,861.416136,-9992.427178
378.953265,535.992262,746.560651,-8920.442653
378.956513,-153.140646,727.418070,-9724.431046
378.959761,-172.283227,1205.982590,-10107.282662
378.963009,612.562586,746.560651,-9322.436850
378.966237,727.418070,497.707101,-9494.720077
378.969464,1990.828403,1856.830338,-9399.007173
378.972691,2316.252277,1320.838075,-9781.858789
378.975918,2182.254211,440.279358,-9379.864592
378.979145,-57.427742,1205.982590,-9571.290400
378.982372,-1301.695494,1473.978722,-9513.862658
378.985599,-899.701298,-57.427742,-10164.710405
378.988826,-823.130974,-535.992262,-9934.999435
379.017870,631.705166,2105.683888,-9054.440718
379.021097,497.707101,-2201.396792,-9667.003304
379.024324,-957.129040,-1722.832272,-10317.851051
379.027551,325.423874,1818.545176,-9494.720077
379.030778,1761.117434,248.853550,-9858.429112
379.034005,2239.681954,1933.400661,-8863.014910
379.037232,1780.260014,2411.965181,-8958.727814
379.040459,1837.687757,1914.258080,-9686.145885
379.043686,746.560651,287.138712,-9686.145885
379.046913,-153.140646,421.136778,-9265.009107
379.050140,-1091.127106,2163.111630,-9705.288466
379.053367,-267.996131,-210.568389,-10432.706536
379.056594,1014.556782,2201.396792,-8977.870395
379.059822,1990.828403,19.142581,-9915.856854
379.063049,1914.258080,1493.121302,-9016.155557
379.066276,2009.970984,1416.550979,-9724.431046
379.069484,631.705166,1627.119368,-9667.003304
379.072693,-1435.693560,535.992262,-9571.290400
379.075902,-1435.693560,1627.119368,-9781.858789
379.079111,-76.570323,2258.824534,-9379.864592
379.082320,669.990328,-689.132909,-10088.140082
379.085529,1761.117434,38.285162,-8958.727814
379.088738,1205.982590,-114.855485,-9820.143950
379.091946,1971.685822,995.414202,-9609.575562
379.095155,-19.142581,-344.566454,-9590.432981
379.098364,-612.562586,918.843878,-9456.434915
379.101573,-1914.258080,937.986459,-9877.571693
379.104782,-1837.687757,1416.550979,-9513.862658
379.107991,76.570323,995.414202,-9379.864592
379.111200,899.701298,-2526.820666,-10375.278794
379.114408,669.990328,-95.712904,-9303.294269
379.117617,1244.267752,555.134843,-9877.571693
379.120826,1186.840010,133.998066,-9418.149754
379.124035,-382.851616,669.990328,-9628.718142
379.127244,-440.279358,2258.824534,-9628.718142
379.130453,76.570323,2699.103893,-9494.720077
379.133662,1607.976787,842.273555,-9820.143950
379.136870,1607.976787,574.277424,-8882.157491
379.140079,1952.543242,459.421939,-10030.712339
379.143288,937.986459,535.992262,-9552.147819
379.146497,267.996131,344.566454,-9475.577496
379.149706,574.277424,1818.545176,-9360.722011
379.152915,-210.568389,918.843878,-9877.571693
379.156124,-210.568389,1435.693560,-9533.005238
379.159332,861.416136,2565.105827,-9379.864592
379.162541,287.138712,746.560651,-9494.720077
379.165750,631.705166,1148.554848,-9379.864592
379.168959,669.990328,957.129040,-9762.716208
379.172152,-114.855485,210.568389,-9379.864592
379.175345,-612.562586,248.853550,-9590.432981
379.178538,-555.134843,0.000000,-9896.714274
379.181732,-248.853550,1665.404530,-9820.143950
379.184925,765.703232,306.281293,-9513.862658
379.188118,842.273555,1531.406464,-9150.153622
379.191311,1454.836141,-95.712904,-10145.567824
379.194504,-440.279358,-38.285162,-9762.716208
379.197697,-497.707101,861.416136,-9322.436850
379.200891,-1052.841944,-114.855485,-9494.720077
379.204084,-306.281293,-842.273555,-10164.710405
379.207277,1665.404530,823.130974,-9762.716208
379.210470,1761.117434,325.423874,-9533.005238
379.213663,1722.832272,612.562586,-9399.007173
379.216856,899.701298,1225.125171,-9743.573627
379.220050,267.996131,918.843878,-9992.427178
379.223243,325.423874,19.142581,-9131.011042
379.226436,-957.129040,689.132909,-9647.860723
379.229629,-555.134843,1875.972918,-9973.284597
379.232822,1205.982590,765.703232,-9686.145885
379.236015,2163.111630,516.849682,-9073.583299
379.239209,2086.541307,497.707101,-10030.712339
379.242402,2928.814862,2411.965181,-9245.866526
379.245595,1493.121302,516.849682,-9475.577496
379.248788,-1244.267752,650.847747,-9743.573627
379.251981,-1569.691626,1646.261949,-9437.292334
379.255174,-593.420005,382.851616,-10164.710405
379.258368,-306.281293,-555.134843,-9628.718142
379.261561,-229.710970,-1569.691626,-9934.999435
379.264754,784.845813,535.992262,-9207.581365
379.267947,1359.123237,306.281293,-9801.001370
379.271140,1473.978722,574.277424,-9896.714274
379.274320,746.560651,-555.134843,-9456.434915
379.277500,-1761.117434,612.562586,-9686.145885
379.280679,-1167.697429,2067.398726,-9992.427178
379.283859,-478.564520,267.996131,-9801.001370
379.287039,-803.988394,-1359.123237,-9513.862658
379.290219,478.564520,-1014.556782,-10088.140082
379.293398,2565.105827,1569.691626,-9341.579430
379.296578,1895.115499,57.427742,-9781.858789
379.299758,287.138712,1933.400661,-8958.727814
379.302938,-133.998066,2277.967115,-9743.573627
379.306117,-421.136778,2852.244539,-9954.142016
379.309297,114.855485,823.130974,-9245.866526
379.312477,1588.834206,1071.984525,-9265.009107
379.315657,1952.543242,689.132909,-9705.288466
379.318836,1818.545176,-631.705166,-9781.858789
379.322016,1531.406464,382.851616,-9399.007173
379.325196,669.990328,669.990328,-9762.716208
379.328376,-153.140646,1091.127106,-9322.436850
379.331555,-172.283227,784.845813,-10202.995566
379.334735,401.994197,2871.387120,-9418.149754
379.337915,-937.986459,689.132909,-9418.149754
379.341095,727.418070,153.140646,-9858.429112
379.344274,1473.978722,823.130974,-9667.003304
379.347454,784.845813,-555.134843,-9609.575562
379.350634,-229.710970,0.000000,-9150.153622
379.353814,459.421939,153.140646,-10260.423309
379.356993,38.285162,1646.261949,-9801.001370
379.360173,-803.988394,57.427742,-9533.005238
379.363353,38.285162,1607.976787,-9226.723946
379.366533,1071.984525,1129.412267,-9858.429112
379.369712,995.414202,-76.570323,-9513.862658
379.372892,363.709035,-1167.697429,-9494.720077
379.376061,-210.568389,440.279358,-9686.145885
379.379229,114.855485,1263.410333,-9341.579430
379.382397,1397.408398,708.275490,-10088.140082
379.385566,287.138712,2813.959378,-8958.727814
379.388734,555.134843,2258.824534,-9341.579430
379.391902,2124.826469,2469.392923,-9513.862658
379.395071,2163.111630,344.566454,-9724.431046
379.398239,976.271621,-325.423874,-9341.579430
379.401407,823.130974,363.709035,-9628.718142
379.404576,-19.142581,191.425808,-9858.429112
379.407744,-669.990328,1914.258080,-9418.149754
379.410912,440.279358,401.994197,-9877.571693
379.414081,1148.554848,1531.406464,-9169.296203
379.417249,899.701298,229.710970,-10375.278794
379.420417,1473.978722,2641.676150,-9150.153622
379.423586,38.285162,440.279358,-9207.581365
379.426754,-344.566454,325.423874,-9954.142016
379.429923,-363.709035,1703.689691,-9475.577496
379.433091,-210.568389,-210.568389,-9877.571693
379.436259,-669.990328,401.994197,-9303.294269
379.439428,-440.279358,-287.138712,-10260.423309
379.442596,1244.267752,2009.970984,-9494.720077
379.445764,1148.554848,-229.710970,-9456.434915
379.448933,114.855485,478.564520,-9226.723946
379.452101,669.990328,459.421939,-9992.427178
379.455269,-689.132909,153.140646,-9954.142016
379.458438,-1665.404530,95.712904,-9322.436850
379.461606,-823.130974,325.423874,-9801.001370
379.464774,1512.263883,1359.123237,-9341.579430
379.467943,1818.545176,631.705166,-10088.140082
379.471111,2392.822600,2794.816797,-8652.446522
379.474279,2009.970984,1665.404530,-9092.725880
379.477460,574.277424,1186.840010,-10011.569758
379.480641,-401.994197,937.986459,-9762.716208
379.483822,-344.566454,1091.127106,-9533.005238
379.487003,-1397.408398,1531.406464,-9609.575562
379.490184,325.423874,172.283227,-9820.143950
379.493365,1588.834206,1856.830338,-9437.292334
379.496546,2660.818731,76.570323,-9934.999435
379.499727,2584.248408,1588.834206,-8690.731683
379.528357,1550.549045,-76.570323,-10145.567824
379.531538,1780.260014,976.271621,-9571.290400
379.534719,669.990328,-382.851616,-9418.149754
379.537900,-1244.267752,937.986459,-9513.862658
379.541081,-1397.408398,-95.712904,-10279.565890
379.544263,-708.275490,1225.125171,-9437.292334
379.547444,-708.275490,-1148.554848,-9858.429112
379.550625,38.285162,-1301.695494,-10202.995566
379.579353,1550.549045,1493.121302,-9571.290400
379.582545,2105.683888,861.416136,-9131.011042
379.585737,1569.691626,-516.849682,-9877.571693
379.588929,1129.412267,2871.387120,-9169.296203
379.592122,555.134843,1205.982590,-9877.571693
379.595314,-1818.545176,1301.695494,-9494.720077
379.598506,-612.562586,1646.261949,-9475.577496
379.601698,746.560651,-133.998066,-9973.284597
379.604890,1148.554848,-478.564520,-9399.007173
379.608082,918.843878,-459.421939,-9801.001370
379.611274,267.996131,746.560651,-9131.011042
379.614466,631.705166,-153.140646,-9839.286531
379.617658,-133.998066,1722.832272,-9647.860723
379.620850,-784.845813,287.138712,-9743.573627
379.624042,-76.570323,1435.693560,-9035.298138
379.627234,-784.845813,-114.855485,-10241.280728
379.630426,440.279358,1301.695494,-9571.290400
379.633618,1531.406464,478.564520,-8824.729749
379.636810,1205.982590,-2086.541307,-10049.854920
379.640003,1531.406464,1205.982590,-9839.286531
379.643195,669.990328,248.853550,-9954.142016
379.646387,-1071.984525,1952.543242,-8824.729749
379.649579,-899.701298,1550.549045,-9992.427178
379.652771,1263.410333,1990.828403,-9839.286531
379.655950,2067.398726,76.570323,-9092.725880
379.659130,2124.826469,1416.550979,-9341.579430
379.662309,2009.970984,-535.992262,-9667.003304
379.665488,344.566454,421.136778,-9647.860723
379.668668,401.994197,2220.539373,-9513.862658
379.671847,-363.709035,-19.142581,-9839.286531
379.675026,-516.849682,1205.982590,-9533.005238
379.678206,19.142581,2124.826469,-9915.856854
379.681385,210.568389,1473.978722,-9265.009107
379.684565,1091.127106,76.570323,-9418.149754
379.687744,708.275490,344.566454,-9590.432981
379.690923,516.849682,-248.853550,-9494.720077
379.694103,-957.129040,-593.420005,-9973.284597
379.697282,-1033.699363,2029.113565,-9284.151688
379.700462,421.136778,325.423874,-9915.856854
379.703641,918.843878,1301.695494,-9303.294269
379.706820,114.855485,-918.843878,-10030.712339
379.710000,669.990328,1186.840010,-9609.575562
379.713179,1071.984525,497.707101,-9265.009107
379.716358,-535.992262,-1741.974853,-9858.429112
379.719538,-1378.265818,-401.994197,-9877.571693
379.722717,363.709035,1014.556782,-9801.001370
379.725897,-229.710970,976.271621,-9379.864592
379.729076,191.425808,1531.406464,-9552.147819
379.732255,1952.543242,2488.535504,-9418.149754
379.735435,2871.387120,516.849682,-9533.005238
379.738614,1186.840010,-76.570323,-9494.720077
379.741793,344.566454,-708.275490,-10030.712339
379.744973,-899.701298,918.843878,-9533.005238
379.748152,-612.562586,2067.398726,-9513.862658
379.751332,478.564520,689.132909,-9781.858789
379.754511,1607.976787,861.416136,-9360.722011
379.783235,1416.550979,1435.693560,-9513.862658
379.786426,1397.408398,-803.988394,-9379.864592
379.789618,287.138712,459.421939,-9552.147819
379.792809,-153.140646,-19.142581,-9877.571693
379.796001,-516.849682,1301.695494,-9092.725880
379.799192,-1493.121302,-1473.978722,-10413.563955
379.802384,-784.845813,1129.412267,-9513.862658
379.805575,1875.972918,1167.697429,-9322.436850
379.808767,1741.974853,1339.980656,-9667.003304
379.811958,2029.113565,2699.103893,-8958.727814
379.815150,1550.549045,765.703232,-9590.432981
379.818341,497.707101,1990.828403,-9399.007173
379.821533,-363.709035,401.994197,-9858.429112
379.824724,-1339.980656,1741.974853,-9437.292334
379.827916,-1339.980656,229.710970,-9858.429112
379.831107,1665.404530,2258.824534,-9533.005238
379.834299,2220.539373,267.996131,-9590.432981
379.837490,2067.398726,267.996131,-9437.292334
379.840682,2450.250342,1952.543242,-9475.577496
379.843873,1205.982590,1473.978722,-9475.577496
379.847065,-1569.691626,918.843878,-9533.005238
379.850256,-1014.556782,861.416136,-9743.573627
379.853448,153.140646,631.705166,-9877.571693
379.856639,1320.838075,-727.418070,-9801.001370
379.859819,937.986459,-287.138712,-9552.147819
379.862998,1014.556782,421.136778,-9686.145885
379.866178,1148.554848,-133.998066,-9820.143950
379.869357,-287.138712,1148.554848,-9360.722011
379.872537,-1627.119368,0.000000,-9992.427178
379.875716,-1052.841944,2201.396792,-9513.862658
379.878896,-823.130974,-191.425808,-10011.569758
379.882075,-363.709035,133.998066,-9724.431046
379.885254,1397.408398,363.709035,-9418.149754
379.888434,2565.105827,1569.691626,-9188.438784
379.891613,2660.818731,1167.697429,-9475.577496
379.894793,823.130974,1569.691626,-9418.149754
379.897972,-382.851616,2297.109696,-9226.723946
379.901152,-191.425808,1531.406464,-9858.429112
379.904331,-38.285162,1588.834206,-9475.577496
379.907511,-708.275490,76.570323,-9686.145885
379.910690,459.421939,1952.543242,-9571.290400
379.913869,2507.678085,325.423874,-9609.575562
379.917049,1933.400661,555.134843,-9226.723946
379.920228,306.281293,459.421939,-9858.429112
379.923408,555.134843,2488.535504,-9379.864592
379.926587,-306.281293,2392.822600,-9360.722011
379.929767,-1627.119368,229.710970,-9877.571693
379.932946,631.705166,2201.396792,-9169.296203
379.936126,1895.115499,-363.709035,-9896.714274
379.939305,2048.256146,612.562586,-9150.153622
379.942485,1052.841944,-899.701298,-9743.573627
379.945664,210.568389,325.423874,-9839.286531
379.948843,-689.132909,1397.408398,-9341.579430
379.952023,-191.425808,535.992262,-9762.716208
379.955202,-1378.265818,880.558717,-9647.860723
379.958382,-803.988394,535.992262,-9877.571693
379.961550,1110.269686,1703.689691,-9418.149754
379.964719,842.273555,-1665.404530,-9915.856854
379.967887,287.138712,-401.994197,-9379.864592
379.971056,689.132909,-76.570323,-9858.429112
379.974224,210.568389,1512.263883,-9590.432981
379.977393,-937.986459,2297.109696,-9284.151688
379.980561,-95.712904,1741.974853,-9399.007173
379.983730,1301.695494,2431.107762,-9513.862658
380.012246,-1301.695494,1761.117434,-9322.436850
380.015415,-1205.982590,459.421939,-9801.001370
380.018583,1320.838075,574.277424,-9609.575562
380.021752,1052.841944,842.273555,-9226.723946
380.024920,267.996131,-344.566454,-9877.571693
380.028089,-708.275490,267.996131,-9647.860723
380.031257,-995.414202,-287.138712,-9934.999435
380.034426,95.712904,1875.972918,-9379.864592
380.037594,765.703232,880.558717,-9590.432981
380.040763,1359.123237,-19.142581,-9303.294269
380.043931,248.853550,-133.998066,-9877.571693
380.047100,918.843878,669.990328,-9628.718142
380.050268,-133.998066,631.705166,-9054.440718
380.053437,-727.418070,-1914.258080,-10413.563955
380.056605,861.416136,1493.121302,-9494.720077
380.059774,669.990328,57.427742,-10126.425243
380.062933,95.712904,1627.119368,-9150.153622
380.066092,1110.269686,1186.840010,-9667.003304
380.069252,1646.261949,325.423874,-9915.856854
380.072411,784.845813,918.843878,-9226.723946
380.075570,-38.285162,363.709035,-9858.429112
380.078730,574.277424,1990.828403,-9475.577496
380.081889,172.283227,-440.279358,-9954.142016
380.085048,803.988394,2258.824534,-9188.438784
380.088208,1818.545176,746.560651,-9839.286531
380.091367,1875.972918,861.416136,-9245.866526
380.094526,861.416136,153.140646,-9628.718142
380.097686,-172.283227,344.566454,-9628.718142
380.100845,-153.140646,57.427742,-9647.860723
380.104004,-1071.984525,-612.562586,-10088.140082
380.107164,-76.570323,1914.258080,-9150.153622
380.110323,689.132909,38.285162,-9896.714274
380.113482,1052.841944,2048.256146,-9169.296203
380.116642,2335.394858,-842.273555,-9992.427178
380.119801,95.712904,708.275490,-9111.868461
380.122960,-727.418070,1091.127106,-9609.575562
380.126120,-1148.554848,306.281293,-9877.571693
380.129279,-1263.410333,-267.996131,-9801.001370
380.132438,-727.418070,-95.712904,-9839.286531
380.135598,1282.552914,1952.543242,-9073.583299
380.138757,2967.100024,1282.552914,-9934.999435
380.141916,2277.967115,1646.261949,-9188.438784
380.145076,2277.967115,1110.269686,-9399.007173
380.148235,1531.406464,1014.556782,-9647.860723
380.151394,401.994197,344.566454,-9686.145885
380.154554,-650.847747,1033.699363,-9571.290400
380.157713,-1071.984525,1416.550979,-9456.434915
380.160872,995.414202,287.138712,-9628.718142
380.164024,2239.681954,2029.113565,-9418.149754
380.167176,1837.687757,-440.279358,-9877.571693
380.170328,1550.549045,1684.547110,-9035.298138
380.173479,306.281293,1550.549045,-9724.431046
380.176631,-1550.549045,1493.121302,-9284.151688
380.179783,-976.271621,1244.267752,-9647.860723
380.182935,172.283227,401.994197,-9705.288466
380.186086,1167.697429,669.990328,-9418.149754
380.189238,861.416136,-765.703232,-10011.569758
380.192390,382.851616,1454.836141,-9188.438784
380.195542,1014.556782,-440.279358,-9839.286531
380.198694,-133.998066,2143.969050,-9284.151688
380.201845,-306.281293,-382.851616,-9877.571693
380.204997,-1225.125171,727.418070,-9705.288466
380.208149,-248.853550,1875.972918,-9762.716208
380.211301,76.570323,1627.119368,-9073.583299
380.214452,2316.252277,-191.425808,-9456.434915
380.217604,3598.805190,-287.138712,-10049.854920
380.220756,497.707101,287.138712,-9571.290400
380.223908,-1110.269686,727.418070,-9647.860723
380.227060,-976.271621,1493.121302,-9647.860723
380.230211,-191.425808,708.275490,-10107.282662
380.233363,114.855485,2029.113565,-9111.868461
380.236515,1282.552914,267.996131,-9724.431046
380.239667,2756.531635,957.129040,-9303.294269
380.242818,2947.957443,535.992262,-9609.575562
380.245970,918.843878,-133.998066,-9686.145885
380.249122,497.707101,2660.818731,-9111.868461
380.252274,19.142581,957.129040,-10030.712339
380.255426,-1167.697429,1493.121302,-9265.009107
380.258577,344.566454,708.275490,-9858.429112
380.261729,880.558717,823.130974,-9475.577496
380.264875,1339.980656,-421.136778,-9513.862658
380.268020,210.568389,-114.855485,-9705.288466
380.271166,-746.560651,1320.838075,-9494.720077
380.274312,57.427742,823.130974,-9628.718142
380.277457,-287.138712,2009.970984,-9533.005238
380.280603,-325.423874,-497.707101,-9896.714274
380.283749,-401.994197,1244.267752,-9437.292334
380.286894,1512.263883,1129.412267,-9896.714274
380.290040,1397.408398,1875.972918,-8805.587168
380.293186,2009.970984,-1837.687757,-9839.286531
380.296331,2009.970984,-19.142581,-9954.142016
380.299477,-612.562586,631.705166,-9743.573627
380.302623,-1588.834206,1033.699363,-9667.003304
380.305768,76.570323,3043.670347,-9054.440718
380.308914,-76.570323,76.570323,-10241.280728
380.312059,2124.826469,2565.105827,-8882.157491
380.315205,2048.256146,-1129.412267,-9839.286531
380.318351,1818.545176,1971.685822,-9245.866526
380.321496,421.136778,248.853550,-9858.429112
380.324642,-172.283227,1282.552914,-9437.292334
380.327788,-38.285162,2182.254211,-9552.147819
380.330933,248.853550,1186.840010,-9667.003304
380.334079,133.998066,1301.695494,-9284.151688
380.337225,1339.980656,114.855485,-9762.716208
380.340370,1722.832272,1071.984525,-9169.296203
380.343516,765.703232,-1435.693560,-9877.571693
380.346662,-229.710970,1071.984525,-9322.436850
380.349807,-995.414202,823.130974,-9820.143950
380.352953,440.279358,1167.697429,-9399.007173
380.356099,-401.994197,1052.841944,-9686.145885
380.359244,612.562586,421.136778,-9590.432981
380.362390,784.845813,1071.984525,-9284.151688
380.365553,1091.127106,57.427742,-9839.286531
380.368717,-57.427742,1071.984525,-9073.583299
380.371880,937.986459,-1837.687757,-10126.425243
380.375043,1129.412267,1186.840010,-9628.718142
380.378207,-478.564520,76.570323,-10068.997501
380.381370,-689.132909,1263.410333,-9418.149754
380.384533,1282.552914,2660.818731,-9016.155557
380.387696,1244.267752,459.421939,-10145.567824
380.390860,1684.547110,1454.836141,-8920.442653
380.394023,1205.982590,-861.416136,-9934.999435
380.397186,57.427742,2603.390989,-9399.007173
380.400350,248.853550,191.425808,-9954.142016
380.403513,-708.275490,1722.832272,-9245.866526
380.406676,535.992262,1493.121302,-9801.001370
380.409840,1914.258080,2354.537438,-9207.581365
380.413003,746.560651,382.851616,-9245.866526
380.416166,593.420005,114.855485,-9858.429112
380.419330,899.701298,823.130974,-9418.149754
380.422493,-497.707101,-516.849682,-9954.142016
380.425656,-1167.697429,1818.545176,-9150.153622
380.428820,-880.558717,210.568389,-9973.284597
380.431983,1167.697429,1837.687757,-9303.294269
380.435146,1435.693560,114.855485,-9571.290400
380.438310,1569.691626,1665.404530,-9092.725880
380.441473,478.564520,-516.849682,-9781.858789
380.444636,-689.132909,535.992262,-9896.714274
380.447799,-708.275490,2086.541307,-9131.011042
380.450963,535.992262,-803.988394,-9954.142016
380.454126,1895.115499,2009.970984,-9284.151688
380.457289,1378.265818,133.998066,-10126.425243
380.460453,861.416136,1129.412267,-9169.296203
380.463616,574.277424,535.992262,-9475.577496
380.466776,248.853550,803.988394,-9973.284597
380.469954,-267.996131,382.851616,-9475.577496
380.473133,19.142581,880.558717,-9571.290400
380.476312,-114.855485,1225.125171,-9743.573627
380.479490,937.986459,382.851616,-9781.858789
380.482669,1378.265818,1473.978722,-9073.583299
380.485848,1646.261949,440.279358,-9954.142016
380.489026,765.703232,1818.545176,-9226.723946
380.492205,-1263.410333,-153.140646,-9743.573627
380.495384,-555.134843,1473.978722,-9571.290400
380.498563,57.427742,1493.121302,-9513.862658
380.501741,-593.420005,-19.142581,-9705.288466
380.504920,-57.427742,1416.550979,-9284.151688
380.508099,1627.119368,-421.136778,-10088.140082
380.511277,1244.267752,1167.697429,-9188.438784
380.514456,-842.273555,-957.129040,-9934.999435
380.543065,1971.685822,1359.123237,-9188.438784
380.546243,1550.549045,-440.279358,-9877.571693
380.549422,1033.699363,1378.265818,-9456.434915
380.552601,-1148.554848,-497.707101,-9858.429112
380.555779,-803.988394,2986.242605,-9207.581365
380.558958,1282.552914,133.998066,-10011.569758
380.562137,1971.685822,995.414202,-9188.438784
380.565315,2258.824534,1148.554848,-9667.003304
380.568485,2067.398726,1607.976787,-9341.579430
380.571655,-555.134843,823.130974,-9437.292334
380.574825,-574.277424,344.566454,-9628.718142
380.577995,38.285162,1282.552914,-9533.005238
380.581165,-421.136778,57.427742,-10030.712339
380.584334,-555.134843,1320.838075,-9150.153622
380.587504,727.418070,325.423874,-9724.431046
380.590674,1895.115499,976.271621,-9437.292334
380.593844,-287.138712,-114.855485,-9590.432981
380.597014,555.134843,1186.840010,-9303.294269
380.600184,-555.134843,784.845813,-9896.714274
380.603353,-1186.840010,172.283227,-9801.001370
380.606523,-287.138712,1531.406464,-9265.009107
380.609693,1952.543242,325.423874,-9820.143950
380.612863,2469.392923,2163.111630,-9399.007173
380.616033,2220.539373,401.994197,-9494.720077
380.619203,727.418070,669.990328,-9322.436850
380.622373,-153.140646,1320.838075,-9628.718142
380.625542,-19.142581,842.273555,-9839.286531
380.628712,-1512.263883,1263.410333,-9590.432981
380.631882,497.707101,899.701298,-9647.860723
380.635052,1799.402595,1129.412267,-9513.862658
380.638222,2029.113565,95.712904,-9877.571693
380.641392,1205.982590,1148.554848,-9111.868461
380.644561,1205.982590,-746.560651,-9820.143950
380.647731,-995.414202,1186.840010,-9552.147819
380.650901,-1684.547110,497.707101,-9973.284597
380.654071,-669.990328,306.281293,-9609.575562
380.657241,746.560651,727.418070,-9475.577496
380.660411,1167.697429,478.564520,-9724.431046
380.663580,267.996131,880.558717,-9303.294269
380.666750,1454.836141,-76.570323,-9609.575562
380.669935,440.279358,1665.404530,-9705.288466
380.673120,-727.418070,-267.996131,-9781.858789
380.676306,-765.703232,1320.838075,-9667.003304
380.679491,-459.421939,1052.841944,-9992.427178
380.682676,459.421939,1282.552914,-8977.870395
380.685861,1780.260014,-880.558717,-9667.003304
380.689046,2297.109696,76.570323,-9801.001370
380.692231,-133.998066,823.130974,-9667.003304
380.695416,-459.421939,344.566454,-9379.864592
380.698601,-440.279358,1856.830338,-9513.862658
380.701786,210.568389,440.279358,-10241.280728
380.704971,459.421939,1148.554848,-9322.436850
380.708157,1569.691626,306.281293,-9647.860723
380.711342,1799.402595,708.275490,-9609.575562
380.714527,1895.115499,593.420005,-9571.290400
380.717712,497.707101,19.142581,-9686.145885
380.720897,-344.566454,1588.834206,-9571.290400
380.724082,-478.564520,1569.691626,-9552.147819
380.727267,-2048.256146,1148.554848,-9552.147819
380.730452,210.568389,918.843878,-9762.716208
380.733637,1761.117434,1263.410333,-9456.434915
380.736822,1990.828403,248.853550,-9265.009107
380.740008,574.277424,172.283227,-9801.001370
380.743193,1148.554848,-57.427742,-9743.573627
380.746391,421.136778,995.414202,-9533.005238
380.749590,-1129.412267,1014.556782,-9705.288466
380.752788,-1416.550979,191.425808,-9762.716208
380.755987,1186.840010,2105.683888,-9379.864592
380.759185,1186.840010,38.285162,-9724.431046
380.762383,1837.687757,-306.281293,-9303.294269
380.765582,1435.693560,-267.996131,-9820.143950
380.768780,-153.140646,1493.121302,-9705.288466
380.771979,-1014.556782,1818.545176,-9418.149754
380.775177,-842.273555,746.560651,-9609.575562
380.778376,650.847747,1378.265818,-9552.147819
380.781574,1320.838075,612.562586,-9915.856854
380.784773,1933.400661,593.420005,-9169.296203
380.787971,689.132909,-497.707101,-9781.858789
380.791169,1627.119368,1244.267752,-9762.716208
380.794368,-267.996131,38.285162,-9552.147819
380.797566,-497.707101,1512.263883,-9418.149754
380.800765,19.142581,1741.974853,-9628.718142
380.803963,57.427742,957.129040,-9513.862658
380.807162,1052.841944,1320.838075,-9456.434915
380.810360,2239.681954,669.990328,-9513.862658
380.813559,1397.408398,631.705166,-9341.579430
380.816757,57.427742,-555.134843,-9781.858789
380.819956,-1148.554848,1378.265818,-9647.860723
380.823154,-516.849682,-57.427742,-10049.854920
380.826352,-1071.984525,1627.119368,-9092.725880
380.829551,-229.710970,153.140646,-9896.714274
380.832749,1875.972918,746.560651,-9552.147819
380.835948,612.562586,-535.992262,-9475.577496
380.839146,-516.849682,-1225.125171,-9934.999435
380.842345,689.132909,1627.119368,-9341.579430
380.845543,-574.277424,497.707101,-10030.712339
380.848754,-478.564520,2488.535504,-8939.585234
380.851964,1014.556782,1129.412267,-9724.431046
380.855175,899.701298,918.843878,-9628.718142
380.858386,1512.263883,727.418070,-9303.294269
380.861596,1722.832272,210.568389,-9781.858789
380.864807,-95.712904,363.709035,-9552.147819
380.868018,229.710970,880.558717,-9724.431046
380.871228,-478.564520,1875.972918,-9552.147819
380.874439,-382.851616,382.851616,-9667.003304
380.877650,401.994197,1895.115499,-9131.011042
380.880860,344.566454,248.853550,-9915.856854
380.884071,1244.267752,1167.697429,-9284.151688
380.887281,1033.699363,325.423874,-9647.860723
380.890492,1052.841944,363.709035,-9513.862658
380.893703,-401.994197,1110.269686,-9571.290400
380.896913,-842.273555,-306.281293,-10068.997501
380.900124,0.000000,2258.824534,-9188.438784
380.903335,593.420005,-708.275490,-10011.569758
380.906545,478.564520,1493.121302,-9284.151688
380.909756,1952.543242,-248.853550,-9992.427178
380.912967,401.994197,612.562586,-9303.294269
380.916177,-631.705166,-210.568389,-9839.286531
380.919388,38.285162,746.560651,-9762.716208
380.922598,-861.416136,880.558717,-9839.286531
380.925809,-363.709035,1071.984525,-9571.290400
380.929020,1091.127106,1952.543242,-9073.583299
380.932230,1722.832272,-172.283227,-10011.569758
380.935441,1167.697429,1588.834206,-9303.294269
380.938652,1875.972918,-229.710970,-9571.290400
380.941862,746.560651,1550.549045,-9686.145885
380.945073,-57.427742,95.712904,-9992.427178
380.948283,38.285162,1014.556782,-9169.296203
380.951504,1052.841944,1091.127106,-9839.286531
380.954725,-76.570323,1167.697429,-9552.147819
380.957946,153.140646,478.564520,-9092.725880
380.961167,689.132909,-114.855485,-9896.714274
380.964388,478.564520,1952.543242,-9418.149754
380.967609,-57.427742,0.000000,-9801.001370
380.970830,-57.427742,1416.550979,-9475.577496
380.974051,306.281293,861.416136,-9839.286531
380.977272,344.566454,612.562586,-9667.003304
380.980493,1454.836141,1569.691626,-9016.155557
380.983714,669.990328,-612.562586,-9896.714274
380.986935,880.558717,669.990328,-9418.149754
380.990156,-38.285162,57.427742,-9743.573627
380.993377,-57.427742,1263.410333,-9418.149754
380.996598,1071.984525,516.849682,-9762.716208
380.999819,287.138712,401.994197,-9762.716208
381.003040,976.271621,1263.410333,-9667.003304
381.006261,1033.699363,861.416136,-9628.718142
381.009482,1397.408398,516.849682,-9341.579430
381.012703,478.564520,-306.281293,-9954.142016
381.015924,-153.140646,2316.252277,-9418.149754
381.019145,133.998066,-440.279358,-9915.856854
381.022366,210.568389,2048.256146,-9571.290400
381.025586,957.129040,708.275490,-9762.716208
381.054657,-689.132909,2029.113565,-9303.294269
381.057888,-746.560651,-401.994197,-9896.714274
381.061118,-325.423874,1397.408398,-9513.862658
381.064348,1799.402595,172.283227,-9781.858789
381.067578,1550.549045,1225.125171,-9092.725880
381.070808,1071.984525,-1263.410333,-9801.001370
381.074038,708.275490,631.705166,-9590.432981
381.077268,-57.427742,1780.260014,-9609.575562
381.080498,-689.132909,1416.550979,-9513.862658
381.083728,-382.851616,2067.398726,-9169.296203
381.086959,650.847747,574.277424,-9973.284597
381.090189,1435.693560,1646.261949,-9303.294269
381.093419,2105.683888,-172.283227,-9322.436850
381.096649,1091.127106,823.130974,-9590.432981
381.099879,937.986459,-708.275490,-9954.142016
381.103109,210.568389,1359.123237,-9245.866526
381.106339,-459.421939,976.271621,-9896.714274
381.109569,-784.845813,976.271621,-9801.001370
381.112799,-440.279358,880.558717,-9265.009107
381.116029,516.849682,229.710970,-10126.425243
381.119260,1856.830338,1703.689691,-9284.151688
381.122490,1205.982590,-765.703232,-9552.147819
381.125720,421.136778,880.558717,-9571.290400
381.128950,-689.132909,765.703232,-9973.284597
381.132180,-1397.408398,995.414202,-9609.575562
381.135410,-976.271621,1588.834206,-9303.294269
381.138640,210.568389,421.136778,-9877.571693
381.141870,1378.265818,1148.554848,-9418.149754
381.145100,1110.269686,-229.710970,-9571.290400
381.148331,842.273555,1110.269686,-9303.294269
381.151561,2105.683888,363.709035,-9839.286531
381.154791,191.425808,708.275490,-9667.003304
381.158029,-823.130974,440.279358,-9781.858789
381.161267,-172.283227,957.129040,-9705.288466
381.164506,1129.412267,1359.123237,-9418.149754
381.167744,1282.552914,497.707101,-9839.286531
381.170982,1148.554848,861.416136,-9341.579430
381.174221,1741.974853,-57.427742,-9609.575562
381.177459,-38.285162,1416.550979,-9552.147819
381.180698,229.710970,1071.984525,-9915.856854
381.183936,-612.562586,1684.547110,-9226.723946
381.187174,-1225.125171,497.707101,-9801.001370
381.190413,1052.841944,1703.689691,-9628.718142
381.193651,1837.687757,133.998066,-9494.720077
381.196889,803.988394,-459.421939,-9686.145885
381.200128,459.421939,497.707101,-9456.434915
381.203366,-153.140646,191.425808,-9896.714274
381.206604,-689.132909,2354.537438,-9437.292334
381.209843,-57.427742,-153.140646,-9781.858789
381.213081,-325.423874,1110.269686,-9513.862658
381.216319,497.707101,612.562586,-10164.710405
381.219558,1703.689691,1627.119368,-9150.153622
381.222796,1607.976787,-631.705166,-9533.005238
381.226034,937.986459,-153.140646,-9705.288466
381.229273,-325.423874,1416.550979,-9552.147819
381.232511,-1205.982590,1550.549045,-9762.716208
381.235749,-708.275490,2048.256146,-9169.296203
381.238988,1014.556782,689.132909,-9839.286531
381.242226,1703.689691,1071.984525,-9647.860723
381.245464,2526.820666,382.851616,-9131.011042
381.248703,1818.545176,555.134843,-9667.003304
381.251941,1225.125171,-267.996131,-9705.288466
381.255179,669.990328,1148.554848,-9379.864592
381.258418,-516.849682,899.701298,-9915.856854
381.261663,-1205.982590,899.701298,-9743.573627
381.264909,-325.423874,880.558717,-9284.151688
381.268155,535.992262,-267.996131,-10049.854920
381.271400,1512.263883,1493.121302,-9456.434915
381.274646,937.986459,-153.140646,-9437.292334
381.277892,823.130974,191.425808,-9552.147819
381.281137,229.710970,1320.838075,-9762.716208
381.284383,-516.849682,363.709035,-9705.288466
381.287629,-1665.404530,1301.695494,-9456.434915
381.290874,114.855485,746.560651,-9877.571693
381.294120,880.558717,1033.699363,-9188.438784
381.297366,1282.552914,-746.560651,-9705.288466
381.300612,2201.396792,1052.841944,-9284.151688
381.303857,1071.984525,727.418070,-9647.860723
381.307103,-114.855485,1607.976787,-9303.294269
381.310349,421.136778,1129.412267,-9609.575562
381.313594,708.275490,440.279358,-10126.425243
381.316840,-133.998066,880.558717,-9303.294269
381.320086,1071.984525,1301.695494,-9456.434915
381.323331,1607.976787,937.986459,-9647.860723
381.326577,1359.123237,-401.994197,-9475.577496
381.329823,1052.841944,1339.980656,-9399.007173
381.333068,-344.566454,76.570323,-10202.995566
381.336314,-1531.406464,918.843878,-9475.577496
381.339560,-1933.400661,363.709035,-9628.718142
381.342805,210.568389,1320.838075,-9858.429112
381.346051,1799.402595,880.558717,-9437.292334
381.349297,1473.978722,-803.988394,-9513.862658
381.352542,1378.265818,612.562586,-9552.147819
381.355788,1052.841944,-153.140646,-10011.569758
381.359034,-861.416136,1052.841944,-9418.149754
381.362279,-1205.982590,574.277424,-9877.571693
381.365531,-267.996131,1416.550979,-9533.005238
381.368783,-287.138712,-133.998066,-9667.003304
381.372036,918.843878,459.421939,-9839.286531
381.375288,2163.111630,1263.410333,-9207.581365
381.378540,1665.404530,516.849682,-9571.290400
381.381792,727.418070,1186.840010,-9437.292334
381.385044,918.843878,172.283227,-9915.856854
381.388296,19.142581,746.560651,-9801.001370
381.391548,-574.277424,995.414202,-9437.292334
381.394800,401.994197,1990.828403,-9590.432981
381.398052,1780.260014,-306.281293,-9686.145885
381.401304,2584.248408,1282.552914,-9265.009107
381.404556,2660.818731,497.707101,-9762.716208
381.407808,191.425808,-248.853550,-9628.718142
381.411061,-1914.258080,1014.556782,-9647.860723
381.414313,-2431.107762,765.703232,-9973.284597
381.417565,-1071.984525,1071.984525,-9667.003304
381.420817,0.000000,382.851616,-9705.288466
381.424069,995.414202,842.273555,-9609.575562
381.427321,937.986459,191.425808,-9647.860723
381.430573,1761.117434,516.849682,-9437.292334
381.433825,-612.562586,497.707101,-9686.145885
381.437077,-1244.267752,344.566454,-9820.143950
381.440329,-689.132909,1550.549045,-9590.432981
381.443581,-765.703232,114.855485,-9858.429112
381.446833,535.992262,1110.269686,-9552.147819
381.450086,2297.109696,401.994197,-9437.292334
381.453338,2124.826469,1856.830338,-9226.723946
381.456590,1225.125171,650.847747,-9475.577496
381.459842,823.130974,-57.427742,-9686.145885
381.463094,-191.425808,784.845813,-9781.858789
381.466346,-1531.406464,1435.693560,-9609.575562
381.469595,-1416.550979,1646.261949,-9418.149754
381.472852,669.990328,382.851616,-9686.145885
381.476109,2545.963246,1301.695494,-9647.860723
381.479366,2794.816797,-114.855485,-9686.145885
381.482622,669.990328,153.140646,-9226.723946
381.485879,-229.710970,-248.853550,-10107.282662
381.489136,-1167.697429,1033.699363,-9513.862658
381.492393,-1205.982590,248.853550,-9686.145885
381.495650,-440.279358,765.703232,-9667.003304
381.498907,153.140646,727.418070,-9647.860723
381.502164,153.140646,-172.283227,-9877.571693
381.505421,1741.974853,1856.830338,-9456.434915
381.508678,899.701298,-708.275490,-9724.431046
381.511935,-459.421939,1071.984525,-9303.294269
381.515192,38.285162,382.851616,-10164.710405
381.518449,-803.988394,1052.841944,-9513.862658
381.547762,2316.252277,-153.140646,-9475.577496
381.551019,478.564520,2029.113565,-9628.718142
381.554276,-784.845813,363.709035,-9820.143950
381.557533,2909.672282,689.132909,-9188.438784
381.560790,2431.107762,1129.412267,-9571.290400
381.564047,382.851616,-382.851616,-9858.429112
381.567303,-516.849682,823.130974,-9188.438784
381.570560,823.130974,-306.281293,-10260.423309
