#time,accel_x,accel_y,accel_z
6581.065225,842.273555,57.427742,-9858.429112
6581.067779,1454.836141,765.703232,-9781.858789
6581.070334,1531.406464,-172.283227,-9877.571693
6581.072888,2699.103893,-842.273555,-9896.714274
6581.075442,593.420005,2871.387120,-9475.577496
6581.077997,2775.674216,-6202.196179,-11045.269122
6581.080551,1473.978722,-2411.965181,-8977.870395
6581.083105,-3464.807125,4996.213589,-9073.583299
6581.085660,3235.096155,-3598.805190,-12098.111066
6581.088214,1110.269686,5206.781978,-9437.292334
6581.090768,2450.250342,1971.685822,-9418.149754
6581.093323,-1780.260014,1263.410333,-8327.022648
6581.095877,-421.136778,1033.699363,-9954.142016
6581.098448,1493.121302,1435.693560,-10834.700733
6581.101018,-631.705166,-95.712904,-10011.569758
6581.103589,1761.117434,-1990.828403,-10241.280728
6581.106160,-708.275490,4230.510357,-8461.020714
6581.108731,-516.849682,1167.697429,-9456.434915
6581.111302,-2986.242605,3828.516160,-10241.280728
6581.113873,1627.119368,172.283227,-11102.696864
6581.116443,1301.695494,1895.115499,-8920.442653
6581.119014,1167.697429,-325.423874,-9513.862658
6581.121585,-937.986459,325.423874,-9973.284597
6581.124156,-363.709035,1627.119368,-10126.425243
6581.126727,191.425808,1665.404530,-10470.991698
6581.129298,555.134843,784.845813,-9418.149754
6581.131868,344.566454,535.992262,-9131.011042
6581.134439,95.712904,478.564520,-9724.431046
6581.137010,-38.285162,1263.410333,-10202.995566
6581.139581,823.130974,497.707101,-10413.563955
6581.142152,-2163.111630,1186.840010,-9590.432981
6581.144722,-1895.115499,-172.283227,-9533.005238
6581.147293,-1493.121302,1512.263883,-9475.577496
6581.149864,3483.949706,631.705166,-10279.565890
6581.152435,-19.142581,7006.184573,-9494.720077
6581.155006,-1818.545176,3885.943902,-10413.563955
6581.157577,-1703.689691,-440.279358,-9379.864592
6581.160147,-459.421939,1339.980656,-9379.864592
6581.162718,1818.545176,-2947.957443,-11026.126541
6581.165289,133.998066,1531.406464,-9705.288466
6581.167860,746.560651,-1129.412267,-9781.858789
6581.170431,823.130974,-1359.123237,-9934.999435
6581.173002,-5034.498750,7293.323285,-8652.446522
6581.175572,5379.065205,-4977.071008,-11657.831707
6581.178143,4019.941968,9820.143950,-8518.448456
6581.180714,-3101.098090,8346.165229,-7944.171032
6581.183285,2986.242605,-11753.544611,-11906.685258
6581.185856,-650.847747,4230.510357,-8518.448456
6581.188426,2431.107762,-3158.525832,-10911.271056
6581.190997,248.853550,3235.096155,-9341.579430
6581.193568,4919.643266,2890.529701,-9820.143950
6581.196139,-842.273555,-421.136778,-9111.868461
6581.198710,-2526.820666,-344.566454,-10049.854920
6581.201181,2163.111630,-3120.240670,-10930.413637
6581.203652,2067.398726,1225.125171,-9705.288466
6581.206123,1493.121302,2373.680019,-9379.864592
6581.208594,2622.533570,-1301.695494,-9820.143950
6581.211064,784.845813,-19.142581,-9360.722011
6581.213535,-19.142581,-1129.412267,-10796.415571
6581.216006,-803.988394,2622.533570,-9667.003304
6581.218477,1531.406464,842.273555,-9724.431046
6581.220948,2373.680019,248.853550,-9801.001370
6581.223419,842.273555,516.849682,-9150.153622
6581.225890,-95.712904,-210.568389,-10183.852986
6581.228361,516.849682,899.701298,-10202.995566
6581.230832,842.273555,937.986459,-10145.567824
6581.233303,1339.980656,-401.994197,-9552.147819
6581.235774,976.271621,516.849682,-9265.009107
6581.238245,-497.707101,382.851616,-10107.282662
6581.240716,3445.664544,-1071.984525,-10490.134278
6581.243187,3081.955509,1665.404530,-9724.431046
6581.245658,2105.683888,-3349.951640,-10183.852986
6581.248129,-2392.822600,2316.252277,-8805.587168
6581.250600,1071.984525,-535.992262,-10107.282662
6581.253071,-516.849682,-1914.258080,-10681.560086
6581.255542,3694.518094,1244.267752,-10336.993632
6581.258013,1205.982590,2890.529701,-8920.442653
6581.260484,1971.685822,-95.712904,-8901.300072
6581.262955,-1837.687757,1033.699363,-9762.716208
6581.265425,2565.105827,-5072.783912,-11466.405899
6581.267896,-574.277424,6374.479406,-8843.872330
6581.270367,2163.111630,-6891.329088,-11313.265253
6581.272838,2067.398726,-4192.225195,-10470.991698
6581.275309,-3885.943902,12806.386555,-7082.754896
6581.277780,133.998066,-5379.065205,-11734.402030
6581.280251,1205.982590,5149.354235,-9628.718142
6581.282722,1320.838075,2488.535504,-9686.145885
6581.285193,-1627.119368,-746.560651,-9322.436850
6581.287664,114.855485,918.843878,-9628.718142
6581.290135,-2392.822600,210.568389,-10298.708470
6581.292606,1588.834206,-823.130974,-10604.989763
6581.295077,2067.398726,4000.799387,-9379.864592
6581.297548,-2737.389054,5091.926493,-8729.016845
6581.300058,306.281293,-1148.554848,-10107.282662
6581.302569,267.996131,1722.832272,-9877.571693
6581.305079,133.998066,363.709035,-10375.278794
6581.307590,-1378.265818,478.564520,-10107.282662
6581.310100,-133.998066,3541.377448,-8958.727814
6581.312611,191.425808,-19.142581,-9724.431046
6581.315121,842.273555,478.564520,-9915.856854
6581.317631,669.990328,1110.269686,-10145.567824
6581.320142,153.140646,842.273555,-9973.284597
6581.322652,-172.283227,593.420005,-9647.860723
6581.325163,1225.125171,746.560651,-9207.581365
6581.327673,784.845813,803.988394,-10011.569758
6581.330184,-1129.412267,842.273555,-10260.423309
6581.332694,-287.138712,421.136778,-9915.856854
6581.335205,-2718.246474,2182.254211,-9284.151688
6581.337715,-612.562586,1435.693560,-9762.716208
6581.340225,2335.394858,1665.404530,-9954.142016
6581.342736,-1244.267752,3981.656806,-9552.147819
6581.345246,-344.566454,3369.094221,-9437.292334
6581.347757,76.570323,-1225.125171,-10126.425243
6581.350267,-593.420005,861.416136,-10202.995566
6581.352778,880.558717,-1110.269686,-9915.856854
6581.355288,-1052.841944,5302.494882,-8824.729749
6581.357798,1167.697429,-1359.123237,-10566.704602
6581.360309,1091.127106,1205.982590,-9762.716208
6581.362819,-4594.219392,4651.647134,-9245.866526
6581.365330,1531.406464,-6853.043926,-11734.402030
6581.367840,3081.955509,535.992262,-9667.003304
6581.370351,-1665.404530,7408.178770,-8173.882002
6581.372861,4058.227130,-10700.702667,-12136.396227
6581.375372,-1703.689691,7274.180704,-8307.880067
6581.377882,2622.533570,-4039.084549,-10853.843314
6581.380392,-153.140646,2909.672282,-8824.729749
6581.382903,5091.926493,1512.263883,-10317.851051
6581.385413,-306.281293,-2220.539373,-9781.858789
6581.387924,-1990.828403,593.420005,-9667.003304
6581.390434,2277.967115,-3081.955509,-10700.702667
6581.392945,1091.127106,4077.369710,-8499.305875
6581.395455,1990.828403,-267.996131,-10202.995566
6581.397966,1339.980656,-267.996131,-9858.429112
6581.400504,1914.258080,555.134843,-9360.722011
6581.403043,-191.425808,-1205.982590,-10375.278794
6581.405581,880.558717,-19.142581,-10088.140082
6581.408120,421.136778,2029.113565,-9533.005238
6581.410658,1110.269686,401.994197,-9858.429112
6581.413197,708.275490,-76.570323,-9705.288466
6581.415736,861.416136,937.986459,-9801.001370
6581.418274,19.142581,267.996131,-10068.997501
6581.420813,593.420005,1359.123237,-9992.427178
6581.423351,-267.996131,440.279358,-9934.999435
6581.425890,3196.810994,-535.992262,-9360.722011
6581.428428,2756.531635,784.845813,-9609.575562
6581.430967,2316.252277,-1684.547110,-10585.847182
6581.433506,-1627.119368,-287.138712,-9839.286531
6581.436044,861.416136,-440.279358,-9858.429112
6581.438583,2316.252277,1091.127106,-8786.444587
6581.441121,-306.281293,3464.807125,-9590.432981
6581.443660,3120.240670,-4173.082614,-11542.976222
6581.446198,-1091.127106,3024.527766,-8939.585234
6581.448737,3349.951640,-4134.797453,-10758.130410
6581.451276,-2182.254211,6259.623922,-8269.594906
6581.453814,3560.520029,-3847.658741,-10547.562021
6581.456353,2220.539373,1665.404530,-9743.573627
6581.458891,-1761.117434,1359.123237,-10241.280728
6581.461430,-823.130974,-8518.448456,-11313.265253
6581.463969,2641.676150,4230.510357,-9322.436850
6581.466507,-1780.260014,7178.467800,-9226.723946
6581.469046,2086.541307,-4249.652938,-10758.130410
6581.471584,-957.129040,7982.456194,-8288.737486
6581.474123,248.853550,-2143.969050,-10394.421374
6581.476661,-516.849682,765.703232,-9494.720077
6581.479200,-2507.678085,3694.518094,-9494.720077
6581.481739,2909.672282,-3579.662610,-10777.272990
6581.484277,1071.984525,-612.562586,-9877.571693
6581.486816,-2833.101958,5034.498750,-9399.007173
6581.489354,-976.271621,-95.712904,-9781.858789
6581.491893,1129.412267,2029.113565,-9513.862658
6581.494431,995.414202,401.994197,-10260.423309
6581.496970,133.998066,-937.986459,-10011.569758
6581.499509,-1607.976787,3943.371645,-9245.866526
6581.501994,-401.994197,1282.552914,-9858.429112
6581.504476,880.558717,440.279358,-9934.999435
6581.506958,976.271621,1225.125171,-9341.579430
6581.509439,229.710970,574.277424,-10260.423309
6581.511921,-593.420005,842.273555,-9934.999435
6581.514402,574.277424,631.705166,-9475.577496
6581.516884,-248.853550,861.416136,-9590.432981
6581.519366,-880.558717,1684.547110,-10088.140082
6581.521847,-2201.396792,3024.527766,-9743.573627
6581.524329,995.414202,-976.271621,-10030.712339
6581.526810,-1110.269686,4575.076811,-8901.300072
6581.529292,-1091.127106,1799.402595,-9934.999435
6581.531774,1397.408398,-2871.387120,-10968.698798
6581.534255,-1473.978722,4613.361973,-9054.440718
6581.536737,631.705166,1052.841944,-9686.145885
6581.539218,-2565.105827,4364.508422,-8729.016845
6581.541700,2986.242605,-4517.649069,-11198.409768
6581.544181,-1339.980656,3866.801322,-9303.294269
6581.546663,-1473.978722,-2029.113565,-10624.132344
6581.549145,1627.119368,976.271621,-9686.145885
6581.551626,-1110.269686,9781.858789,-7580.461997
6581.554108,-1071.984525,-1627.119368,-10107.282662
6581.556589,3043.670347,-4421.936165,-10604.989763
6581.559071,-1914.258080,6642.475538,-8652.446522
6581.561553,2450.250342,-7331.608446,-11542.976222
6581.564034,-325.423874,2182.254211,-9073.583299
6581.566516,4441.078746,784.845813,-10298.708470
6581.568997,612.562586,-2507.678085,-10107.282662
6581.571479,-1875.972918,2009.970984,-9418.149754
6581.573961,1263.410333,1914.258080,-9934.999435
6581.576442,1397.408398,-899.701298,-9437.292334
6581.578924,2507.678085,-1761.117434,-10356.136213
6581.581405,1071.984525,650.847747,-9973.284597
6581.583887,1014.556782,172.283227,-9743.573627
6581.586369,1129.412267,-612.562586,-9992.427178
6581.588850,1531.406464,784.845813,-9647.860723
6581.591332,325.423874,306.281293,-9820.143950
6581.593813,133.998066,823.130974,-10202.995566
6581.596295,344.566454,555.134843,-9820.143950
6581.598777,1244.267752,516.849682,-9399.007173
6581.601292,440.279358,842.273555,-10068.997501
6581.603808,918.843878,631.705166,-10049.854920
6581.606323,1282.552914,650.847747,-9686.145885
6581.608839,2316.252277,-1205.982590,-10049.854920
6581.611354,2794.816797,-746.560651,-9820.143950
6581.613870,-803.988394,2890.529701,-9705.288466
6581.616385,1339.980656,-4345.365842,-10777.272990
6581.618901,2086.541307,-995.414202,-9226.723946
6581.621416,-727.418070,5283.352301,-9188.438784
6581.623932,3005.385186,-4364.508422,-11140.982026
6581.626448,-401.994197,2775.674216,-9111.868461
6581.628963,3579.662610,-4115.654872,-11006.983960
6581.631479,-1741.974853,5206.781978,-8384.450390
6581.633994,2067.398726,191.425808,-9705.288466
6581.636510,4594.219392,-3598.805190,-10738.987829
6581.639025,-3426.521963,8863.014910,-8039.883936
6581.641541,-1052.841944,-7752.745224,-11255.837510
6581.644056,2297.109696,2660.818731,-9781.858789
6581.646572,-1818.545176,7599.604578,-9054.440718
6581.649087,1761.117434,-3981.656806,-10853.843314
6581.651603,-1091.127106,7427.321350,-8307.880067
6581.654118,957.129040,-746.560651,-10260.423309
6581.656634,-440.279358,421.136778,-9609.575562
6581.659150,-1282.552914,4689.932296,-9475.577496
6581.661665,2201.396792,-1435.693560,-10451.849117
6581.664181,1722.832272,-153.140646,-9820.143950
6581.666696,-4058.227130,5302.494882,-9437.292334
6581.669212,-574.277424,-1607.976787,-10145.567824
6581.671727,784.845813,4058.227130,-9265.009107
6581.674243,1167.697429,-267.996131,-10470.991698
6581.676758,57.427742,-401.994197,-9724.431046
6581.679274,-574.277424,2986.242605,-9303.294269
6581.681789,-899.701298,784.845813,-10202.995566
6581.684305,861.416136,727.418070,-9820.143950
6581.686820,1512.263883,1225.125171,-9647.860723
6581.689336,-842.273555,382.851616,-9839.286531
6581.691851,363.709035,957.129040,-9686.145885
6581.694367,-344.566454,1646.261949,-9781.858789
6581.696883,-861.416136,937.986459,-9820.143950
6581.699398,880.558717,2469.392923,-9647.860723
6581.701875,-1473.978722,1397.408398,-9877.571693
6581.704352,-1646.261949,-382.851616,-10298.708470
6581.706829,2335.394858,2909.672282,-9686.145885
6581.709306,-1186.840010,5168.496816,-9169.296203
6581.711783,-248.853550,-2622.533570,-10738.987829
6581.714259,957.129040,229.710970,-9552.147819
6581.716736,-1607.976787,4192.225195,-9131.011042
6581.719213,210.568389,-2239.681954,-10758.130410
6581.721690,1550.549045,2718.246474,-9686.145885
6581.724167,-3158.525832,4498.506488,-8997.012976
6581.726644,4651.647134,-7829.315547,-11504.691061
6581.729121,2584.248408,746.560651,-9533.005238
6581.731598,-1971.685822,7255.038123,-8422.735552
6581.734075,4307.080680,-10107.282662,-12212.966550
6581.736552,-1301.695494,7101.897477,-8173.882002
6581.739028,3081.955509,-3866.801322,-10528.419440
6581.741505,-344.566454,1493.121302,-9207.581365
6581.743982,3445.664544,803.988394,-10394.421374
6581.746459,689.132909,-3062.812928,-10394.421374
6581.748936,-1416.550979,2335.394858,-9418.149754
6581.751413,1665.404530,1799.402595,-9992.427178
6581.753890,1454.836141,19.142581,-9322.436850
6581.756367,2986.242605,-2277.967115,-10183.852986
6581.758844,153.140646,1895.115499,-9877.571693
6581.761321,842.273555,-995.414202,-10049.854920
6581.763797,1014.556782,1818.545176,-9609.575562
6581.766274,1378.265818,325.423874,-9915.856854
6581.768751,1167.697429,-976.271621,-9781.858789
6581.771228,765.703232,899.701298,-9743.573627
6581.773705,-19.142581,823.130974,-10126.425243
6581.776182,899.701298,459.421939,-9533.005238
6581.778659,880.558717,267.996131,-9877.571693
6581.781136,1895.115499,-344.566454,-10011.569758
6581.783613,2469.392923,267.996131,-9647.860723
6581.786090,-210.568389,-229.710970,-10049.854920
6581.788566,1627.119368,-287.138712,-9915.856854
6581.791043,1818.545176,803.988394,-9016.155557
6581.793520,306.281293,-3809.373579,-10413.563955
6581.795997,1244.267752,1167.697429,-10126.425243
6581.798474,1052.841944,4709.074877,-8767.302006
6581.800985,861.416136,1435.693560,-9609.575562
6581.803495,574.277424,-267.996131,-9647.860723
6581.806005,2392.822600,-306.281293,-9973.284597
6581.808516,-95.712904,1799.402595,-9590.432981
6581.811026,3215.953574,-7369.893608,-11562.118803
6581.813537,-1014.556782,8729.016845,-7752.745224
6581.816047,-1473.978722,-555.134843,-9858.429112
6581.818557,2258.824534,-3426.521963,-11255.837510
6581.821068,-2009.970984,10509.276859,-8097.311678
6581.823578,555.134843,-1588.834206,-11102.696864
6581.826089,-2392.822600,1071.984525,-9418.149754
6581.828599,1588.834206,19.142581,-10107.282662
6581.831109,-861.416136,-957.129040,-9705.288466
6581.833620,-382.851616,4728.217458,-9131.011042
6581.836130,1378.265818,612.562586,-10279.565890
6581.838641,1837.687757,-1129.412267,-9915.856854
6581.841151,-4307.080680,4919.643266,-9341.579430
6581.843662,-1129.412267,-248.853550,-10681.560086
6581.846172,1454.836141,1071.984525,-9456.434915
6581.848682,937.986459,1588.834206,-9705.288466
6581.851193,325.423874,-1091.127106,-10145.567824
6581.853703,-1416.550979,2201.396792,-9265.009107
6581.856214,-535.992262,1091.127106,-10260.423309
6581.858724,957.129040,1033.699363,-9820.143950
6581.861234,708.275490,899.701298,-9609.575562
6581.863745,-267.996131,114.855485,-10030.712339
6581.866255,-861.416136,1684.547110,-9667.003304
6581.868766,306.281293,1952.543242,-9743.573627
6581.871276,-593.420005,95.712904,-10241.280728
6581.873786,-1244.267752,1799.402595,-9647.860723
6581.876297,-2354.537438,4517.649069,-9399.007173
6581.878807,2871.387120,-3139.383251,-10738.987829
6581.881343,-325.423874,6546.762634,-8786.444587
6581.883880,1378.265818,2201.396792,-9915.856854
6581.886416,-2852.244539,-535.992262,-9590.432981
6581.888952,1569.691626,-363.709035,-9954.142016
6581.891488,-2220.539373,4996.213589,-9360.722011
6581.894024,1588.834206,-4594.219392,-11179.267187
6581.896560,1856.830338,5723.631659,-9016.155557
6581.899097,-842.273555,5455.635528,-8480.163294
6581.901633,4766.502619,-8633.303941,-11236.694930
6581.904169,-1167.697429,7771.887805,-8901.300072
6581.906705,306.281293,-5666.203917,-11160.124606
6581.909241,612.562586,-344.566454,-9418.149754
6581.911777,2871.387120,1167.697429,-9973.284597
6581.914313,612.562586,765.703232,-9494.720077
6581.916850,3292.523898,76.570323,-9781.858789
6581.919386,-1416.550979,4632.504554,-9226.723946
6581.921922,-880.558717,-2775.674216,-10585.847182
6581.924458,2392.822600,-440.279358,-10183.852986
6581.926994,1244.267752,899.701298,-9131.011042
6581.929530,3177.668413,-3235.096155,-10241.280728
6581.932067,-38.285162,3943.371645,-9513.862658
6581.934603,325.423874,-1301.695494,-10260.423309
6581.937139,823.130974,1665.404530,-9628.718142
6581.939675,1186.840010,2450.250342,-9265.009107
6581.942211,861.416136,-1856.830338,-10260.423309
6581.944747,1244.267752,1282.552914,-9801.001370
6581.947284,-497.707101,689.132909,-10241.280728
6581.949820,1799.402595,-248.853550,-9667.003304
6581.952356,2009.970984,727.418070,-9571.290400
6581.954892,2220.539373,-1205.982590,-10107.282662
6581.957428,-248.853550,2641.676150,-9513.862658
6581.959964,2048.256146,-2622.533570,-10643.274925
6581.962500,2928.814862,-4307.080680,-10470.991698
6581.965037,-1167.697429,4364.508422,-8920.442653
6581.967573,1435.693560,-3043.670347,-10643.274925
6581.970109,-516.849682,382.851616,-9762.716208
6581.972645,3809.373579,-191.425808,-10451.849117
6581.975181,-765.703232,4900.500685,-8633.303941
6581.977717,1148.554848,-3866.801322,-10413.563955
6581.980254,3081.955509,497.707101,-9762.716208
6581.982809,-1627.119368,4517.649069,-9475.577496
6581.985365,2163.111630,-9399.007173,-11887.542677
6581.987921,172.283227,8863.014910,-7982.456194
6581.990476,-1493.121302,1397.408398,-10068.997501
6581.993032,899.701298,708.275490,-10126.425243
6581.995587,-191.425808,6833.901346,-8633.303941
6581.998143,-1550.549045,191.425808,-10088.140082
6582.000699,325.423874,-1091.127106,-9801.001370
6582.003254,-2775.674216,2239.681954,-9877.571693
6582.005810,2584.248408,-4402.793584,-11083.554283
6582.008366,803.988394,4766.502619,-8767.302006
6582.010921,-229.710970,1761.117434,-9992.427178
6582.013477,-3177.668413,3981.656806,-9341.579430
6582.016033,-191.425808,1071.984525,-10068.997501
6582.018588,1186.840010,-267.996131,-10088.140082
6582.021144,1186.840010,1531.406464,-9647.860723
6582.023700,-593.420005,1301.695494,-9915.856854
6582.026255,-861.416136,689.132909,-9934.999435
6582.028811,899.701298,976.271621,-9858.429112
6582.031366,918.843878,1014.556782,-9820.143950
6582.033922,191.425808,363.709035,-9801.001370
6582.036478,-842.273555,1225.125171,-9743.573627
6582.039033,-172.283227,325.423874,-10011.569758
6582.041589,-2928.814862,3541.377448,-9494.720077
6582.044145,-1837.687757,1607.976787,-10030.712339
6582.046700,3675.375514,-191.425808,-9954.142016
6582.049256,-440.279358,6087.340694,-8518.448456
6582.051812,-593.420005,-803.988394,-10949.556218
6582.054367,114.855485,-1167.697429,-10030.712339
6582.056923,-2163.111630,4862.215523,-8920.442653
6582.059478,593.420005,-2584.248408,-10528.419440
6582.062034,2182.254211,3311.666478,-9245.866526
6582.064590,-2679.961312,4000.799387,-9647.860723
6582.067145,4115.654872,-8384.450390,-11581.261384
6582.069701,2565.105827,1550.549045,-9092.725880
6582.072257,-1665.404530,6221.338760,-8518.448456
6582.074812,4670.789715,-9188.438784,-11810.972354
6582.077368,-1205.982590,8020.741355,-8116.454259
6582.079924,2890.529701,-4900.500685,-11083.554283
6582.082479,-861.416136,497.707101,-9437.292334
6582.085001,1569.691626,1512.263883,-9858.429112
6582.087522,2909.672282,-4134.797453,-10566.704602
6582.090044,-689.132909,4957.928427,-8920.442653
6582.092565,-1014.556782,1473.978722,-9992.427178
6582.095086,4536.791650,-3675.375514,-10260.423309
6582.097608,1990.828403,3349.951640,-8518.448456
6582.100129,363.709035,-2756.531635,-10719.845248
6582.102651,-114.855485,191.425808,-10088.140082
6582.105172,287.138712,2411.965181,-9571.290400
6582.107694,1895.115499,-1454.836141,-10183.852986
6582.110215,1359.123237,1780.260014,-9379.864592
6582.112737,76.570323,-421.136778,-9858.429112
6582.115258,861.416136,535.992262,-9839.286531
6582.117780,1110.269686,1684.547110,-9494.720077
6582.120301,2182.254211,-1646.261949,-10183.852986
6582.122822,459.421939,2335.394858,-9245.866526
6582.125344,3483.949706,-2029.113565,-10394.421374
6582.127865,2239.681954,-880.558717,-9667.003304
6582.130387,-2622.533570,-421.136778,-9801.001370
6582.132908,1684.547110,-3656.232933,-10777.272990
6582.135430,2086.541307,3981.656806,-8863.014910
6582.137951,-38.285162,1914.258080,-9858.429112
6582.140473,3637.090352,-3637.090352,-10088.140082
6582.142994,2067.398726,114.855485,-9954.142016
6582.145515,-1167.697429,2258.824534,-9494.720077
6582.148037,3273.381317,-7331.608446,-11160.124606
6582.150558,-459.421939,8748.159426,-7810.172966
6582.153080,-1416.550979,-1454.836141,-10375.278794
6582.155601,2086.541307,-2699.103893,-10892.128475
6582.158123,-3713.660675,11389.835576,-7925.028451
6582.160644,1837.687757,-5149.354235,-11294.122672
6582.163166,-1052.841944,6240.481341,-8786.444587
6582.165687,2258.824534,803.988394,-9973.284597
6582.168208,229.710970,-727.418070,-9858.429112
6582.170730,-2029.113565,5455.635528,-8748.159426
6582.173251,995.414202,-2737.389054,-11006.983960
6582.175773,1531.406464,689.132909,-9667.003304
6582.178294,-1205.982590,3273.381317,-9418.149754
6582.180816,-3081.955509,2009.970984,-9781.858789
6582.183337,497.707101,2143.969050,-10030.712339
6582.185879,1378.265818,516.849682,-9647.860723
6582.188422,1454.836141,-440.279358,-10202.995566
6582.190964,-650.847747,1569.691626,-9667.003304
6582.193507,-1033.699363,1225.125171,-9896.714274
6582.196049,765.703232,612.562586,-10011.569758
6582.198591,1320.838075,918.843878,-9686.145885
6582.201134,555.134843,593.420005,-9858.429112
6582.203676,-2679.961312,2411.965181,-9762.716208
6582.206218,-2086.541307,1167.697429,-10068.997501
6582.208761,-1684.547110,3177.668413,-9303.294269
6582.211303,2813.959378,38.285162,-10068.997501
6582.213845,421.136778,3828.516160,-9609.575562
6582.216388,535.992262,3598.805190,-9590.432981
6582.218930,-4077.369710,1071.984525,-9533.005238
6582.221472,1895.115499,-1205.982590,-10183.852986
6582.224015,-1110.269686,3177.668413,-9667.003304
6582.226557,2565.105827,-4268.795518,-10738.987829
6582.229099,-2679.961312,8997.012976,-8116.454259
6582.231642,516.849682,-4938.785846,-11428.120738
6582.234184,2507.678085,-765.703232,-9609.575562
6582.236726,-1856.830338,8729.016845,-8556.733618
6582.239269,1933.400661,-6738.188442,-11408.978157
6582.241811,784.845813,1531.406464,-9073.583299
6582.244353,2431.107762,1014.556782,-10279.565890
6582.246896,-669.990328,210.568389,-9035.298138
6582.249438,2737.389054,1110.269686,-9973.284597
6582.251981,1263.410333,-3254.238736,-10930.413637
6582.254523,497.707101,114.855485,-9399.007173
6582.257065,-1550.549045,4115.654872,-9571.290400
6582.259608,4173.082614,-1952.543242,-9801.001370
6582.262150,2354.537438,2067.398726,-8633.303941
6582.264692,574.277424,-1627.119368,-10968.698798
6582.267235,95.712904,765.703232,-9992.427178
6582.269777,-516.849682,1531.406464,-9609.575562
6582.272319,1837.687757,-1091.127106,-10279.565890
6582.274862,1761.117434,1799.402595,-9092.725880
6582.277404,574.277424,-325.423874,-10107.282662
6582.279946,76.570323,401.994197,-10241.280728
6582.282489,1129.412267,1014.556782,-9341.579430
6582.285031,3024.527766,-593.420005,-10202.995566
6582.287590,3522.234867,-306.281293,-9533.005238
6582.290149,2890.529701,-2335.394858,-10164.710405
6582.292708,-4000.799387,2009.970984,-9513.862658
6582.295267,861.416136,-4651.647134,-10949.556218
6582.297826,2277.967115,1493.121302,-9169.296203
6582.300385,3215.953574,3541.377448,-9399.007173
6582.302944,1244.267752,-1646.261949,-10183.852986
6582.305503,1263.410333,937.986459,-9399.007173
6582.308062,-2909.672282,6144.768437,-8939.585234
6582.310621,574.277424,-8135.596840,-11408.978157
6582.313180,3522.234867,2105.683888,-9284.151688
6582.315739,-689.132909,7025.327154,-8958.727814
6582.318298,2967.100024,-6144.768437,-11179.267187
6582.320857,-4766.502619,11562.118803,-7752.745224
6582.323416,555.134843,-2641.676150,-11370.692995
6582.325975,-1990.828403,2086.541307,-9226.723946
6582.328534,2813.959378,1684.547110,-9667.003304
6582.331092,650.847747,-612.562586,-9667.003304
6582.333651,-2431.107762,5493.920690,-8595.018779
6582.336210,57.427742,-421.136778,-10987.841379
6582.338769,2450.250342,-823.130974,-9762.716208
6582.341328,-574.277424,3254.238736,-9111.868461
6582.343887,-2852.244539,535.992262,-10470.991698
6582.346446,-535.992262,3101.098090,-9513.862658
6582.349005,1244.267752,210.568389,-9686.145885
6582.351564,1167.697429,344.566454,-9705.288466
6582.354123,-210.568389,823.130974,-9724.431046
6582.356682,-459.421939,1359.123237,-10030.712339
6582.359241,248.853550,497.707101,-9552.147819
6582.361800,727.418070,689.132909,-9877.571693
6582.364359,-842.273555,1837.687757,-10298.708470
6582.366918,-2220.539373,2277.967115,-9418.149754
6582.369477,-2411.965181,1990.828403,-9609.575562
6582.372036,1856.830338,-1110.269686,-10107.282662
6582.374595,344.566454,5742.774240,-9226.723946
6582.377154,1799.402595,4192.225195,-9877.571693
6582.379713,-3847.658741,3254.238736,-8652.446522
6582.382272,1895.115499,-3273.381317,-10490.134278
6582.384831,-2258.824534,3694.518094,-9418.149754
6582.387390,2450.250342,-4881.358104,-11198.409768
6582.389962,1933.400661,3943.371645,-9494.720077
6582.392533,-1493.121302,6202.196179,-8346.165229
6582.395105,5417.350366,-9054.440718,-11121.839445
6582.397677,-1339.980656,7714.460062,-8882.157491
6582.400249,497.707101,-5015.356170,-11064.411702
6582.402821,708.275490,248.853550,-9399.007173
6582.405393,3158.525832,823.130974,-10241.280728
6582.407965,-172.283227,401.994197,-8824.729749
6582.410536,1856.830338,1014.556782,-10030.712339
6582.413108,-593.420005,1952.543242,-9590.432981
6582.415680,1014.556782,-3196.810994,-10566.704602
6582.418252,-1014.556782,2526.820666,-10030.712339
6582.420824,3005.385186,-1339.980656,-9590.432981
6582.423396,3503.092286,-957.129040,-9111.868461
6582.425967,1588.834206,19.142581,-10509.276859
6582.428539,-803.988394,899.701298,-10126.425243
6582.431111,-669.990328,1416.550979,-9628.718142
6582.433683,2239.681954,-421.136778,-9915.856854
6582.436255,1856.830338,1205.982590,-9360.722011
6582.438827,267.996131,689.132909,-10336.993632
6582.441398,-1148.554848,401.994197,-10145.567824
6582.443970,3981.656806,363.709035,-9399.007173
6582.446542,2986.242605,-267.996131,-9762.716208
6582.449114,3311.666478,-3005.385186,-10088.140082
6582.451686,-2718.246474,1741.974853,-9705.288466
6582.454258,440.279358,-3177.668413,-10777.272990
6582.456829,1550.549045,574.277424,-9092.725880
6582.459401,2431.107762,3866.801322,-9169.296203
6582.461973,19.142581,2124.826469,-9456.434915
6582.464545,1990.828403,-2622.533570,-10183.852986
6582.467117,-2124.826469,5398.207786,-8939.585234
6582.469689,2277.967115,-7752.745224,-11466.405899
6582.472261,1684.547110,5761.916821,-8441.878133
6582.474832,-899.701298,2852.244539,-9590.432981
6582.477404,2545.963246,-5302.494882,-10930.413637
6582.479976,-4862.215523,10777.272990,-7963.313613
6582.482548,1033.699363,-3579.662610,-11504.691061
6582.485120,-2258.824534,325.423874,-9245.866526
6582.487692,2335.394858,1512.263883,-10183.852986
6582.490263,842.273555,-153.140646,-9552.147819
6582.492805,-3273.381317,4134.797453,-8805.587168
6582.495347,38.285162,-3522.234867,-11791.829773
6582.497888,1397.408398,2641.676150,-9054.440718
6582.500430,612.562586,2928.814862,-9150.153622
6582.502971,-459.421939,153.140646,-10241.280728
6582.505513,-2009.970984,4383.651003,-9284.151688
6582.508054,95.712904,19.142581,-10145.567824
6582.510596,574.277424,-38.285162,-9820.143950
6582.513137,325.423874,1473.978722,-9418.149754
6582.515679,497.707101,-19.142581,-10356.136213
6582.518220,-861.416136,1493.121302,-9552.147819
6582.520762,76.570323,1205.982590,-9743.573627
6582.523303,-1033.699363,2201.396792,-10049.854920
6582.525845,-1646.261949,1359.123237,-9781.858789
6582.528386,1665.404530,-267.996131,-9686.145885
6582.530928,-1952.543242,6623.332957,-8824.729749
6582.533469,38.285162,4134.797453,-9915.856854
6582.536011,-306.281293,-765.703232,-10241.280728
6582.538552,-287.138712,2947.957443,-9226.723946
6582.541094,-57.427742,-1703.689691,-10049.854920
6582.543635,765.703232,497.707101,-9743.573627
6582.546177,-3349.951640,4919.643266,-9513.862658
6582.548718,4900.500685,-8039.883936,-11753.544611
6582.551260,1780.260014,9820.143950,-7905.885870
6582.553801,-1263.410333,-1225.125171,-9934.999435
6582.556343,4268.795518,-9265.009107,-11887.542677
6582.558884,-1359.123237,6910.471669,-8327.022648
6582.561426,2507.678085,-4613.361973,-11064.411702
6582.563968,38.285162,-574.277424,-9571.290400
6582.566509,1531.406464,2029.113565,-9571.290400
6582.569051,3790.230998,-3062.812928,-10356.136213
6582.571592,-995.414202,6929.614250,-8441.878133
6582.574134,-267.996131,-1665.404530,-10815.558152
6582.576675,861.416136,-1167.697429,-10126.425243
6582.579217,4077.369710,1244.267752,-8939.585234
6582.581758,1416.550979,-2450.250342,-9934.999435
6582.584300,172.283227,1397.408398,-10241.280728
6582.586841,-325.423874,1703.689691,-10088.140082
6582.589383,1263.410333,-421.136778,-9667.003304
6582.591924,1148.554848,918.843878,-9533.005238
6582.594481,612.562586,650.847747,-9896.714274
6582.597038,1148.554848,382.851616,-10011.569758
6582.599595,1378.265818,689.132909,-9954.142016
6582.602152,3541.377448,-1684.547110,-9992.427178
6582.604709,1493.121302,-497.707101,-9705.288466
6582.607266,0.000000,1722.832272,-9379.864592
6582.609823,689.132909,-1091.127106,-9667.003304
6582.612380,172.283227,-2220.539373,-10202.995566
6582.614936,4900.500685,-2775.674216,-10930.413637
6582.617493,-2029.113565,5474.778109,-8690.731683
6582.620050,3407.379382,-3215.953574,-10643.274925
6582.622607,-1607.976787,7350.751027,-8039.883936
6582.625164,-382.851616,-6355.336826,-11198.409768
6582.627721,2584.248408,-9341.579430,-12078.968485
6582.630278,-2660.818731,9915.856854,-7580.461997
6582.632835,-287.138712,-2354.537438,-10662.417506
6582.635392,-38.285162,4900.500685,-9245.866526
6582.637949,535.992262,3790.230998,-9647.860723
6582.640506,-1186.840010,-842.273555,-10049.854920
6582.643063,746.560651,38.285162,-10509.276859
6582.645620,880.558717,363.709035,-9303.294269
6582.648176,-3062.812928,4536.791650,-8901.300072
6582.650733,440.279358,-2335.394858,-9839.286531
6582.653290,1684.547110,574.277424,-9820.143950
6582.655847,459.421939,1875.972918,-9762.716208
6582.658404,-1761.117434,-19.142581,-10183.852986
6582.660961,-2143.969050,2813.959378,-9322.436850
6582.663518,957.129040,516.849682,-10126.425243
6582.666075,803.988394,784.845813,-9762.716208
6582.668632,-325.423874,1339.980656,-9571.290400
6582.671189,-593.420005,325.423874,-10183.852986
6582.673746,-459.421939,1531.406464,-9571.290400
6582.676303,-1454.836141,2239.681954,-9896.714274
6582.678860,-1263.410333,1205.982590,-10011.569758
6582.681416,1435.693560,-574.277424,-9801.001370
6582.683973,-1301.695494,4728.217458,-9379.864592
6582.686530,-1129.412267,4479.363907,-9839.286531
6582.689087,133.998066,-248.853550,-10145.567824
6582.691644,-401.994197,3330.809059,-9513.862658
6582.694201,1071.984525,-2392.822600,-10145.567824
6582.696770,172.283227,1914.258080,-9303.294269
6582.699339,-4460.221326,7140.182638,-8901.300072
6582.701909,3215.953574,-5934.200048,-11983.255581
6582.704478,3809.373579,4823.930362,-8595.018779
6582.707047,-1225.125171,4651.647134,-8690.731683
6582.709616,3866.801322,-8518.448456,-11542.976222
6582.712185,-1435.693560,7427.321350,-8288.737486
6582.714754,1301.695494,-5800.201982,-11408.978157
6582.717324,1014.556782,-689.132909,-9877.571693
6582.719893,1646.261949,2622.533570,-9456.434915
6582.722462,3771.088418,-3675.375514,-10834.700733
6582.725031,-555.134843,5206.781978,-8231.309744
6582.727600,-995.414202,57.427742,-10509.276859
6582.730169,1033.699363,-1454.836141,-10566.704602
6582.732739,2163.111630,1875.972918,-9284.151688
6582.735308,3043.670347,-4039.084549,-9915.856854
6582.737877,95.712904,1244.267752,-9705.288466
6582.740446,-248.853550,1971.685822,-10413.563955
6582.743015,114.855485,0.000000,-9934.999435
6582.745584,765.703232,880.558717,-9131.011042
6582.748154,2201.396792,-363.709035,-9743.573627
6582.750723,1378.265818,-38.285162,-10202.995566
6582.753292,2239.681954,-95.712904,-9915.856854
6582.755861,2105.683888,-803.988394,-9858.429112
6582.758430,-976.271621,2775.674216,-9379.864592
6582.760999,2086.541307,-4096.512291,-10164.710405
6582.763569,1320.838075,-2986.242605,-9896.714274
6582.766138,2392.822600,1818.545176,-9992.427178
6582.768707,401.994197,669.990328,-9896.714274
6582.771276,3062.812928,-1818.545176,-10413.563955
6582.773845,-1359.123237,6527.620053,-8499.305875
6582.776414,1952.543242,-7427.321350,-10892.128475
6582.778984,1914.258080,2699.103893,-9590.432981
6582.781553,-1569.691626,4709.074877,-9877.571693
6582.784122,2794.816797,-5627.918755,-10566.704602
6582.786691,-4364.508422,10470.991698,-7848.458128
6582.789260,1473.978722,-3445.664544,-11370.692995
6582.791829,-1052.841944,4345.365842,-8748.159426
6582.794399,1301.695494,1761.117434,-10509.276859
6582.796968,76.570323,210.568389,-9533.005238
6582.799546,-3349.951640,2316.252277,-8863.014910
6582.802124,937.986459,-2258.824534,-11428.120738
6582.804702,612.562586,2526.820666,-9111.868461
6582.807281,612.562586,2450.250342,-9724.431046
6582.809859,-440.279358,-133.998066,-10451.849117
6582.812437,-1856.830338,3407.379382,-9054.440718
6582.815015,-267.996131,-229.710970,-10126.425243
6582.817594,1205.982590,574.277424,-9934.999435
6582.820172,363.709035,1646.261949,-9552.147819
6582.822750,-19.142581,-191.425808,-10260.423309
6582.825328,-1531.406464,2105.683888,-9360.722011
6582.827906,-1646.261949,1684.547110,-9877.571693
6582.830485,1569.691626,-765.703232,-10336.993632
6582.833063,-1473.978722,5819.344563,-8422.735552
6582.835641,-1933.400661,1607.976787,-10470.991698
6582.838219,2603.390989,-1091.127106,-10298.708470
6582.840798,-2756.531635,8767.302006,-8327.022648
6582.843376,3273.381317,-4096.512291,-11102.696864
6582.845954,-2277.967115,4555.934230,-8173.882002
6582.848532,1033.699363,-4823.930362,-11198.409768
6582.851110,516.849682,4173.082614,-9456.434915
6582.853689,-1569.691626,10356.136213,-7752.745224
6582.856267,3215.953574,-7657.032320,-12059.825904
6582.858845,2316.252277,3349.951640,-8729.016845
6582.861423,-95.712904,57.427742,-9552.147819
6582.864002,-133.998066,-3924.229064,-10758.130410
6582.866580,2450.250342,1301.695494,-9801.001370
6582.869158,976.271621,1263.410333,-9303.294269
6582.871736,842.273555,172.283227,-10298.708470
6582.874314,2679.961312,-2871.387120,-10241.280728
6582.876893,631.705166,1933.400661,-8958.727814
6582.879471,-1033.699363,2029.113565,-9762.716208
6582.882049,1205.982590,-765.703232,-10222.138147
6582.884627,2986.242605,689.132909,-9245.866526
6582.887205,2277.967115,-899.701298,-9839.286531
6582.889784,-497.707101,133.998066,-9801.001370
6582.892362,497.707101,1761.117434,-9954.142016
6582.894940,1263.410333,-248.853550,-10260.423309
6582.897518,1301.695494,976.271621,-9303.294269
6582.900097,2239.681954,-478.564520,-9896.714274
6582.902682,2335.394858,-401.994197,-9973.284597
6582.905268,-363.709035,172.283227,-9992.427178
6582.907853,1339.980656,-937.986459,-10279.565890
6582.910439,1895.115499,669.990328,-9150.153622
6582.913024,421.136778,-2928.814862,-10049.854920
6582.915610,3924.229064,-3445.664544,-10815.558152
6582.918195,-2431.107762,5474.778109,-8843.872330
6582.920781,3273.381317,-2258.824534,-10738.987829
6582.923366,-1244.267752,6891.329088,-8518.448456
6582.925952,-306.281293,-344.566454,-9858.429112
6582.928537,2431.107762,-7063.612315,-11408.978157
6582.931123,-4555.934230,10222.138147,-8250.452325
6582.933708,1225.125171,-4498.506488,-10930.413637
6582.936294,-880.558717,6719.045861,-9035.298138
6582.938879,1033.699363,1588.834206,-10356.136213
6582.941465,-1780.260014,-95.712904,-9169.296203
6582.944050,1225.125171,2488.535504,-10145.567824
6582.946636,38.285162,497.707101,-9934.999435
6582.949222,-2967.100024,2718.246474,-9533.005238
6582.951807,708.275490,-2086.541307,-10987.841379
6582.954393,1129.412267,4307.080680,-8652.446522
6582.956978,1741.974853,1052.841944,-9858.429112
6582.959564,-784.845813,957.129040,-10394.421374
6582.962149,-1588.834206,1646.261949,-9571.290400
6582.964735,191.425808,1129.412267,-9667.003304
6582.967320,1052.841944,248.853550,-10011.569758
6582.969906,-459.421939,1588.834206,-9322.436850
6582.972491,669.990328,574.277424,-10030.712339
6582.975077,-1703.689691,2737.389054,-9437.292334
6582.977662,823.130974,918.843878,-10183.852986
6582.980248,-1837.687757,2928.814862,-9513.862658
6582.982833,-1263.410333,1454.836141,-9590.432981
6582.985392,1703.689691,3043.670347,-9858.429112
6582.987950,-2507.678085,5857.629725,-8958.727814
6582.990508,2239.681954,-2086.541307,-10585.847182
6582.993067,-708.275490,1799.402595,-9494.720077
6582.995625,650.847747,-3120.240670,-10241.280728
6582.998183,-1205.982590,5666.203917,-9188.438784
6583.000742,-440.279358,478.564520,-10279.565890
6583.003300,4823.930362,-4249.652938,-10470.991698
6583.005858,-2545.963246,9667.003304,-7944.171032
6583.008417,3158.525832,-8403.592971,-11447.263318
6583.010975,-267.996131,3120.240670,-8652.446522
6583.013533,3273.381317,-1397.408398,-11045.269122
6583.016092,-535.992262,-1052.841944,-9724.431046
6583.018650,1550.549045,1435.693560,-9533.005238
6583.021208,4555.934230,-1320.838075,-10336.993632
6583.023767,153.140646,4039.084549,-8078.169098
6583.026325,-957.129040,-363.709035,-10815.558152
6583.028884,574.277424,-401.994197,-10279.565890
6583.031442,2335.394858,1052.841944,-9092.725880
6583.034000,2373.680019,-1933.400661,-10298.708470
6583.036559,363.709035,535.992262,-9590.432981
6583.039117,-229.710970,1761.117434,-9667.003304
6583.041675,1359.123237,57.427742,-10490.134278
6583.044234,421.136778,918.843878,-9609.575562
6583.046792,2679.961312,-918.843878,-10011.569758
6583.049350,2813.959378,-535.992262,-9915.856854
6583.051909,-1359.123237,2124.826469,-9475.577496
6583.054467,2086.541307,-4747.360038,-11370.692995
6583.057025,3101.098090,267.996131,-9111.868461
6583.059584,-382.851616,2469.392923,-9054.440718
6583.062142,3483.949706,-6661.618118,-11466.405899
6583.064700,-2373.680019,5838.487144,-8863.014910
6583.067259,2526.820666,-3866.801322,-11102.696864
6583.069817,3924.229064,-1359.123237,-9839.286531
6583.072375,-2335.394858,8346.165229,-8193.024582
6583.074934,1837.687757,-9533.005238,-11715.259450
6583.077492,765.703232,5455.635528,-8748.159426
6583.080050,-1684.547110,2258.824534,-10241.280728
6583.082609,-1071.984525,1359.123237,-9877.571693
6583.085167,1033.699363,6240.481341,-8595.018779
6583.087735,-842.273555,38.285162,-10030.712339
6583.090304,497.707101,-1301.695494,-10470.991698
6583.092872,57.427742,765.703232,-10126.425243
6583.095441,-3330.809059,2947.957443,-9839.286531
6583.098009,363.709035,-1627.119368,-10164.710405
6583.100577,1703.689691,4211.367776,-9016.155557
6583.103146,650.847747,1512.263883,-9609.575562
6583.105714,-746.560651,0.000000,-10088.140082
6583.108282,-823.130974,2277.967115,-9801.001370
6583.110851,-478.564520,267.996131,-9954.142016
6583.113419,1148.554848,497.707101,-9628.718142
6583.115987,0.000000,2029.113565,-9494.720077
6583.118556,-1052.841944,1205.982590,-9762.716208
6583.121124,440.279358,937.986459,-10126.425243
6583.123692,-3120.240670,3541.377448,-9513.862658
6583.126261,-1397.408398,-267.996131,-10298.708470
6583.128829,1914.258080,5072.783912,-9131.011042
6583.131397,-1588.834206,5015.356170,-9207.581365
6583.133966,899.701298,-2067.398726,-10643.274925
6583.136534,497.707101,976.271621,-9820.143950
6583.139102,-19.142581,-478.564520,-9973.284597
6583.141671,-3790.230998,5321.637462,-9111.868461
6583.144239,2163.111630,-3311.666478,-10987.841379
6583.146808,4000.799387,1780.260014,-9379.864592
6583.149376,-1397.408398,6087.340694,-8729.016845
6583.151944,3675.375514,-8805.587168,-11581.261384
6583.154513,-1512.263883,5972.485210,-8020.741355
6583.157081,1856.830338,-4000.799387,-11121.839445
6583.159649,631.705166,-1531.406464,-9973.284597
6583.162218,1473.978722,2258.824534,-9533.005238
6583.164786,3177.668413,325.423874,-9781.858789
6583.167354,-229.710970,3694.518094,-8078.169098
6583.169923,-401.994197,-2833.101958,-11064.411702
6583.172491,325.423874,267.996131,-10241.280728
6583.175059,1550.549045,765.703232,-9379.864592
6583.177628,2048.256146,-1665.404530,-10011.569758
6583.180196,1110.269686,1741.974853,-9552.147819
6583.182764,-363.709035,497.707101,-9762.716208
6583.185333,1320.838075,267.996131,-10068.997501
6583.187901,459.421939,1014.556782,-10183.852986
6583.190478,2852.244539,-765.703232,-9915.856854
6583.193054,1091.127106,-440.279358,-9781.858789
6583.195631,1703.689691,708.275490,-9667.003304
6583.198207,1167.697429,-95.712904,-9705.288466
6583.200783,1014.556782,-4862.215523,-10509.276859
6583.203360,3024.527766,-440.279358,-10011.569758
6583.205936,-669.990328,1646.261949,-9322.436850
6583.208513,1033.699363,689.132909,-9915.856854
6583.211089,172.283227,3388.236802,-9494.720077
6583.213666,2565.105827,-5781.059402,-10930.413637
6583.216242,1301.695494,2258.824534,-9035.298138
6583.218819,-2124.826469,4153.940034,-9475.577496
6583.221395,2890.529701,-6336.194245,-11140.982026
6583.223972,-4307.080680,9934.999435,-8059.026517
6583.226548,957.129040,1282.552914,-10547.562021
6583.229125,-1799.402595,478.564520,-8824.729749
6583.231701,1186.840010,3388.236802,-9877.571693
6583.234278,382.851616,57.427742,-9934.999435
6583.236854,-1378.265818,344.566454,-9207.581365
6583.239431,-1933.400661,2890.529701,-10470.991698
6583.242007,478.564520,784.845813,-9801.001370
6583.244584,1588.834206,1244.267752,-9188.438784
6583.247160,267.996131,1837.687757,-9973.284597
6583.249736,-937.986459,631.705166,-10030.712339
6583.252313,95.712904,957.129040,-9781.858789
6583.254889,440.279358,325.423874,-10356.136213
6583.257466,172.283227,899.701298,-9303.294269
6583.260042,-746.560651,1569.691626,-9628.718142
6583.262619,344.566454,-133.998066,-10279.565890
6583.265195,-3560.520029,3885.943902,-9111.868461
6583.267772,-2163.111630,1837.687757,-10356.136213
6583.270348,2641.676150,2756.531635,-9571.290400
6583.272925,-1493.121302,9054.440718,-8116.454259
6583.275501,2871.387120,-1454.836141,-10719.845248
6583.278078,-3120.240670,1435.693560,-9169.296203
6583.280654,631.705166,-3426.521963,-10796.415571
6583.283231,-3330.809059,5493.920690,-9169.296203
6583.285807,1741.974853,-3139.383251,-10681.560086
6583.288384,4498.506488,363.709035,-9475.577496
6583.290960,-1741.974853,7331.608446,-8422.735552
6583.293543,3388.236802,-8882.157491,-11810.972354
6583.296127,-1607.976787,5589.633594,-8384.450390
6583.298710,4134.797453,516.849682,-10413.563955
6583.301294,861.416136,-1339.980656,-9513.862658
6583.303877,1186.840010,995.414202,-9781.858789
6583.306460,4000.799387,-823.130974,-10528.419440
6583.309044,-497.707101,2182.254211,-8652.446522
6583.311627,325.423874,-3043.670347,-10930.413637
6583.314210,421.136778,1435.693560,-9992.427178
6583.316794,1359.123237,459.421939,-9494.720077
6583.319377,2354.537438,-727.418070,-9724.431046
6583.321961,382.851616,2086.541307,-9456.434915
6583.324544,-133.998066,1129.412267,-9762.716208
6583.327127,1129.412267,-765.703232,-10432.706536
6583.329711,1531.406464,1454.836141,-9341.579430
6583.332294,2507.678085,-1186.840010,-9839.286531
6583.334877,1071.984525,2182.254211,-9686.145885
6583.337461,2220.539373,-2009.970984,-10183.852986
6583.340044,3215.953574,-3598.805190,-9858.429112
6583.342628,-574.277424,3120.240670,-9207.581365
6583.345211,2584.248408,-5589.633594,-10949.556218
6583.347794,-746.560651,1971.685822,-9781.858789
6583.350378,1091.127106,-114.855485,-10068.997501
6583.352961,4000.799387,-516.849682,-9934.999435
6583.355545,-3235.096155,7503.891674,-8537.591037
6583.358128,1091.127106,-8729.016845,-11466.405899
6583.360711,1129.412267,5379.065205,-8690.731683
6583.363295,-1378.265818,1473.978722,-10566.704602
6583.365878,-1110.269686,861.416136,-9954.142016
6583.368461,1091.127106,6661.618118,-8288.737486
6583.371045,-2067.398726,3464.807125,-9437.292334
6583.373628,746.560651,-4211.367776,-10470.991698
6583.376212,-248.853550,1837.687757,-9858.429112
6583.378795,-2699.103893,516.849682,-10049.854920
6583.381378,612.562586,0.000000,-9877.571693
6583.383962,727.418070,6393.621987,-8805.587168
6583.386545,1473.978722,-880.558717,-9896.714274
6583.389128,248.853550,1665.404530,-9743.573627
6583.391712,-1435.693560,765.703232,-10126.425243
6583.394295,114.855485,-210.568389,-9915.856854
6583.396883,287.138712,1359.123237,-9858.429112
6583.399472,-153.140646,1607.976787,-9552.147819
6583.402060,-76.570323,-976.271621,-10068.997501
6583.404648,-3541.377448,3981.656806,-9667.003304
6583.407236,-3637.090352,3407.379382,-9705.288466
6583.409825,3675.375514,-555.134843,-10241.280728
6583.412413,-1339.980656,9303.294269,-8307.880067
6583.415001,2316.252277,-1569.691626,-10528.419440
6583.417590,-3732.803256,1665.404530,-9054.440718
6583.420178,803.988394,-4900.500685,-11255.837510
6583.422766,-1301.695494,5742.774240,-9131.011042
6583.425354,248.853550,-612.562586,-10241.280728
6583.427943,5225.924558,-3560.520029,-10049.854920
6583.430531,-2258.824534,9188.438784,-7810.172966
6583.433119,2813.959378,-8690.731683,-11925.827838
6583.435707,-1282.552914,3637.090352,-8805.587168
6583.438296,2833.101958,-1091.127106,-10681.560086
6583.440884,803.988394,-1990.828403,-9896.714274
6583.443472,1014.556782,267.996131,-10030.712339
6583.446060,3637.090352,-210.568389,-10241.280728
6583.448649,-153.140646,1493.121302,-8671.589102
6583.451237,363.709035,-3330.809059,-11160.124606
6583.453825,-76.570323,1607.976787,-9934.999435
6583.456413,2009.970984,-57.427742,-9226.723946
6583.459002,1512.263883,784.845813,-9628.718142
6583.461590,631.705166,325.423874,-10126.425243
6583.464178,918.843878,1378.265818,-9418.149754
6583.466766,957.129040,172.283227,-10356.136213
6583.469355,1741.974853,-459.421939,-9667.003304
6583.471943,516.849682,1741.974853,-9245.866526
6583.474531,3771.088418,-2622.533570,-10719.845248
6583.477119,2718.246474,-344.566454,-9494.720077
6583.479708,-1799.402595,0.000000,-9686.145885
6583.482296,3215.953574,-7101.897477,-11485.548480
6583.484884,-1531.406464,4058.227130,-8633.303941
6583.487472,3388.236802,-727.418070,-10356.136213
6583.490061,-459.421939,5742.774240,-8307.880067
6583.492649,-803.988394,-1895.115499,-10279.565890
6583.495237,2143.969050,-3560.520029,-10853.843314
6583.497825,-4881.358104,9150.153622,-8039.883936
6583.500418,2373.680019,-6719.045861,-11313.265253
6583.503011,-1512.263883,7350.751027,-9073.583299
6583.505603,1148.554848,153.140646,-10547.562021
6583.508195,-1780.260014,1378.265818,-8709.874264
6583.510788,555.134843,4766.502619,-9628.718142
6583.513380,325.423874,-612.562586,-10222.138147
6583.515972,-555.134843,-153.140646,-9820.143950
6583.518565,-2756.531635,3101.098090,-10222.138147
6583.521157,478.564520,172.283227,-9820.143950
6583.523749,2009.970984,1741.974853,-9437.292334
6583.526342,-19.142581,765.703232,-10241.280728
6583.528934,-899.701298,1225.125171,-9456.434915
6583.531526,459.421939,1339.980656,-9647.860723
6583.534119,-325.423874,459.421939,-10317.851051
6583.536711,612.562586,803.988394,-9341.579430
6583.539303,95.712904,1282.552914,-9705.288466
6583.541896,-2718.246474,1569.691626,-10222.138147
6583.544488,-3292.523898,4632.504554,-9437.292334
6583.547080,2507.678085,-708.275490,-10413.563955
6583.549673,-248.853550,7331.608446,-8518.448456
6583.552265,3426.521963,459.421939,-10145.567824
6583.554858,-3656.232933,1550.549045,-8977.870395
6583.557450,535.992262,-4613.361973,-10930.413637
6583.560042,-3330.809059,6489.334891,-9265.009107
6583.562635,-516.849682,3675.375514,-9035.298138
6583.565227,6508.477472,-7561.319416,-11332.407834
6583.567819,-1091.127106,8729.016845,-7886.743290
6583.570412,1071.984525,-5953.342629,-10700.702667
6583.573004,-1014.556782,880.558717,-9762.716208
6583.575596,3369.094221,1186.840010,-10624.132344
6583.578189,1052.841944,-1990.828403,-9475.577496
6583.580781,1454.836141,1225.125171,-9513.862658
6583.583373,2679.961312,478.564520,-10202.995566
6583.585966,1550.549045,-1550.549045,-9054.440718
6583.588558,363.709035,-3426.521963,-11274.980091
6583.591150,19.142581,1799.402595,-9724.431046
6583.593743,1627.119368,-191.425808,-9379.864592
6583.596335,1263.410333,1091.127106,-9743.573627
6583.598927,459.421939,172.283227,-9858.429112
6583.601520,1148.554848,1301.695494,-9590.432981
6583.604114,669.990328,574.277424,-10451.849117
6583.606709,612.562586,-1129.412267,-10011.569758
6583.609304,3158.525832,1473.978722,-8997.012976
6583.611898,3235.096155,382.851616,-9705.288466
6583.614493,-248.853550,-3866.801322,-10375.278794
6583.617088,1512.263883,-1454.836141,-10011.569758
6583.619682,248.853550,1990.828403,-9360.722011
6583.622277,-459.421939,631.705166,-9858.429112
6583.624872,1914.258080,-248.853550,-10183.852986
6583.627466,4364.508422,-746.560651,-10030.712339
6583.630061,-3771.088418,7255.038123,-8499.305875
6583.632656,57.427742,-7446.463931,-11313.265253
6583.635250,2009.970984,-2507.678085,-10949.556218
6583.637845,-2124.826469,8039.883936,-8403.592971
6583.640440,1531.406464,-2392.822600,-10872.985894
6583.643034,918.843878,6508.477472,-8690.731683
6583.645629,-1033.699363,5455.635528,-8958.727814
6583.648224,478.564520,-2794.816797,-10777.272990
6583.650818,-459.421939,650.847747,-9647.860723
6583.653413,-2182.254211,401.994197,-10088.140082
6583.656008,-153.140646,1588.834206,-9915.856854
6583.658602,-95.712904,5168.496816,-8901.300072
6583.661197,937.986459,-1378.265818,-9992.427178
6583.663792,459.421939,1895.115499,-9571.290400
6583.666386,-133.998066,861.416136,-10202.995566
6583.668981,-957.129040,-325.423874,-10107.282662
6583.671576,1282.552914,1473.978722,-9054.440718
6583.674170,-1435.693560,2622.533570,-9475.577496
6583.676765,-2469.392923,631.705166,-10413.563955
6583.679360,-2411.965181,4307.080680,-9360.722011
6583.681954,1320.838075,937.986459,-10088.140082
6583.684549,-19.142581,4345.365842,-9781.858789
6583.687144,3024.527766,1799.402595,-9590.432981
6583.689738,-3483.949706,3311.666478,-8441.878133
6583.692333,976.271621,-5915.057467,-11638.689126
6583.694928,1397.408398,1454.836141,-9954.142016
6583.697522,-287.138712,6125.625856,-8882.157491
6583.700117,5474.778109,-8690.731683,-11849.257515
6583.702712,669.990328,6546.762634,-8078.169098
6583.705306,497.707101,-3694.518094,-10241.280728
6583.707903,-995.414202,-784.845813,-10145.567824
6583.710500,2909.672282,2392.822600,-10049.854920
6583.713097,1301.695494,-1186.840010,-9513.862658
6583.715693,1493.121302,-363.709035,-10030.712339
6583.718290,2411.965181,1014.556782,-9877.571693
6583.720887,114.855485,229.710970,-9475.577496
6583.723483,784.845813,-3637.090352,-11217.552349
6583.726080,-133.998066,2603.390989,-9494.720077
6583.728677,1607.976787,-38.285162,-9456.434915
6583.731273,1033.699363,38.285162,-9801.001370
6583.733870,363.709035,1665.404530,-9667.003304
6583.736467,1205.982590,57.427742,-9973.284597
6583.739063,1129.412267,861.416136,-10260.423309
6583.741660,727.418070,1014.556782,-9571.290400
6583.744257,4077.369710,-1320.838075,-9667.003304
6583.746853,4115.654872,-3732.803256,-10260.423309
6583.749450,-1914.258080,3617.947771,-9054.440718
6583.752047,1167.697429,-5934.200048,-11006.983960
6583.754643,-1531.406464,1359.123237,-9647.860723
6583.757240,4670.789715,-1875.972918,-10911.271056
6583.759837,114.855485,7101.897477,-8001.598774
6583.762433,-650.847747,-3005.385186,-10317.851051
6583.765030,1263.410333,-2220.539373,-10604.989763
6583.767627,-4287.938099,8422.735552,-7752.745224
6583.770223,0.000000,-3158.525832,-11217.552349
6583.772820,-765.703232,4287.938099,-9475.577496
6583.775417,2277.967115,2947.957443,-9322.436850
6583.778013,-1646.261949,-937.986459,-9858.429112
6583.780610,-516.849682,2756.531635,-10145.567824
6583.783207,-535.992262,2258.824534,-9399.007173
6583.785803,746.560651,-765.703232,-9686.145885
6583.788400,-2392.822600,2201.396792,-10222.138147
6583.790997,229.710970,2067.398726,-9934.999435
6583.793593,727.418070,1722.832272,-9801.001370
6583.796190,650.847747,-459.421939,-9973.284597
6583.798787,-114.855485,1588.834206,-9533.005238
6583.801383,287.138712,574.277424,-10413.563955
6583.803980,631.705166,19.142581,-9858.429112
6583.806577,-1186.840010,2718.246474,-8843.872330
6583.809173,-1320.838075,1186.840010,-10394.421374
6583.811772,-2909.672282,2890.529701,-9686.145885
6583.814370,574.277424,1378.265818,-9552.147819
6583.816968,-708.275490,3809.373579,-9992.427178
6583.819566,2890.529701,1454.836141,-9341.579430
6583.822164,-3024.527766,4977.071008,-8269.594906
6583.824762,1263.410333,-6240.481341,-11447.263318
6583.827360,19.142581,5340.780043,-9284.151688
6583.829958,-880.558717,861.416136,-10164.710405
6583.832556,4996.213589,-5398.207786,-10604.989763
6583.835154,-1550.549045,8977.870395,-7867.600709
6583.837752,3426.521963,-7791.030386,-11160.124606
6583.840350,-516.849682,-1454.836141,-10279.565890
6583.842948,2584.248408,2909.672282,-10049.854920
6583.845547,1110.269686,-1091.127106,-9513.862658
6583.848145,1512.263883,-650.847747,-9973.284597
6583.850743,2143.969050,823.130974,-10030.712339
6583.853341,2354.537438,-2373.680019,-9418.149754
6583.855939,248.853550,669.990328,-10183.852986
6583.858537,-287.138712,-38.285162,-10451.849117
6583.861135,1435.693560,1359.123237,-9284.151688
6583.863733,1531.406464,-248.853550,-10030.712339
6583.866331,1416.550979,1761.117434,-9341.579430
6583.868929,133.998066,421.136778,-9839.286531
6583.871527,19.142581,440.279358,-10585.847182
6583.874125,3560.520029,-1205.982590,-9839.286531
6583.876724,4268.795518,95.712904,-9111.868461
6583.879322,1971.685822,-3637.090352,-10624.132344
6583.881920,306.281293,95.712904,-9437.292334
6583.884518,344.566454,172.283227,-9571.290400
6583.887116,-727.418070,172.283227,-10509.276859
6583.889714,1359.123237,-555.134843,-10126.425243
6583.892312,4843.072942,-1416.550979,-10068.997501
6583.894910,-4249.652938,6680.760699,-8346.165229
6583.897508,-1703.689691,-6278.766502,-10968.698798
6583.900106,2009.970984,4364.508422,-9571.290400
6583.902704,-918.843878,2871.387120,-10126.425243
6583.905302,-1071.984525,306.281293,-9590.432981
6583.907901,1320.838075,6106.483275,-8461.020714
6583.910499,-1971.685822,-363.709035,-10317.851051
6583.913097,-76.570323,-4192.225195,-11006.983960
6583.915695,-516.849682,2813.959378,-9667.003304
6583.918294,19.142581,-669.990328,-10145.567824
6583.920892,-1512.263883,2450.250342,-9245.866526
6583.923491,153.140646,4402.793584,-9513.862658
6583.926089,1014.556782,-1033.699363,-9973.284597
6583.928688,363.709035,1110.269686,-9552.147819
6583.931286,-210.568389,1110.269686,-10068.997501
6583.933885,1052.841944,-19.142581,-10107.282662
6583.936483,-669.990328,2890.529701,-9054.440718
6583.939082,-1703.689691,1703.689691,-9686.145885
6583.941680,-2239.681954,1646.261949,-10183.852986
6583.944278,899.701298,2220.539373,-9724.431046
6583.946877,-2220.539373,6470.192310,-8901.300072
6583.949475,1837.687757,133.998066,-10662.417506
6583.952074,-1282.552914,1148.554848,-9150.153622
6583.954672,1129.412267,-1914.258080,-9954.142016
6583.957271,-3924.229064,5532.205851,-9418.149754
6583.959869,3637.090352,-5359.922624,-10490.134278
6583.962468,4115.654872,-3943.371645,-10317.851051
6583.965066,-1282.552914,8824.729749,-7944.171032
6583.967665,4345.365842,-8097.311678,-11294.122672
6583.970263,-1148.554848,3637.090352,-9035.298138
6583.972862,593.420005,-1722.832272,-11083.554283
6583.975460,1703.689691,-3043.670347,-10164.710405
6583.978059,880.558717,4058.227130,-9073.583299
6583.980657,2392.822600,-191.425808,-9801.001370
6583.983256,3273.381317,-76.570323,-9494.720077
6583.985854,229.710970,1799.402595,-9724.431046
6583.988453,-727.418070,-2335.394858,-10738.987829
6583.991051,1646.261949,2469.392923,-9284.151688
6583.993650,1014.556782,-497.707101,-10126.425243
6583.996248,880.558717,133.998066,-9609.575562
6583.998847,708.275490,1722.832272,-9418.149754
6584.001445,478.564520,287.138712,-10547.562021
6584.004043,2105.683888,-1856.830338,-10126.425243
6584.006642,4536.791650,114.855485,-9188.438784
6584.009240,-937.986459,57.427742,-10030.712339
6584.011839,3120.240670,-5417.350366,-10796.415571
6584.014437,-861.416136,3388.236802,-8824.729749
6584.017036,1263.410333,918.843878,-10356.136213
6584.019635,842.273555,401.994197,-10011.569758
6584.022233,4900.500685,-2986.242605,-10279.565890
6584.024832,-3809.373579,6470.192310,-8154.739421
6584.027431,-2679.961312,-4441.078746,-10585.847182
6584.030029,1684.547110,2794.816797,-10107.282662
6584.032628,-1263.410333,4785.645200,-9762.716208
6584.035227,2029.113565,-1895.115499,-10547.562021
6584.037825,1052.841944,4307.080680,-8595.018779
6584.040424,-2565.105827,4058.227130,-9456.434915
6584.043023,153.140646,-4000.799387,-11006.983960
6584.045622,-612.562586,2737.389054,-9590.432981
6584.048220,-95.712904,-459.421939,-10145.567824
6584.050819,-727.418070,1473.978722,-9456.434915
6584.053418,-459.421939,5302.494882,-9265.009107
6584.056016,1052.841944,-1588.834206,-10202.995566
6584.058615,153.140646,2354.537438,-9111.868461
6584.061214,401.994197,708.275490,-10260.423309
6584.063812,-344.566454,593.420005,-10145.567824
6584.066411,-823.130974,2411.965181,-9016.155557
6584.069010,-2316.252277,1875.972918,-10030.712339
6584.071608,650.847747,2277.967115,-10011.569758
6584.074207,-2143.969050,6412.764568,-8556.733618
6584.076806,-133.998066,-497.707101,-11102.696864
6584.079405,1301.695494,-1780.260014,-10068.997501
6584.082003,133.998066,4134.797453,-8307.880067
6584.084602,-2526.820666,1378.265818,-10107.282662
6584.087201,2852.244539,-3215.953574,-10911.271056
6584.089799,-746.560651,9360.722011,-8173.882002
6584.092398,918.843878,-7848.458128,-11638.689126
6584.094997,2660.818731,-6910.471669,-10815.558152
6584.097595,-401.994197,5187.639397,-8767.302006
6584.100194,-267.996131,-4823.930362,-11428.120738
6584.102793,3637.090352,38.285162,-9647.860723
6584.105391,1014.556782,5666.203917,-8786.444587
6584.107990,1531.406464,-3081.955509,-10413.563955
6584.110589,1990.828403,1359.123237,-9188.438784
6584.113188,1416.550979,-2143.969050,-10394.421374
6584.115786,1435.693560,-1033.699363,-10183.852986
6584.118385,669.990328,3101.098090,-9552.147819
6584.120984,-267.996131,325.423874,-9647.860723
6584.123556,1895.115499,-689.132909,-9341.579430
6584.126129,-19.142581,1952.543242,-9686.145885
6584.128702,1512.263883,-38.285162,-10470.991698
6584.131274,1799.402595,-1033.699363,-10336.993632
6584.133847,4268.795518,-1301.695494,-9628.718142
6584.136420,-382.851616,-689.132909,-9360.722011
6584.138992,3254.238736,-5187.639397,-10853.843314
6584.141565,382.851616,3349.951640,-8997.012976
6584.144138,3235.096155,593.420005,-10451.849117
6584.146710,133.998066,3656.232933,-9801.001370
6584.149283,4230.510357,-5398.207786,-10336.993632
6584.151856,-1129.412267,5474.778109,-8231.309744
6584.154428,-2756.531635,-459.421939,-10451.849117
6584.157001,1799.402595,-1665.404530,-10796.415571
6584.159574,-2833.101958,8250.452325,-8690.731683
6584.162146,1378.265818,-1952.543242,-10585.847182
6584.164719,382.851616,2813.959378,-8365.307810
6584.167292,-2009.970984,5034.498750,-9552.147819
6584.169864,38.285162,-3483.949706,-11026.126541
6584.172437,-440.279358,1607.976787,-9590.432981
6584.175010,-535.992262,57.427742,-10375.278794
6584.177582,-210.568389,1033.699363,-9265.009107
6584.180155,-306.281293,5379.065205,-9016.155557
6584.182728,689.132909,-1014.556782,-10509.276859
6584.185300,669.990328,918.843878,-9590.432981
6584.187873,382.851616,1416.550979,-9877.571693
6584.190446,-95.712904,497.707101,-10298.708470
6584.193018,-1952.543242,3177.668413,-8997.012976
6584.195591,-2507.678085,2392.822600,-9839.286531
6584.198164,1282.552914,-957.129040,-10585.847182
6584.200736,-1837.687757,7695.317482,-8786.444587
6584.203309,1684.547110,2124.826469,-10317.851051
6584.205882,-2143.969050,306.281293,-9284.151688
6584.208454,1416.550979,-1895.115499,-9858.429112
6584.211027,-3598.805190,4938.785846,-9418.149754
6584.213599,-1493.121302,-1071.984525,-10528.419440
6584.216172,3924.229064,-4268.795518,-10470.991698
6584.218745,-1397.408398,9284.151688,-7771.887805
6584.221317,4594.219392,-8001.598774,-11255.837510
6584.223890,-880.558717,3120.240670,-8767.302006
6584.226467,440.279358,-1512.263883,-11160.124606
6584.229044,2277.967115,-3579.662610,-10643.274925
6584.231621,708.275490,5436.492947,-8518.448456
6584.234197,1895.115499,-631.705166,-9915.856854
6584.236774,2258.824534,459.421939,-9245.866526
6584.239351,631.705166,-861.416136,-10183.852986
6584.241928,95.712904,-727.418070,-10604.989763
6584.244505,57.427742,2277.967115,-9533.005238
6584.247081,880.558717,-363.709035,-9992.427178
6584.249658,-133.998066,19.142581,-9341.579430
6584.252235,1473.978722,1665.404530,-9533.005238
6584.254812,1856.830338,-1416.550979,-10968.698798
6584.257389,3158.525832,-689.132909,-10011.569758
6584.259966,2258.824534,-593.420005,-9226.723946
6584.262542,3369.094221,-4173.082614,-10509.276859
6584.265119,918.843878,1875.972918,-8767.302006
6584.267696,-784.845813,2067.398726,-10088.140082
6584.270273,937.986459,-2622.533570,-11140.982026
6584.272850,3847.658741,57.427742,-9762.716208
6584.275426,-2584.248408,5895.914886,-8307.880067
6584.278003,1301.695494,-7312.465866,-10911.271056
6584.280580,689.132909,7369.893608,-8824.729749
6584.283157,-1129.412267,1052.841944,-10796.415571
6584.285734,-95.712904,-1225.125171,-10298.708470
6584.288310,1014.556782,5455.635528,-8346.165229
6584.290887,-2029.113565,574.277424,-9896.714274
6584.293464,612.562586,-3388.236802,-10872.985894
6584.296041,-1225.125171,5417.350366,-9265.009107
6584.298618,229.710970,-861.416136,-10317.851051
6584.301195,-248.853550,2124.826469,-9245.866526
6584.303771,-899.701298,3043.670347,-9418.149754
6584.306348,-421.136778,-803.988394,-10241.280728
6584.308928,689.132909,957.129040,-9954.142016
6584.311508,842.273555,1493.121302,-10068.997501
6584.314088,-57.427742,-57.427742,-9954.142016
6584.316668,-2316.252277,2775.674216,-9284.151688
6584.319248,-2182.254211,2565.105827,-9571.290400
6584.321828,861.416136,-1091.127106,-10394.421374
6584.324407,-1703.689691,6623.332957,-9552.147819
6584.326987,2105.683888,3196.810994,-9877.571693
6584.329567,-2277.967115,1531.406464,-8748.159426
6584.332147,1569.691626,-3388.236802,-11026.126541
6584.334727,669.990328,4709.074877,-9418.149754
6584.337307,-1761.117434,248.853550,-10183.852986
6584.339887,4402.793584,-6412.764568,-11179.267187
6584.342467,-1665.404530,9934.999435,-7580.461997
6584.345047,4421.936165,-7197.610381,-10892.128475
6584.347626,-842.273555,2488.535504,-9111.868461
6584.350206,459.421939,-650.847747,-10987.841379
6584.352786,2392.822600,-4173.082614,-10719.845248
6584.355366,918.843878,4613.361973,-8729.016845
6584.357946,1091.127106,1684.547110,-9839.286531
6584.360526,2699.103893,-746.560651,-9284.151688
6584.363106,2277.967115,-995.414202,-10202.995566
6584.365686,421.136778,95.712904,-10183.852986
6584.368266,-574.277424,1493.121302,-9743.573627
6584.370846,1129.412267,-765.703232,-10222.138147
6584.373425,401.994197,1052.841944,-9111.868461
6584.376005,1607.976787,229.710970,-9628.718142
6584.378585,2488.535504,-899.701298,-10777.272990
6584.381165,3637.090352,-382.851616,-9513.862658
6584.383745,0.000000,976.271621,-9131.011042
6584.386325,2641.676150,-6738.188442,-10777.272990
6584.388905,-1129.412267,861.416136,-9111.868461
6584.391485,3751.945837,-612.562586,-11121.839445
6584.394065,-1244.267752,5723.631659,-9418.149754
6584.396644,2775.674216,-5627.918755,-10413.563955
6584.399224,1052.841944,3656.232933,-8441.878133
6584.401804,-2335.394858,2909.672282,-9590.432981
6584.404384,1895.115499,-4402.793584,-11351.550414
6584.406964,-3120.240670,7427.321350,-9265.009107
6584.409544,1722.832272,-57.427742,-10375.278794
6584.412126,306.281293,1512.263883,-8422.735552
6584.414709,-2086.541307,5800.201982,-9111.868461
6584.417291,306.281293,-3426.521963,-11045.269122
6584.419874,-267.996131,1665.404530,-9686.145885
6584.422456,-727.418070,421.136778,-10432.706536
6584.425038,-153.140646,459.421939,-9207.581365
6584.427621,459.421939,5053.641331,-8671.589102
6584.430203,19.142581,267.996131,-10528.419440
6584.432786,-1071.984525,1110.269686,-9705.288466
6584.435368,497.707101,2182.254211,-9705.288466
6584.437950,-1033.699363,1071.984525,-10126.425243
6584.440533,-2411.965181,1914.258080,-9207.581365
6584.443115,574.277424,1454.836141,-9686.145885
6584.445698,-2258.824534,6336.194245,-9379.864592
6584.448280,114.855485,2469.392923,-10375.278794
6584.450862,-191.425808,-765.703232,-10049.854920
6584.453445,1837.687757,-4555.934230,-10490.134278
6584.456027,-3139.383251,5264.209720,-9035.298138
6584.458610,1722.832272,-4919.643266,-11542.976222
6584.461192,3503.092286,2105.683888,-9552.147819
6584.463774,-555.134843,5685.346498,-8556.733618
6584.466357,3866.801322,-7771.887805,-11026.126541
6584.468939,-382.851616,3809.373579,-8824.729749
6584.471522,-401.994197,-3847.658741,-11045.269122
6584.474104,3809.373579,-1339.980656,-10049.854920
6584.476686,1071.984525,4728.217458,-8690.731683
6584.479269,1665.404530,248.853550,-9781.858789
6584.481851,2239.681954,229.710970,-9456.434915
6584.484434,1914.258080,191.425808,-10011.569758
6584.487016,631.705166,-2660.818731,-10432.706536
6584.489598,38.285162,2641.676150,-9552.147819
6584.492181,1110.269686,-631.705166,-10375.278794
6584.494763,1244.267752,516.849682,-9245.866526
6584.497346,899.701298,708.275490,-9360.722011
6584.499928,3388.236802,-2316.252277,-10930.413637
6584.502510,3388.236802,-382.851616,-9915.856854
6584.505093,-153.140646,2029.113565,-9035.298138
6584.507675,2526.820666,-5627.918755,-10317.851051
6584.510258,-1416.550979,555.134843,-9456.434915
6584.512840,4383.651003,-2373.680019,-11236.694930
6584.515423,1091.127106,4096.512291,-9322.436850
6584.518007,-1684.547110,1378.265818,-9226.723946
6584.520591,2928.814862,-5723.631659,-10719.845248
6584.523175,-3388.236802,10643.274925,-7618.747158
6584.525759,765.703232,-4173.082614,-11466.405899
6584.528343,-2411.965181,5608.776174,-9667.003304
6584.530927,1531.406464,803.988394,-10375.278794
6584.533511,287.138712,210.568389,-8652.446522
6584.536095,-2124.826469,5895.914886,-8901.300072
6584.538678,-1320.838075,3369.094221,-9513.862658
6584.541262,995.414202,-784.845813,-10164.710405
6584.543846,-784.845813,1990.828403,-10107.282662
6584.546430,-708.275490,191.425808,-9801.001370
6584.549014,-191.425808,2277.967115,-9245.866526
6584.551598,1167.697429,631.705166,-10260.423309
6584.554182,-784.845813,1780.260014,-9533.005238
6584.556766,-421.136778,1933.400661,-9915.856854
6584.559350,-1627.119368,1378.265818,-10164.710405
6584.561934,-401.994197,1493.121302,-9169.296203
6584.564518,-3177.668413,5838.487144,-9035.298138
6584.567101,-1186.840010,478.564520,-11121.839445
6584.569685,2794.816797,-555.134843,-10183.852986
6584.572269,-1627.119368,6565.905214,-8327.022648
6584.574853,-937.986459,-2737.389054,-10126.425243
6584.577437,2086.541307,899.701298,-9647.860723
6584.580021,-1665.404530,6795.616184,-8901.300072
6584.582605,4594.219392,-10930.413637,-12653.245909
6584.585189,1052.841944,5742.774240,-8499.305875
6584.587773,2124.826469,1569.691626,-9188.438784
6584.590357,-19.142581,-2565.105827,-10643.274925
6584.592941,2411.965181,3522.234867,-9245.866526
6584.595524,1052.841944,1416.550979,-9456.434915
6584.598108,1895.115499,-3885.943902,-10987.841379
6584.600692,459.421939,2086.541307,-9399.007173
6584.603276,1531.406464,-1416.550979,-9552.147819
6584.605860,2086.541307,-421.136778,-10068.997501
6584.608444,823.130974,842.273555,-10107.282662
6584.611028,-382.851616,1205.982590,-10011.569758
6584.613612,1397.408398,-401.994197,-9552.147819
6584.616196,899.701298,1110.269686,-9265.009107
6584.618781,2813.959378,-1550.549045,-10528.419440
6584.621366,3426.521963,-1129.412267,-10413.563955
6584.623951,-172.283227,2909.672282,-9131.011042
6584.626536,3120.240670,-6412.764568,-10624.132344
6584.629121,-1033.699363,-899.701298,-9169.296203
6584.631706,3235.096155,516.849682,-10241.280728
6584.634291,-229.710970,4575.076811,-9954.142016
6584.636877,-765.703232,-3503.092286,-10509.276859
6584.639462,2124.826469,19.142581,-9609.575562
6584.642047,-2565.105827,7714.460062,-8288.737486
6584.644632,2737.389054,-7101.897477,-11868.400096
6584.647217,-4173.082614,8461.020714,-8997.012976
6584.649802,1952.543242,-172.283227,-10490.134278
6584.652387,497.707101,3235.096155,-8575.876198
6584.654972,-2967.100024,4460.221326,-9131.011042
6584.657557,593.420005,-5359.922624,-11121.839445
6584.660142,401.994197,76.570323,-10183.852986
6584.662727,-1033.699363,1244.267752,-10375.278794
6584.665313,-287.138712,669.990328,-9513.862658
6584.667898,-210.568389,4364.508422,-8748.159426
6584.670483,727.418070,-1359.123237,-10585.847182
6584.673068,-555.134843,1339.980656,-9705.288466
6584.675653,-459.421939,2297.109696,-9934.999435
6584.678238,-1454.836141,880.558717,-10164.710405
6584.680823,133.998066,2297.109696,-9265.009107
6584.683408,-3043.670347,7006.184573,-8614.161360
6584.685993,-1186.840010,957.129040,-11140.982026
6584.688578,1990.828403,-727.418070,-10432.706536
6584.691164,-172.283227,4651.647134,-9035.298138
6584.693749,-2239.681954,-497.707101,-9801.001370
6584.696334,2009.970984,-2124.826469,-9839.286531
6584.698919,-1416.550979,8786.444587,-8441.878133
6584.701504,2124.826469,-9284.151688,-12634.103328
6584.704089,2182.254211,2048.256146,-9150.153622
6584.706674,1493.121302,2794.816797,-9035.298138
6584.709259,-133.998066,-3771.088418,-10815.558152
6584.711844,3311.666478,2354.537438,-9131.011042
6584.714429,650.847747,4326.223261,-9284.151688
6584.717015,2048.256146,-4460.221326,-10968.698798
6584.719600,861.416136,1818.545176,-9207.581365
6584.722186,1512.263883,-1378.265818,-9954.142016
6584.724772,1875.972918,-784.845813,-9877.571693
6584.727358,1416.550979,2220.539373,-9705.288466
6584.729944,-574.277424,344.566454,-10279.565890
6584.732531,1339.980656,-382.851616,-9284.151688
6584.735117,2048.256146,1244.267752,-9169.296203
6584.737703,3598.805190,-1761.117434,-10528.419440
6584.740289,727.418070,-1703.689691,-10451.849117
6584.742875,2775.674216,76.570323,-9762.716208
6584.745462,2239.681954,-937.986459,-9284.151688
6584.748048,-1129.412267,574.277424,-9418.149754
6584.750634,3158.525832,-4192.225195,-11274.980091
6584.753220,1454.836141,4307.080680,-9456.434915
6584.755807,-3311.666478,6585.047795,-8805.587168
6584.758393,861.416136,-6967.899411,-10738.987829
6584.760979,1378.265818,6680.760699,-8288.737486
6584.763565,-478.564520,2163.111630,-10547.562021
6584.766151,-2622.533570,2469.392923,-9858.429112
6584.768738,1129.412267,2641.676150,-9456.434915
6584.771324,306.281293,-2354.537438,-10183.852986
6584.773910,-1741.974853,4498.506488,-9035.298138
6584.776496,-803.988394,1684.547110,-9743.573627
6584.779082,1052.841944,-421.136778,-10202.995566
6584.781669,-57.427742,3273.381317,-9360.722011
6584.784255,-612.562586,-363.709035,-10375.278794
6584.786841,210.568389,1569.691626,-9207.581365
6584.789427,-229.710970,803.988394,-9973.284597
6584.792013,-440.279358,957.129040,-10068.997501
6584.794600,-1339.980656,3215.953574,-9513.862658
6584.797186,-401.994197,918.843878,-10260.423309
6584.799772,-2756.531635,2373.680019,-9054.440718
6584.802358,-1990.828403,2890.529701,-9954.142016
6584.804944,2660.818731,-727.418070,-10853.843314
6584.807531,-1818.545176,8193.024582,-7848.458128
6584.810117,708.275490,-3656.232933,-10815.558152
6584.812703,2124.826469,2545.963246,-9111.868461
6584.815289,-2182.254211,3522.234867,-8863.014910
6584.817875,5493.920690,-10643.274925,-12442.677520
6584.820462,-459.421939,8384.450390,-8671.589102
6584.823048,3445.664544,-3349.951640,-9915.856854
6584.825634,-746.560651,1473.978722,-8709.874264
6584.828221,1990.828403,4192.225195,-9284.151688
6584.830807,1569.691626,-2316.252277,-10164.710405
6584.833394,1856.830338,-2488.535504,-10777.272990
6584.835980,421.136778,2507.678085,-9647.860723
6584.838567,2105.683888,-976.271621,-9226.723946
6584.841153,1722.832272,976.271621,-9781.858789
6584.843740,574.277424,-459.421939,-10413.563955
6584.846326,133.998066,995.414202,-9724.431046
6584.848913,2201.396792,-401.994197,-10394.421374
6584.851499,1359.123237,248.853550,-9437.292334
6584.854086,3024.527766,-1033.699363,-9934.999435
6584.856672,459.421939,-612.562586,-10509.276859
6584.859259,3369.094221,-2603.390989,-10241.280728
6584.861845,2335.394858,267.996131,-8997.012976
6584.864432,-1397.408398,1435.693560,-9571.290400
6584.867018,2220.539373,-4555.934230,-11026.126541
6584.869605,2450.250342,3139.383251,-9667.003304
6584.872191,-1914.258080,2660.818731,-9724.431046
6584.874778,2679.961312,-6317.051664,-10796.415571
6584.877364,2277.967115,4977.071008,-8920.442653
6584.879951,-689.132909,3809.373579,-9934.999435
6584.882537,-2488.535504,1454.836141,-10011.569758
6584.885124,1071.984525,3330.809059,-9360.722011
6584.887710,76.570323,-2699.103893,-10509.276859
6584.890297,-1665.404530,3675.375514,-9169.296203
6584.892883,-1148.554848,3062.812928,-9360.722011
6584.895470,1263.410333,-1091.127106,-10260.423309
6584.898056,-421.136778,2813.959378,-9839.286531
6584.900643,-1110.269686,1607.976787,-9954.142016
6584.903229,267.996131,-172.283227,-9705.288466
6584.905816,650.847747,1129.412267,-9858.429112
6584.908402,-19.142581,899.701298,-10145.567824
6584.910989,-1244.267752,1607.976787,-9896.714274
6584.913575,-918.843878,306.281293,-10011.569758
6584.916162,-3158.525832,5608.776174,-8786.444587
6584.918748,38.285162,4019.941968,-9877.571693
6584.921335,38.285162,-382.851616,-10604.989763
6584.923921,1875.972918,1895.115499,-9533.005238
6584.926508,-3158.525832,2756.531635,-9379.864592
6584.929095,3656.232933,-6278.766502,-10719.845248
6584.931682,880.558717,8958.727814,-8097.311678
6584.934268,-382.851616,5398.207786,-8958.727814
6584.936855,3579.662610,-7082.754896,-11294.122672
6584.939442,153.140646,2947.957443,-9016.155557
6584.942029,-535.992262,-3637.090352,-10662.417506
6584.944616,3637.090352,727.418070,-9399.007173
6584.947202,842.273555,6278.766502,-8901.300072
6584.949789,2239.681954,-4230.510357,-10834.700733
6584.952376,535.992262,784.845813,-9533.005238
6584.954963,1282.552914,-1416.550979,-10164.710405
6584.957550,1282.552914,-440.279358,-9667.003304
6584.960136,803.988394,2565.105827,-9801.001370
6584.962723,708.275490,172.283227,-9973.284597
6584.965310,1397.408398,-172.283227,-9571.290400
6584.967897,2316.252277,-267.996131,-9590.432981
6584.970484,2373.680019,-1129.412267,-10011.569758
6584.973070,1933.400661,287.138712,-10241.280728
6584.975657,2526.820666,-1665.404530,-9647.860723
6584.978244,-1014.556782,-1799.402595,-9609.575562
6584.980831,3541.377448,-4192.225195,-11198.409768
6584.983418,1052.841944,5340.780043,-8901.300072
6584.986004,-1359.123237,287.138712,-10183.852986
6584.988591,2526.820666,-4498.506488,-10853.843314
6584.991178,-3560.520029,11944.970419,-6987.041992
6584.993765,1359.123237,-5206.781978,-11236.694930
6584.996352,-3235.096155,4747.360038,-9934.999435
6584.998938,1473.978722,976.271621,-10222.138147
6585.001525,823.130974,784.845813,-9111.868461
6585.004112,-3445.664544,6029.912952,-8997.012976
6585.006699,153.140646,-3560.520029,-10853.843314
6585.009286,1186.840010,-325.423874,-10145.567824
6585.011872,-535.992262,2239.681954,-9954.142016
6585.014459,-287.138712,172.283227,-9858.429112
6585.017046,-459.421939,2699.103893,-9341.579430
6585.019633,478.564520,-1014.556782,-10202.995566
6585.022220,19.142581,1856.830338,-9379.864592
6585.024806,-1627.119368,2775.674216,-10030.712339
6585.027393,650.847747,-1301.695494,-10604.989763
6585.029980,-4326.223261,7312.465866,-8193.024582
6585.032567,-765.703232,5149.354235,-9686.145885
6585.035153,516.849682,-1895.115499,-10700.702667
6585.037740,2182.254211,3560.520029,-9494.720077
6585.040326,-2986.242605,2392.822600,-9590.432981
6585.042913,3158.525832,-6393.621987,-10336.993632
6585.045500,-229.710970,9705.288466,-8097.311678
6585.048086,210.568389,-6508.477472,-11562.118803
6585.050673,2297.109696,-1741.974853,-9992.427178
6585.053260,2565.105827,1167.697429,-9705.288466
6585.055846,-497.707101,-3388.236802,-10413.563955
6585.058433,3445.664544,1282.552914,-9379.864592
6585.061019,861.416136,6010.770371,-8901.300072
6585.063606,2450.250342,-5053.641331,-10968.698798
6585.066193,440.279358,937.986459,-9552.147819
6585.068779,746.560651,-1550.549045,-10049.854920
6585.071366,1799.402595,-287.138712,-9590.432981
6585.073953,669.990328,1646.261949,-10030.712339
6585.076539,516.849682,746.560651,-9973.284597
6585.079126,1761.117434,-267.996131,-9705.288466
6585.081712,2469.392923,-459.421939,-9647.860723
6585.084299,669.990328,-1014.556782,-9954.142016
6585.086886,3943.371645,-2718.246474,-10911.271056
6585.089472,2335.394858,1301.695494,-8882.157491
6585.092059,-1148.554848,1320.838075,-9111.868461
6585.094646,3043.670347,-5876.772306,-11523.833642
6585.097232,1052.841944,4689.932296,-9111.868461
6585.099819,-1416.550979,306.281293,-10049.854920
6585.102405,2909.672282,-4345.365842,-10930.413637
6585.104992,995.414202,8288.737486,-7905.885870
6585.107579,-593.420005,1550.549045,-10260.423309
6585.110165,-2488.535504,1780.260014,-10049.854920
6585.112752,765.703232,2392.822600,-9590.432981
6585.115338,1473.978722,-1971.685822,-10336.993632
6585.117925,-2833.101958,5934.200048,-8939.585234
6585.120512,-478.564520,-114.855485,-9896.714274
6585.123098,957.129040,191.425808,-9896.714274
6585.125685,-133.998066,2009.970984,-10107.282662
6585.128272,210.568389,-1263.410333,-10547.562021
6585.130858,-516.849682,2928.814862,-8920.442653
6585.133445,-172.283227,114.855485,-10145.567824
6585.136031,-172.283227,1052.841944,-9877.571693
6585.138617,38.285162,3369.094221,-9571.290400
6585.141203,-3062.812928,612.562586,-10356.136213
6585.143790,-2507.678085,2718.246474,-9456.434915
6585.146376,1607.976787,5895.914886,-9284.151688
6585.148962,-1914.258080,3503.092286,-9418.149754
6585.151548,3062.812928,-3330.809059,-10872.985894
6585.154134,708.275490,5513.063270,-8729.016845
6585.156720,-2679.961312,-1933.400661,-10241.280728
6585.159307,3809.373579,-7886.743290,-11006.983960
6585.161893,-880.558717,9915.856854,-8078.169098
6585.164479,5206.781978,-5915.057467,-11160.124606
6585.167065,-899.701298,2565.105827,-8920.442653
6585.169651,-478.564520,-1684.547110,-10528.419440
6585.172237,3828.516160,-4402.793584,-10815.558152
6585.174824,1110.269686,7197.610381,-8154.739421
6585.177410,1167.697429,1378.265818,-10260.423309
6585.179996,1703.689691,-363.709035,-9379.864592
6585.182582,1512.263883,1091.127106,-9513.862658
6585.185168,650.847747,-1914.258080,-10604.989763
6585.187754,440.279358,2009.970984,-9552.147819
6585.190341,1837.687757,19.142581,-10068.997501
6585.192927,2029.113565,-1359.123237,-9839.286531
6585.195513,2507.678085,-19.142581,-9379.864592
6585.198099,1780.260014,1282.552914,-9896.714274
6585.200685,2679.961312,-689.132909,-9533.005238
6585.203272,-669.990328,-1110.269686,-9647.860723
6585.205858,2871.387120,-4804.787781,-11255.837510
6585.208444,-1282.552914,6431.907149,-8499.305875
6585.211030,-574.277424,-3177.668413,-10872.985894
6585.213616,2469.392923,899.701298,-9801.001370
6585.216202,-2565.105827,9360.722011,-8020.741355
6585.218789,2660.818731,-7274.180704,-11466.405899
6585.221375,-3828.516160,7063.612315,-8920.442653
6585.223961,1129.412267,765.703232,-10394.421374
6585.226547,1052.841944,631.705166,-9188.438784
6585.229133,-3790.230998,6106.483275,-9073.583299
6585.231719,382.851616,-3215.953574,-11006.983960
6585.234306,-19.142581,3081.955509,-9092.725880
6585.236892,-306.281293,1205.982590,-10317.851051
6585.239478,-325.423874,57.427742,-9858.429112
6585.242063,555.134843,3005.385186,-9207.581365
6585.244649,287.138712,-516.849682,-10164.710405
6585.247235,-19.142581,1148.554848,-9590.432981
6585.249821,153.140646,3445.664544,-9571.290400
6585.252407,-3694.518094,2029.113565,-10107.282662
6585.254993,-2431.107762,1033.699363,-9762.716208
6585.257578,1512.263883,5379.065205,-9169.296203
6585.260164,-1569.691626,5245.067139,-9016.155557
6585.262750,2986.242605,-4019.941968,-11045.269122
6585.265336,-2737.389054,6546.762634,-8709.874264
6585.267922,-1033.699363,-6565.905214,-10987.841379
6585.270507,3560.520029,-2029.113565,-9915.856854
6585.273093,-669.990328,9379.864592,-8173.882002
6585.275679,4747.360038,-4077.369710,-10738.987829
6585.278265,-842.273555,2239.681954,-8977.870395
6585.280851,-306.281293,-325.423874,-10298.708470
6585.283437,3847.658741,-5647.061336,-11026.126541
6585.286022,1014.556782,6049.055533,-8575.876198
6585.288608,1799.402595,-842.273555,-10164.710405
6585.291194,899.701298,248.853550,-9475.577496
6585.293780,765.703232,-497.707101,-10088.140082
6585.296366,1282.552914,-995.414202,-10222.138147
6585.298951,555.134843,2220.539373,-9265.009107
6585.301537,1569.691626,-114.855485,-10317.851051
6585.304123,2297.109696,-1990.828403,-10030.712339
6585.306709,210.568389,1014.556782,-9111.868461
6585.309295,4536.791650,-3483.949706,-10796.415571
6585.311881,2488.535504,784.845813,-9456.434915
6585.314466,-746.560651,363.709035,-9552.147819
6585.317052,2909.672282,-5532.205851,-11026.126541
6585.319638,-363.709035,5666.203917,-8882.157491
6585.322224,-1569.691626,4345.365842,-9513.862658
6585.324810,2928.814862,-7389.036189,-11294.122672
6585.327396,-1148.554848,11045.269122,-7369.893608
6585.329981,-76.570323,-248.853550,-10394.421374
6585.332567,-2794.816797,2622.533570,-9781.858789
6585.335153,210.568389,3196.810994,-9571.290400
6585.337739,1167.697429,-2411.965181,-10413.563955
6585.340325,-2431.107762,4211.367776,-9092.725880
6585.342910,-861.416136,1033.699363,-10107.282662
6585.345495,459.421939,937.986459,-9609.575562
6585.348081,-191.425808,2124.826469,-9724.431046
6585.350666,133.998066,-363.709035,-10298.708470
6585.353252,-57.427742,2067.398726,-9188.438784
6585.355837,-727.418070,861.416136,-9915.856854
6585.358423,-516.849682,708.275490,-10298.708470
6585.361008,-746.560651,1627.119368,-9475.577496
6585.363593,-4268.795518,4307.080680,-9743.573627
6585.366179,-1244.267752,4498.506488,-9379.864592
6585.368764,842.273555,210.568389,-10088.140082
6585.371350,1378.265818,2220.539373,-10088.140082
6585.373935,-2009.970984,2622.533570,-9284.151688
6585.376520,2565.105827,-4345.365842,-10088.140082
6585.379106,-1627.119368,8193.024582,-8135.596840
6585.381691,765.703232,-8403.592971,-12021.540742
6585.384277,2833.101958,-5666.203917,-11083.554283
6585.386862,2029.113565,1186.840010,-9915.856854
6585.389448,-574.277424,-2105.683888,-9954.142016
6585.392033,2469.392923,3560.520029,-8633.303941
6585.394618,1320.838075,2182.254211,-9743.573627
6585.397204,2622.533570,-4938.785846,-10949.556218
6585.399789,-19.142581,1473.978722,-9724.431046
6585.402375,1052.841944,-1799.402595,-10145.567824
6585.404960,1799.402595,1205.982590,-9743.573627
6585.407545,1339.980656,1933.400661,-9973.284597
6585.410131,76.570323,-267.996131,-9954.142016
6585.412716,2507.678085,574.277424,-9552.147819
6585.415302,803.988394,-1014.556782,-10049.854920
6585.417887,3905.086483,-2335.394858,-9839.286531
6585.420473,3043.670347,746.560651,-9590.432981
6585.423058,-1071.984525,-2239.681954,-10164.710405
6585.425643,3330.809059,-4575.076811,-10585.847182
6585.428229,-1837.687757,6259.623922,-8805.587168
6585.430814,-1014.556782,267.996131,-10260.423309
6585.433400,2622.533570,-3981.656806,-10719.845248
6585.435985,-3675.375514,13246.665914,-7121.040058
6585.438570,1320.838075,-4460.221326,-10968.698798
6585.441156,-3828.516160,4058.227130,-9590.432981
6585.443741,1186.840010,440.279358,-10585.847182
6585.446326,746.560651,861.416136,-9092.725880
6585.448910,-3139.383251,4766.502619,-9150.153622
6585.451495,669.990328,-2909.672282,-11083.554283
6585.454079,-631.705166,3024.527766,-9169.296203
6585.456664,-325.423874,2048.256146,-9954.142016
6585.459248,95.712904,-1435.693560,-10183.852986
6585.461833,-114.855485,3196.810994,-9111.868461
6585.464417,-133.998066,-114.855485,-10241.280728
6585.467002,-593.420005,1225.125171,-9686.145885
6585.469586,-363.709035,1971.685822,-9724.431046
6585.472170,-3637.090352,3158.525832,-9877.571693
6585.474755,-2679.961312,4977.071008,-9418.149754
6585.477339,1301.695494,-267.996131,-10298.708470
6585.479924,2201.396792,-1263.410333,-10566.704602
6585.482508,-2526.820666,4268.795518,-8997.012976
6585.485093,3790.230998,-6604.190376,-10834.700733
6585.487677,631.705166,6929.614250,-8288.737486
6585.490262,-555.134843,-3579.662610,-10834.700733
6585.492846,2009.970984,-2277.967115,-10030.712339
6585.495431,3120.240670,153.140646,-10183.852986
6585.498015,153.140646,-976.271621,-9992.427178
6585.500600,1550.549045,4977.071008,-8556.733618
6585.503184,1205.982590,3847.658741,-9437.292334
6585.505769,2163.111630,-4460.221326,-10643.274925
6585.508353,574.277424,1091.127106,-9533.005238
6585.510938,1091.127106,-1397.408398,-10356.136213
6585.513522,1091.127106,1148.554848,-9226.723946
6585.516107,842.273555,803.988394,-10413.563955
6585.518691,1512.263883,-344.566454,-10011.569758
6585.521275,1895.115499,1627.119368,-9245.866526
6585.523860,803.988394,-1990.828403,-10356.136213
6585.526444,5072.783912,-2182.254211,-9992.427178
6585.529029,3541.377448,631.705166,-9226.723946
6585.531613,-1799.402595,1741.974853,-9533.005238
6585.534198,899.701298,-5398.207786,-10566.704602
6585.536782,2737.389054,2086.541307,-9801.001370
6585.539367,-1014.556782,2469.392923,-10260.423309
6585.541951,3158.525832,-5915.057467,-10968.698798
6585.544536,-2297.109696,12787.243974,-7025.327154
6585.547120,133.998066,-1952.543242,-10834.700733
6585.549704,-3407.379382,1607.976787,-9609.575562
6585.552288,363.709035,2220.539373,-10068.997501
6585.554871,1990.828403,-2584.248408,-10317.851051
6585.557455,-3771.088418,5034.498750,-8786.444587
6585.560039,-421.136778,-918.843878,-10681.560086
6585.562623,459.421939,2756.531635,-9188.438784
6585.565206,363.709035,1761.117434,-9801.001370
6585.567790,-19.142581,-153.140646,-10260.423309
6585.570374,-765.703232,1454.836141,-9207.581365
6585.572957,344.566454,899.701298,-9801.001370
6585.575541,440.279358,478.564520,-10222.138147
6585.578125,-4000.799387,4747.360038,-9073.583299
6585.580709,-3235.096155,1895.115499,-10260.423309
6585.583292,2565.105827,1646.261949,-9628.718142
6585.585876,-2086.541307,8652.446522,-8403.592971
6585.588460,2258.824534,-3981.656806,-11294.122672
6585.591043,-1129.412267,5953.342629,-8403.592971
6585.593627,-957.129040,-4498.506488,-10758.130410
6585.596211,3043.670347,-5551.348432,-10624.132344
6585.598795,-669.990328,7791.030386,-8384.450390
6585.601378,4555.934230,-2565.105827,-10470.991698
6585.603962,-133.998066,1761.117434,-8824.729749
6585.606546,-363.709035,612.562586,-10202.995566
6585.609129,4441.078746,-5436.492947,-10949.556218
6585.611713,1148.554848,5168.496816,-8537.591037
6585.614297,1014.556782,-1244.267752,-10279.565890
6585.616881,1320.838075,459.421939,-9475.577496
6585.619464,325.423874,382.851616,-9954.142016
6585.622048,1818.545176,-784.845813,-10107.282662
6585.624632,1588.834206,1703.689691,-9245.866526
6585.627215,1550.549045,-325.423874,-10202.995566
6585.629799,382.851616,-1818.545176,-10183.852986
6585.632383,3905.086483,1205.982590,-9207.581365
6585.634967,3005.385186,-1512.263883,-9992.427178
6585.637550,-248.853550,-3751.945837,-10279.565890
6585.640134,2947.957443,-3311.666478,-10700.702667
6585.642718,-2507.678085,5915.057467,-8729.016845
6585.645301,1722.832272,-5245.067139,-11121.839445
6585.647885,3254.238736,-1684.547110,-10356.136213
6585.650469,-3981.656806,13074.382686,-7197.610381
6585.653052,1895.115499,-6221.338760,-11294.122672
6585.655635,-4115.654872,5111.069074,-9513.862658
6585.658218,1110.269686,727.418070,-10336.993632
6585.660800,459.421939,1014.556782,-9360.722011
6585.663383,-1665.404530,3349.951640,-9207.581365
6585.665966,-325.423874,-363.709035,-10298.708470
6585.668549,-1129.412267,3560.520029,-9322.436850
6585.671132,-153.140646,-593.420005,-10432.706536
6585.673715,593.420005,287.138712,-9801.001370
6585.676298,995.414202,1473.978722,-9571.290400
6585.678881,-516.849682,669.990328,-9992.427178
6585.681463,631.705166,593.420005,-9820.143950
6585.684046,-3464.807125,4383.651003,-9475.577496
6585.686629,-3139.383251,1569.691626,-10049.854920
6585.689212,1627.119368,2986.242605,-9686.145885
6585.691795,-2450.250342,7944.171032,-8518.448456
6585.694378,2143.969050,-3426.521963,-11045.269122
6585.696961,191.425808,5551.348432,-8422.735552
6585.699544,-1225.125171,-2411.965181,-10432.706536
6585.702126,3081.955509,-8116.454259,-11045.269122
6585.704709,-1301.695494,8595.018779,-8135.596840
6585.707292,4594.219392,-5149.354235,-11083.554283
6585.709875,95.712904,1952.543242,-9207.581365
6585.712458,-382.851616,-1607.976787,-10585.847182
6585.715041,3732.803256,-1512.263883,-9973.284597
6585.717624,995.414202,5359.922624,-8767.302006
6585.720207,689.132909,-957.129040,-10336.993632
6585.722790,1052.841944,-382.851616,-9494.720077
6585.725372,1607.976787,363.709035,-10030.712339
6585.727955,842.273555,401.994197,-10030.712339
6585.730538,1397.408398,803.988394,-9686.145885
6585.733121,1052.841944,516.849682,-9762.716208
6585.735703,708.275490,-1071.984525,-9934.999435
6585.738285,4670.789715,-1473.978722,-10260.423309
6585.740867,3273.381317,669.990328,-9456.434915
6585.743449,-1454.836141,823.130974,-9360.722011
6585.746031,1971.685822,-6278.766502,-10853.843314
6585.748613,899.701298,3445.664544,-9399.007173
6585.751195,-1033.699363,19.142581,-10432.706536
6585.753776,2986.242605,-3407.379382,-10911.271056
6585.756358,612.562586,8863.014910,-7905.885870
6585.758940,-535.992262,1990.828403,-10126.425243
6585.761522,-2986.242605,1741.974853,-9647.860723
6585.764104,248.853550,1416.550979,-10222.138147
6585.766686,1933.400661,-1684.547110,-10222.138147
6585.769268,-3732.803256,4728.217458,-8748.159426
6585.771850,287.138712,-593.420005,-10490.134278
6585.774432,-210.568389,4115.654872,-9054.440718
6585.777014,612.562586,267.996131,-10107.282662
6585.779596,-229.710970,38.285162,-10164.710405
6585.782178,-880.558717,1550.549045,-9265.009107
6585.784760,555.134843,746.560651,-9896.714274
6585.787342,-1741.974853,669.990328,-10202.995566
6585.789923,-2928.814862,3637.090352,-9590.432981
6585.792505,-2507.678085,5742.774240,-9418.149754
6585.795087,1512.263883,-1512.263883,-10566.704602
6585.797669,-1014.556782,5589.633594,-9245.866526
6585.800251,-478.564520,114.855485,-10030.712339
6585.802833,3885.943902,-6240.481341,-10700.702667
6585.805415,248.853550,7963.313613,-8173.882002
6585.807997,-19.142581,-5704.489078,-11351.550414
6585.810579,1588.834206,-1971.685822,-9858.429112
6585.813161,2679.961312,-210.568389,-10126.425243
6585.815743,76.570323,-95.712904,-9705.288466
6585.818325,555.134843,5168.496816,-8939.585234
6585.820907,3962.514226,-4421.936165,-10758.130410
6585.823488,1244.267752,-191.425808,-9743.573627
6585.826070,-382.851616,823.130974,-9762.716208
6585.828652,976.271621,-1646.261949,-10336.993632
6585.831234,2048.256146,2239.681954,-9226.723946
6585.833816,-153.140646,114.855485,-10432.706536
6585.836398,1550.549045,-497.707101,-9513.862658
6585.838979,1359.123237,1856.830338,-9092.725880
6585.841560,2890.529701,-1895.115499,-10815.558152
6585.844141,4326.223261,-1741.974853,-9724.431046
6585.846723,-57.427742,-2086.541307,-9954.142016
6585.849304,2909.672282,-4268.795518,-10432.706536
6585.851885,-2048.256146,6106.483275,-8116.454259
6585.854466,153.140646,-4651.647134,-11523.833642
6585.857047,2488.535504,3235.096155,-9647.860723
6585.859628,-1952.543242,9016.155557,-8212.167163
6585.862209,2220.539373,-6910.471669,-11485.548480
6585.864791,-2699.103893,7369.893608,-8461.020714
6585.867372,-1416.550979,1665.404530,-10260.423309
6585.869953,689.132909,1856.830338,-9533.005238
6585.872534,669.990328,325.423874,-9896.714274
6585.875115,-2201.396792,2048.256146,-9877.571693
6585.877696,-1014.556782,1933.400661,-9743.573627
6585.880277,-114.855485,-38.285162,-10375.278794
6585.882858,1282.552914,995.414202,-9647.860723
6585.885440,-612.562586,1186.840010,-9762.716208
6585.888021,57.427742,1071.984525,-9781.858789
6585.890602,-689.132909,784.845813,-9820.143950
6585.893183,-3005.385186,3694.518094,-9552.147819
6585.895764,-3809.373579,4287.938099,-9399.007173
6585.898345,2718.246474,-1244.267752,-10585.847182
6585.900926,-1225.125171,5264.209720,-9322.436850
6585.903507,-95.712904,287.138712,-9820.143950
6585.906089,1818.545176,1339.980656,-9131.011042
6585.908670,-1435.693560,4421.936165,-8882.157491
6585.911251,5895.914886,-12212.966550,-12519.247843
6585.913832,-727.418070,5245.067139,-8767.302006
6585.916413,3656.232933,-2335.394858,-10107.282662
6585.918994,-344.566454,2469.392923,-8748.159426
6585.921575,689.132909,1167.697429,-10317.851051
6585.924157,4651.647134,-4881.358104,-10872.985894
6585.926738,861.416136,1359.123237,-9341.579430
6585.929319,19.142581,-574.277424,-10260.423309
6585.931900,746.560651,-306.281293,-9513.862658
6585.934481,1512.263883,1416.550979,-9801.001370
6585.937062,2067.398726,57.427742,-10222.138147
6585.939643,746.560651,555.134843,-9475.577496
6585.942223,1091.127106,-95.712904,-9743.573627
6585.944803,3349.951640,-478.564520,-9839.286531
6585.947383,3713.660675,248.853550,-9647.860723
6585.949962,-516.849682,-2297.109696,-10356.136213
6585.952542,2928.814862,-5838.487144,-10547.562021
6585.955122,-2086.541307,6355.336826,-8384.450390
6585.957702,1186.840010,-5742.774240,-11389.835576
6585.960281,2909.672282,4287.938099,-9360.722011
6585.962861,-2201.396792,7752.745224,-8805.587168
6585.965441,1837.687757,-6278.766502,-11045.269122
6585.968020,-2488.535504,8307.880067,-8116.454259
6585.970600,-2029.113565,1512.263883,-10298.708470
6585.973180,861.416136,210.568389,-9705.288466
6585.975760,-287.138712,2297.109696,-9379.864592
6585.978339,-2067.398726,1761.117434,-9647.860723
6585.980919,-516.849682,918.843878,-9896.714274
6585.983499,535.992262,2201.396792,-9954.142016
6585.986079,287.138712,-19.142581,-9896.714274
6585.988658,401.994197,1531.406464,-9437.292334
6585.991238,918.843878,1339.980656,-9896.714274
6585.993818,-2277.967115,287.138712,-10107.282662
6585.996398,-2163.111630,1856.830338,-9858.429112
6585.998977,-440.279358,6489.334891,-9150.153622
6586.001557,-363.709035,1397.408398,-10183.852986
6586.004137,-325.423874,1493.121302,-10088.140082
6586.006717,-1301.695494,2316.252277,-9667.003304
6586.009296,2220.539373,-2679.961312,-9839.286531
6586.011876,-555.134843,7274.180704,-8154.739421
6586.014456,3120.240670,-9150.153622,-12308.679454
6586.017036,497.707101,382.851616,-9475.577496
6586.019615,2182.254211,-401.994197,-10107.282662
6586.022195,191.425808,-765.703232,-10030.712339
6586.024775,1320.838075,4766.502619,-8824.729749
6586.027355,4000.799387,-2201.396792,-10413.563955
6586.029934,1339.980656,-535.992262,-9513.862658
6586.032514,-631.705166,-172.283227,-10049.854920
6586.035094,1397.408398,-1282.552914,-10222.138147
6586.037674,1014.556782,3311.666478,-9207.581365
6586.040253,1741.974853,-995.414202,-10566.704602
6586.042833,957.129040,535.992262,-9188.438784
6586.045412,1186.840010,2124.826469,-9265.009107
6586.047990,4938.785846,-3751.945837,-11102.696864
6586.050569,4536.791650,-2105.683888,-9686.145885
6586.053147,-593.420005,2603.390989,-9169.296203
6586.055726,918.843878,-6795.616184,-10585.847182
6586.058304,1627.119368,1684.547110,-9284.151688
6586.060883,-976.271621,2622.533570,-10470.991698
6586.063461,3311.666478,-5781.059402,-11523.833642
6586.066040,-3196.810994,14624.931731,-8231.309744
6586.068618,-535.992262,4096.512291,-9533.005238
6586.071197,-3158.525832,918.843878,-9647.860723
6586.073775,-382.851616,2297.109696,-10202.995566
6586.076354,2048.256146,-1875.972918,-10490.134278
6586.078932,-2277.967115,2469.392923,-9035.298138
6586.081511,-1052.841944,2660.818731,-9571.290400
6586.084089,-363.709035,2833.101958,-9533.005238
6586.086668,325.423874,1071.984525,-10088.140082
6586.089246,861.416136,-1186.840010,-10298.708470
6586.091825,823.130974,2488.535504,-9016.155557
6586.094403,-1435.693560,-421.136778,-10279.565890
6586.096982,-2833.101958,3254.238736,-9590.432981
6586.099561,-3541.377448,5206.781978,-9150.153622
6586.102139,2833.101958,-2335.394858,-10930.413637
6586.104718,-2469.392923,9360.722011,-8499.305875
6586.107296,976.271621,-1167.697429,-10604.989763
6586.109875,-1703.689691,5034.498750,-8307.880067
6586.112453,535.992262,-3905.086483,-10815.558152
6586.115032,4268.795518,-11887.542677,-12385.249778
6586.117610,-1646.261949,5723.631659,-8920.442653
6586.120189,3388.236802,-2928.814862,-10202.995566
6586.122767,76.570323,2641.676150,-8480.163294
6586.125346,1225.125171,650.847747,-10298.708470
6586.127924,4230.510357,-3426.521963,-10834.700733
6586.130503,861.416136,3694.518094,-8575.876198
6586.133081,689.132909,-3177.668413,-10777.272990
6586.135660,-76.570323,937.986459,-9494.720077
6586.138238,1225.125171,669.990328,-9820.143950
6586.140817,1110.269686,-1033.699363,-10356.136213
6586.143395,1071.984525,1359.123237,-9092.725880
6586.145974,459.421939,669.990328,-9915.856854
6586.148551,4881.358104,-3483.949706,-10490.134278
6586.151129,4268.795518,76.570323,-9705.288466
6586.153707,-1512.263883,995.414202,-9647.860723
6586.156284,3541.377448,-8537.591037,-10968.698798
6586.158862,-1359.123237,4977.071008,-8499.305875
6586.161439,-1263.410333,-3426.521963,-11255.837510
6586.164017,2603.390989,-5321.637462,-11313.265253
6586.166595,-2756.531635,13323.236237,-7197.610381
6586.169172,535.992262,-1665.404530,-10336.993632
6586.171750,-4019.941968,1952.543242,-9743.573627
6586.174327,-574.277424,2124.826469,-10126.425243
6586.176905,2239.681954,-1493.121302,-10241.280728
6586.179482,-1914.258080,2488.535504,-9265.009107
6586.182060,-1761.117434,3273.381317,-9456.434915
6586.184638,-325.423874,1550.549045,-9686.145885
6586.187215,1244.267752,727.418070,-10183.852986
6586.189793,516.849682,-153.140646,-10068.997501
6586.192370,-210.568389,2143.969050,-9341.579430
6586.194948,-574.277424,191.425808,-10222.138147
6586.197526,-3043.670347,3158.525832,-9743.573627
6586.200103,-2565.105827,5647.061336,-9035.298138
6586.202681,1607.976787,-1875.972918,-10796.415571
6586.205258,-1665.404530,5819.344563,-9475.577496
6586.207836,-153.140646,574.277424,-10068.997501
6586.210413,1205.982590,3215.953574,-8575.876198
6586.212991,-803.988394,2316.252277,-9341.579430
6586.215569,6527.620053,-12021.540742,-12404.392358
6586.218146,-1244.267752,6183.053598,-8633.303941
6586.220724,3311.666478,-2871.387120,-10566.704602
6586.223301,287.138712,1301.695494,-9073.583299
6586.225879,593.420005,3885.943902,-9322.436850
6586.228457,5551.348432,-4498.506488,-10777.272990
6586.231034,382.851616,2756.531635,-8843.872330
6586.233612,191.425808,-2392.822600,-10681.560086
6586.236189,1110.269686,-153.140646,-9647.860723
6586.238767,823.130974,2297.109696,-9724.431046
6586.241344,1684.547110,-1052.841944,-10317.851051
6586.243922,1052.841944,1378.265818,-9092.725880
6586.246500,1646.261949,1110.269686,-9513.862658
6586.249077,4096.512291,-2584.248408,-10566.704602
6586.251654,2392.822600,-3675.375514,-10279.565890
6586.254230,1512.263883,899.701298,-9341.579430
6586.256807,-746.560651,-1665.404530,-9494.720077
6586.259383,3005.385186,-2450.250342,-10356.136213
6586.261960,-2622.533570,7465.606512,-9360.722011
6586.264536,1550.549045,-6374.479406,-11485.548480
6586.267113,478.564520,9092.725880,-8059.026517
6586.269689,-497.707101,3177.668413,-9533.005238
6586.272266,-3292.523898,995.414202,-10126.425243
6586.274842,153.140646,1569.691626,-10049.854920
6586.277418,1990.828403,-1512.263883,-10490.134278
6586.279995,-1761.117434,57.427742,-9647.860723
6586.282571,-1741.974853,4326.223261,-9379.864592
6586.285148,-516.849682,2086.541307,-9628.718142
6586.287724,1225.125171,689.132909,-9858.429112
6586.290301,0.000000,-842.273555,-10394.421374
6586.292877,1741.974853,1990.828403,-9207.581365
6586.295454,-2392.822600,2239.681954,-10107.282662
6586.298030,-3675.375514,2890.529701,-9475.577496
6586.300607,1033.699363,3503.092286,-9226.723946
6586.303183,-2029.113565,5742.774240,-9265.009107
6586.305760,918.843878,-727.418070,-10930.413637
6586.308336,-3445.664544,3426.521963,-9284.151688
6586.310913,3617.947771,-5876.772306,-10566.704602
6586.313489,1225.125171,7637.889739,-7944.171032
6586.316066,612.562586,-4785.645200,-11045.269122
6586.318642,2239.681954,-6642.475538,-11485.548480
6586.321219,1875.972918,784.845813,-9628.718142
6586.323795,478.564520,-1588.834206,-10183.852986
6586.326372,1091.127106,3311.666478,-9054.440718
6586.328948,4153.940034,-689.132909,-10088.140082
6586.331525,1684.547110,287.138712,-9437.292334
6586.334101,-823.130974,-1167.697429,-10241.280728
6586.336678,497.707101,287.138712,-10145.567824
6586.339254,1646.261949,1875.972918,-9322.436850
6586.341831,669.990328,-1091.127106,-9973.284597
6586.344407,861.416136,19.142581,-9647.860723
6586.346983,4594.219392,-1167.697429,-9896.714274
6586.349560,4517.649069,-1799.402595,-10413.563955
6586.352136,-1569.691626,1148.554848,-9341.579430
6586.354712,3522.234867,-8422.735552,-11045.269122
6586.357287,-995.414202,4441.078746,-8748.159426
6586.359863,-440.279358,-3809.373579,-11332.407834
6586.362439,2163.111630,1990.828403,-9973.284597
6586.365014,-2411.965181,10681.560086,-8269.594906
6586.367590,976.271621,-2143.969050,-10394.421374
6586.370165,-3866.801322,2450.250342,-9590.432981
6586.372741,-133.998066,1990.828403,-10375.278794
6586.375316,669.990328,-401.994197,-10030.712339
6586.377892,287.138712,2890.529701,-9150.153622
6586.380467,-2660.818731,957.129040,-10145.567824
6586.383043,-287.138712,287.138712,-9820.143950
6586.385618,976.271621,3503.092286,-9513.862658
6586.388194,191.425808,-421.136778,-10088.140082
6586.390769,229.710970,1607.976787,-9418.149754
6586.393345,-823.130974,1875.972918,-9992.427178
6586.395920,-3541.377448,2239.681954,-10030.712339
6586.398496,-2488.535504,4134.797453,-9073.583299
6586.401071,937.986459,1703.689691,-9896.714274
6586.403647,-899.701298,3235.096155,-10241.280728
6586.406222,-267.996131,1033.699363,-9973.284597
6586.408798,1244.267752,1933.400661,-9073.583299
6586.411373,-803.988394,4192.225195,-8480.163294
6586.413949,6010.770371,-11696.116869,-12442.677520
6586.416524,1282.552914,-2105.683888,-10068.997501
6586.419100,2258.824534,-880.558717,-10413.563955
6586.421675,593.420005,516.849682,-9494.720077
6586.424251,-38.285162,4268.795518,-9054.440718
6586.426826,5589.633594,-3560.520029,-10566.704602
6586.429402,593.420005,2143.969050,-8997.012976
6586.431977,95.712904,-2641.676150,-10872.985894
6586.434553,823.130974,401.994197,-9762.716208
6586.437128,1110.269686,1799.402595,-9245.866526
6586.439704,1493.121302,-1454.836141,-10490.134278
6586.442279,765.703232,1646.261949,-9169.296203
6586.444855,4823.930362,-1607.976787,-10011.569758
6586.447430,4192.225195,-1990.828403,-10375.278794
6586.450006,-1359.123237,1588.834206,-9284.151688
6586.452581,3713.660675,-8480.163294,-11121.839445
6586.455157,-1339.980656,4153.940034,-8250.452325
6586.457732,995.414202,-4479.363907,-11428.120738
6586.460306,1665.404530,3828.516160,-9571.290400
6586.462881,-4211.367776,13801.800757,-7312.465866
6586.465456,2009.970984,-3464.807125,-10470.991698
6586.468030,-3196.810994,3579.662610,-9265.009107
6586.470605,-631.705166,2201.396792,-10375.278794
6586.473180,823.130974,-421.136778,-10030.712339
6586.475755,401.994197,2526.820666,-9265.009107
6586.478329,-1780.260014,-401.994197,-10260.423309
6586.480904,-574.277424,1646.261949,-9628.718142
6586.483479,-210.568389,4115.654872,-9379.864592
6586.486053,325.423874,-1703.689691,-10375.278794
6586.488628,325.423874,1684.547110,-9073.583299
6586.491203,-765.703232,2603.390989,-10145.567824
6586.493778,-3598.805190,1684.547110,-10011.569758
6586.496352,-918.843878,4785.645200,-8767.302006
6586.498927,-746.560651,3790.230998,-9533.005238
6586.501502,-535.992262,708.275490,-10758.130410
6586.504077,-1205.982590,2143.969050,-9954.142016
6586.506651,1895.115499,-1263.410333,-9762.716208
6586.509226,-421.136778,5953.342629,-8518.448456
6586.511801,-133.998066,-1454.836141,-10222.138147
6586.514375,1052.841944,-3828.516160,-10509.276859
6586.516950,2756.531635,-861.416136,-10241.280728
6586.519525,727.418070,-229.710970,-9973.284597
6586.522100,421.136778,4058.227130,-8843.872330
6586.524674,5283.352301,-1416.550979,-10030.712339
6586.527249,689.132909,1493.121302,-9265.009107
6586.529824,-95.712904,-3694.518094,-10911.271056
6586.532398,880.558717,1263.410333,-9896.714274
6586.534973,2182.254211,1205.982590,-9284.151688
6586.537548,306.281293,-937.986459,-10183.852986
6586.540123,2431.107762,1129.412267,-9207.581365
6586.542697,4192.225195,-842.273555,-9858.429112
6586.545272,3905.086483,-4364.508422,-10872.985894
6586.547847,-306.281293,3081.955509,-8939.585234
6586.550421,2201.396792,-5091.926493,-10030.712339
6586.552996,1148.554848,19.142581,-9418.149754
6586.555571,-861.416136,823.130974,-10681.560086
6586.558146,2124.826469,-5627.918755,-11638.689126
6586.560719,114.855485,7848.458128,-8403.592971
6586.563293,-133.998066,3656.232933,-9418.149754
6586.565866,-2967.100024,1359.123237,-9341.579430
6586.568440,-172.283227,1741.974853,-10432.706536
6586.571013,957.129040,-842.273555,-10183.852986
6586.573587,-363.709035,2335.394858,-9150.153622
6586.576160,-1875.972918,1684.547110,-10145.567824
6586.578734,76.570323,1837.687757,-9475.577496
6586.581307,612.562586,995.414202,-9743.573627
6586.583881,918.843878,-823.130974,-10145.567824
6586.586454,-1301.695494,2392.822600,-9245.866526
6586.589028,-1301.695494,1837.687757,-10451.849117
6586.591601,-4326.223261,3311.666478,-9877.571693
6586.594175,1359.123237,708.275490,-9647.860723
6586.596748,-1244.267752,5781.059402,-9571.290400
6586.599322,382.851616,669.990328,-10509.276859
6586.601895,784.845813,5015.356170,-8441.878133
6586.604468,-1148.554848,-191.425808,-9686.145885
6586.607042,6144.768437,-11849.257515,-11696.116869
6586.609615,-2277.967115,8135.596840,-8212.167163
6586.612189,3407.379382,-4173.082614,-11102.696864
6586.614762,459.421939,1818.545176,-8997.012976
6586.617336,1148.554848,0.000000,-10030.712339
6586.619909,3866.801322,-3235.096155,-10643.274925
6586.622483,937.986459,727.418070,-9437.292334
6586.625056,1167.697429,-1531.406464,-10643.274925
6586.627630,899.701298,-535.992262,-9801.001370
6586.630203,-114.855485,2852.244539,-9571.290400
6586.632777,784.845813,-1244.267752,-10260.423309
6586.635350,1071.984525,1627.119368,-9016.155557
6586.637924,4402.793584,-2641.676150,-10298.708470
6586.640497,4115.654872,-555.134843,-10202.995566
6586.643071,-727.418070,4613.361973,-8729.016845
6586.645644,2947.957443,-6795.616184,-10413.563955
6586.648218,746.560651,899.701298,-8863.014910
6586.650791,-995.414202,-1990.828403,-11236.694930
6586.653365,1837.687757,-1282.552914,-10930.413637
6586.655938,-4421.936165,13514.662045,-7542.176835
6586.658512,2679.961312,-4747.360038,-11026.126541
6586.661085,-2182.254211,5589.633594,-8403.592971
6586.663658,-1205.982590,2297.109696,-10260.423309
6586.666230,267.996131,-918.843878,-10451.849117
6586.668803,76.570323,2603.390989,-9092.725880
6586.671375,-1435.693560,344.566454,-10432.706536
6586.673948,-976.271621,1875.972918,-9379.864592
6586.676520,612.562586,3101.098090,-9494.720077
6586.679093,631.705166,-1416.550979,-10183.852986
6586.681665,-823.130974,2890.529701,-9054.440718
6586.684238,-1033.699363,1952.543242,-10566.704602
6586.686810,-3560.520029,2871.387120,-10126.425243
6586.689382,1225.125171,421.136778,-9169.296203
6586.691955,-1990.828403,7446.463931,-8748.159426
6586.694527,976.271621,-497.707101,-10911.271056
6586.697100,-2450.250342,6240.481341,-8441.878133
6586.699672,574.277424,-4651.647134,-11045.269122
6586.702245,4728.217458,-5264.209720,-10528.419440
6586.704817,-1301.695494,7121.040058,-7944.171032
6586.707390,2354.537438,-6355.336826,-11351.550414
6586.709962,2067.398726,1435.693560,-9456.434915
6586.712535,708.275490,-1301.695494,-10107.282662
6586.715107,2354.537438,-2182.254211,-10834.700733
6586.717680,2182.254211,382.851616,-9226.723946
6586.720252,995.414202,382.851616,-9475.577496
6586.722824,516.849682,-401.994197,-10030.712339
6586.725397,172.283227,1895.115499,-9724.431046
6586.727969,1722.832272,-976.271621,-10260.423309
6586.730542,1359.123237,1416.550979,-9284.151688
6586.733114,3751.945837,-2143.969050,-9954.142016
6586.735687,4498.506488,-1033.699363,-10088.140082
6586.738259,-38.285162,4134.797453,-8863.014910
6586.740832,2718.246474,-5953.342629,-10509.276859
6586.743404,555.134843,401.994197,-9341.579430
6586.745977,-1014.556782,-3273.381317,-11236.694930
6586.748549,2565.105827,-708.275490,-10394.421374
6586.751122,-4632.504554,14222.937534,-7408.178770
6586.753694,2737.389054,-5225.924558,-11102.696864
6586.756266,-2086.541307,6125.625856,-8556.733618
6586.758839,-1512.263883,2335.394858,-10336.993632
6586.761411,-267.996131,-306.281293,-10030.712339
6586.763984,95.712904,2354.537438,-8901.300072
6586.766555,-325.423874,-57.427742,-10260.423309
6586.769126,-1493.121302,2143.969050,-9533.005238
6586.771698,-38.285162,3349.951640,-9647.860723
6586.774269,937.986459,-1454.836141,-10183.852986
6586.776840,-344.566454,2488.535504,-9035.298138
6586.779412,-1741.974853,2029.113565,-10222.138147
6586.781983,-3637.090352,2584.248408,-10011.569758
6586.784554,861.416136,2239.681954,-9552.147819
6586.787125,-1531.406464,6412.764568,-9131.011042
6586.789697,114.855485,229.710970,-10432.706536
6586.792268,497.707101,5340.780043,-8595.018779
6586.794839,-612.562586,-727.418070,-9954.142016
6586.797410,5800.201982,-10892.128475,-11581.261384
6586.799982,-2105.683888,7235.895542,-8231.309744
6586.802553,3196.810994,-4766.502619,-10949.556218
6586.805124,957.129040,1550.549045,-9207.581365
6586.807696,1091.127106,-401.994197,-10260.423309
6586.810267,2986.242605,-2641.676150,-10719.845248
6586.812838,1856.830338,-325.423874,-9226.723946
6586.815409,1167.697429,325.423874,-9801.001370
6586.817981,421.136778,19.142581,-9915.856854
6586.820552,-133.998066,1493.121302,-10107.282662
6586.823123,1416.550979,-631.705166,-10375.278794
6586.825695,2641.676150,229.710970,-9131.011042
6586.828266,3503.092286,-1531.406464,-9667.003304
6586.830837,4326.223261,-2507.678085,-10528.419440
6586.833408,2086.541307,-57.427742,-9801.001370
6586.835980,267.996131,-440.279358,-8901.300072
6586.838551,2890.529701,-3579.662610,-10126.425243
6586.841122,-2220.539373,5953.342629,-9571.290400
6586.843693,1129.412267,-5283.352301,-11619.546546
6586.846265,-803.988394,9322.436850,-8173.882002
6586.848836,-153.140646,3215.953574,-9686.145885
6586.851407,-2871.387120,1416.550979,-9131.011042
6586.853979,-440.279358,2277.967115,-10049.854920
6586.856550,516.849682,-1033.699363,-10317.851051
6586.859121,-191.425808,-363.709035,-9954.142016
6586.861692,-1665.404530,2067.398726,-9954.142016
6586.864264,-784.845813,3254.238736,-9111.868461
6586.866835,689.132909,1378.265818,-9647.860723
6586.869405,57.427742,-325.423874,-10298.708470
6586.871975,-363.709035,2277.967115,-9360.722011
6586.874546,-2947.957443,2947.957443,-10164.710405
6586.877116,-1684.547110,2220.539373,-10164.710405
6586.879686,-957.129040,2947.957443,-8920.442653
6586.882256,1148.554848,459.421939,-10777.272990
6586.884826,-3311.666478,3311.666478,-9762.716208
6586.887396,4115.654872,-4747.360038,-10413.563955
6586.889967,2239.681954,5513.063270,-8729.016845
6586.892537,19.142581,-4364.508422,-10470.991698
6586.895107,1033.699363,-3445.664544,-10049.854920
6586.897677,2469.392923,-650.847747,-10317.851051
6586.900247,957.129040,708.275490,-9686.145885
6586.902818,-19.142581,4517.649069,-9016.155557
6586.905388,3751.945837,803.988394,-9896.714274
6586.907958,421.136778,-1129.412267,-9245.866526
6586.910528,1033.699363,-2297.109696,-10490.134278
6586.913098,401.994197,1761.117434,-10107.282662
6586.915669,344.566454,823.130974,-9762.716208
6586.918239,899.701298,-114.855485,-9781.858789
6586.920809,3177.668413,-1167.697429,-9494.720077
6586.923379,5206.781978,-1435.693560,-9934.999435
6586.925949,-1129.412267,2201.396792,-10107.282662
6586.928520,3617.947771,-8518.448456,-11351.550414
6586.931090,325.423874,-229.710970,-8824.729749
6586.933660,-727.418070,-3158.525832,-11083.554283
6586.936230,2029.113565,229.710970,-10413.563955
6586.938800,-3847.658741,13265.808494,-7829.315547
6586.941370,2335.394858,-4153.940034,-11332.407834
6586.943941,-1780.260014,5627.918755,-8288.737486
6586.946511,-2009.970984,2603.390989,-9858.429112
6586.949081,-287.138712,-937.986459,-10164.710405
6586.951650,1282.552914,1588.834206,-9379.864592
6586.954220,-478.564520,497.707101,-10336.993632
6586.956789,-1397.408398,1607.976787,-9379.864592
6586.959359,-344.566454,3560.520029,-9379.864592
6586.961928,746.560651,-535.992262,-10164.710405
6586.964498,-133.998066,2124.826469,-9456.434915
6586.967067,-2641.676150,2833.101958,-10011.569758
6586.969637,-2794.816797,2277.967115,-10164.710405
6586.972206,440.279358,1205.982590,-9609.575562
6586.974775,-1856.830338,5570.491013,-9226.723946
6586.977345,-1473.978722,1875.972918,-10202.995566
6586.979914,2545.963246,-593.420005,-9705.288466
6586.982484,-153.140646,6240.481341,-8059.026517
6586.985053,3273.381317,-10662.417506,-11447.263318
6586.987623,-57.427742,516.849682,-9379.864592
6586.990192,2622.533570,-631.705166,-10662.417506
6586.992762,957.129040,2507.678085,-9992.427178
6586.995331,1627.119368,3292.523898,-9667.003304
6586.997900,3043.670347,-3215.953574,-10011.569758
6587.000470,2086.541307,-3656.232933,-9934.999435
6587.003039,803.988394,-1416.550979,-10451.849117
6587.005609,1148.554848,1282.552914,-10719.845248
6587.008178,-133.998066,1703.689691,-9877.571693
6587.010748,708.275490,976.271621,-9035.298138
6587.013317,3292.523898,-765.703232,-8786.444587
6587.015886,4709.074877,-2124.826469,-10011.569758
6587.018456,-574.277424,2297.109696,-10202.995566
6587.021025,2890.529701,-6106.483275,-11121.839445
6587.023595,95.712904,1493.121302,-8901.300072
6587.026164,-497.707101,-4230.510357,-10719.845248
6587.028734,2048.256146,95.712904,-9724.431046
6587.031303,-3598.805190,11868.400096,-7810.172966
6587.033873,2526.820666,-4900.500685,-11600.403965
6587.036442,-3330.809059,3464.807125,-9265.009107
6587.039011,-440.279358,3483.949706,-9839.286531
6587.041581,57.427742,-1014.556782,-10011.569758
6587.044150,401.994197,2086.541307,-9092.725880
6587.046720,440.279358,-95.712904,-10394.421374
6587.049289,-937.986459,1339.980656,-9992.427178
6587.051859,-1014.556782,3503.092286,-9590.432981
6587.054427,363.709035,-1186.840010,-10183.852986
6587.056996,153.140646,2086.541307,-9073.583299
6587.059565,-3196.810994,3962.514226,-9341.579430
6587.062134,-133.998066,1339.980656,-11217.552349
6587.064703,-2794.816797,7235.895542,-8748.159426
6587.067271,803.988394,2373.680019,-10145.567824
6587.069840,-2603.390989,1320.838075,-9801.001370
6587.072409,4307.080680,-3885.943902,-9934.999435
6587.074978,1225.125171,5436.492947,-8748.159426
6587.077547,497.707101,-7484.749093,-11523.833642
6587.080116,516.849682,-2316.252277,-10107.282662
6587.082684,2239.681954,-497.707101,-9973.284597
6587.085253,1301.695494,421.136778,-9590.432981
6587.087822,38.285162,4804.787781,-8518.448456
6587.090391,3311.666478,1186.840010,-9915.856854
6587.092960,976.271621,-3139.383251,-10279.565890
6587.095528,1684.547110,-2124.826469,-10394.421374
6587.098097,344.566454,976.271621,-10202.995566
6587.100666,-95.712904,976.271621,-9590.432981
6587.103235,2450.250342,172.283227,-9571.290400
6587.105804,3177.668413,-803.988394,-9341.579430
6587.108373,2775.674216,-3254.238736,-10662.417506
6587.110941,1741.974853,-497.707101,-10758.130410
6587.113510,1397.408398,-823.130974,-9379.864592
6587.116079,1454.836141,-1933.400661,-9207.581365
6587.118648,-1301.695494,2699.103893,-9762.716208
6587.121217,2143.969050,-4651.647134,-11523.833642
6587.123785,-2258.824534,12098.111066,-8116.454259
6587.126354,612.562586,267.996131,-10892.128475
6587.128923,-3081.955509,1933.400661,-9111.868461
6587.131492,-535.992262,2182.254211,-9781.858789
6587.134061,631.705166,-210.568389,-9743.573627
6587.136629,-267.996131,1110.269686,-9647.860723
6587.139198,-440.279358,2316.252277,-10413.563955
6587.141767,-1512.263883,2526.820666,-9590.432981
6587.144336,191.425808,1588.834206,-9303.294269
6587.146905,153.140646,-19.142581,-9762.716208
6587.149474,-976.271621,1875.972918,-9399.007173
6587.152042,-2718.246474,3062.812928,-10126.425243
6587.154611,38.285162,1435.693560,-10451.849117
6587.157179,-2660.818731,7101.897477,-8250.452325
6587.159747,287.138712,842.273555,-10279.565890
6587.162315,-612.562586,6393.621987,-8652.446522
6587.164883,957.129040,-3196.810994,-10738.987829
6587.167450,4230.510357,-6527.620053,-10892.128475
6587.170018,-1703.689691,5379.065205,-8173.882002
6587.172586,2220.539373,-6489.334891,-11370.692995
6587.175154,2545.963246,899.701298,-9667.003304
6587.177722,1282.552914,-344.566454,-10413.563955
6587.180290,1971.685822,-727.418070,-10451.849117
6587.182857,2431.107762,1110.269686,-9131.011042
6587.185425,19.142581,-669.990328,-9552.147819
6587.187993,1607.976787,-1741.974853,-10394.421374
6587.190561,976.271621,2928.814862,-9820.143950
6587.193129,823.130974,-57.427742,-10451.849117
6587.195697,2277.967115,-1033.699363,-9322.436850
6587.198265,4823.930362,-1301.695494,-9131.011042
6587.200832,0.000000,-1359.123237,-10451.849117
6587.203400,2890.529701,-6661.618118,-11236.694930
6587.205968,-516.849682,2507.678085,-8614.161360
6587.208536,689.132909,-5053.641331,-10853.843314
6587.211104,1378.265818,3349.951640,-9131.011042
6587.213672,-2833.101958,9150.153622,-8863.014910
6587.216239,2354.537438,-4268.795518,-11485.548480
6587.218807,-1454.836141,8575.876198,-8039.883936
6587.221375,-4268.795518,2871.387120,-9743.573627
6587.223943,19.142581,-1359.123237,-10049.854920
6587.226511,1205.982590,1167.697429,-9418.149754
6587.229079,497.707101,-421.136778,-10413.563955
6587.231647,-765.703232,1359.123237,-9762.716208
6587.234214,-1435.693560,4900.500685,-9150.153622
6587.236782,114.855485,-1033.699363,-10241.280728
6587.239350,-478.564520,2277.967115,-9207.581365
6587.241918,-2813.959378,2679.961312,-10145.567824
6587.244486,918.843878,689.132909,-10528.419440
6587.247054,-3426.521963,7216.752962,-8537.591037
6587.249621,-1205.982590,1320.838075,-10030.712339
6587.252189,-3579.662610,2699.103893,-9628.718142
6587.254757,5551.348432,-5206.781978,-10930.413637
6587.257325,3924.229064,3349.951640,-9092.725880
6587.259892,-1378.265818,-1416.550979,-9609.575562
6587.262459,1282.552914,-5321.637462,-10566.704602
6587.265027,2756.531635,-344.566454,-9934.999435
6587.267594,1722.832272,-650.847747,-10202.995566
6587.270161,421.136778,4345.365842,-9341.579430
6587.272728,2469.392923,957.129040,-9762.716208
6587.275295,1110.269686,-3043.670347,-9896.714274
6587.277862,1627.119368,-1205.982590,-9877.571693
6587.280430,-19.142581,1761.117434,-10183.852986
6587.282997,1320.838075,440.279358,-10298.708470
6587.285564,1837.687757,210.568389,-9628.718142
6587.288131,4287.938099,-2143.969050,-9207.581365
6587.290698,995.414202,-1818.545176,-10068.997501
6587.293266,3981.656806,-3503.092286,-11255.837510
