#time,accel_x,accel_y,accel_z
6710.313991,459.421939,861.416136,-9762.716208
6710.316551,421.136778,708.275490,-9858.429112
6710.319114,516.849682,574.277424,-9820.143950
6710.321677,344.566454,842.273555,-9858.429112
6710.324240,1761.117434,918.843878,-9724.431046
6710.326803,918.843878,363.709035,-9858.429112
6710.329366,1741.974853,2431.107762,-9647.860723
6710.331929,957.129040,38.285162,-9973.284597
6710.334492,1990.828403,3656.232933,-9207.581365
6710.337055,2794.816797,1167.697429,-9839.286531
6710.339618,-2086.541307,3617.947771,-9858.429112
6710.342181,2163.111630,5398.207786,-9265.009107
6710.344744,2775.674216,-1435.693560,-10049.854920
6710.347307,-1990.828403,-4268.795518,-10260.423309
6710.349870,2641.676150,2182.254211,-8480.163294
6710.352433,-727.418070,-5015.356170,-11485.548480
6710.354996,-1416.550979,4153.940034,-9877.571693
6710.357559,-401.994197,1301.695494,-9284.151688
6710.360122,38.285162,-3158.525832,-10222.138147
6710.362685,478.564520,2565.105827,-9111.868461
6710.365248,2718.246474,2507.678085,-9801.001370
6710.367810,-2718.246474,-2488.535504,-10911.271056
6710.370373,-1914.258080,1933.400661,-9265.009107
6710.372936,1435.693560,0.000000,-9456.434915
6710.375499,957.129040,-1856.830338,-10317.851051
6710.378062,-957.129040,2411.965181,-9533.005238
6710.380625,-95.712904,-478.564520,-10126.425243
6710.383188,-612.562586,1339.980656,-9954.142016
6710.385751,555.134843,-133.998066,-9475.577496
6710.388314,1148.554848,497.707101,-9820.143950
6710.390877,-1091.127106,861.416136,-10011.569758
6710.393440,-229.710970,1167.697429,-9781.858789
6710.396003,727.418070,-382.851616,-9934.999435
6710.398566,-1148.554848,-57.427742,-10011.569758
6710.401129,-1263.410333,-210.568389,-9934.999435
6710.403692,1225.125171,2756.531635,-9418.149754
6710.406255,-1282.552914,-2450.250342,-10566.704602
6710.408818,-2009.970984,-631.705166,-9934.999435
6710.411381,4173.082614,1244.267752,-9016.155557
6710.413944,-899.701298,-4785.645200,-11160.124606
6710.416507,-2584.248408,2679.961312,-9724.431046
6710.419070,-153.140646,4383.651003,-8863.014910
6710.421635,650.847747,-2220.539373,-10719.845248
6710.424200,-1320.838075,1531.406464,-9743.573627
6710.426764,2545.963246,-306.281293,-9513.862658
6710.429329,-1225.125171,-2775.674216,-10834.700733
6710.431894,-76.570323,5379.065205,-8212.167163
6710.434459,-880.558717,-7331.608446,-11447.263318
6710.437024,-1473.978722,5149.354235,-9858.429112
6710.439588,6278.766502,3694.518094,-8671.589102
6710.442153,1454.836141,-5379.065205,-11504.691061
6710.444718,-4077.369710,6833.901346,-8805.587168
6710.447283,2565.105827,-1416.550979,-9628.718142
6710.449847,2928.814862,-133.998066,-10796.415571
6710.452412,-631.705166,1416.550979,-9992.427178
6710.454977,4996.213589,325.423874,-9418.149754
6710.457542,-2297.109696,1014.556782,-9667.003304
6710.460107,-899.701298,3196.810994,-9188.438784
6710.462671,5225.924558,1971.685822,-9456.434915
6710.465236,957.129040,-2201.396792,-11140.982026
6710.467801,-1569.691626,1741.974853,-9494.720077
6710.470366,1493.121302,1244.267752,-8633.303941
6710.472931,861.416136,535.992262,-10107.282662
6710.475495,1818.545176,4326.223261,-9934.999435
6710.478060,2737.389054,689.132909,-9992.427178
6710.480625,-1205.982590,459.421939,-9533.005238
6710.483190,0.000000,574.277424,-9188.438784
6710.485755,1550.549045,976.271621,-9915.856854
6710.488319,1397.408398,918.843878,-10413.563955
6710.490884,191.425808,842.273555,-9628.718142
6710.493449,287.138712,516.849682,-9245.866526
6710.496014,1665.404530,899.701298,-9533.005238
6710.498579,1033.699363,1186.840010,-10222.138147
6710.501143,3215.953574,2737.389054,-9724.431046
6710.503708,1665.404530,1761.117434,-9743.573627
6710.506273,-2086.541307,2258.824534,-9418.149754
6710.508838,3235.096155,4345.365842,-8690.731683
6710.511402,2679.961312,-1014.556782,-10145.567824
6710.513967,-2411.965181,-3790.230998,-11370.692995
6710.516532,1205.982590,5283.352301,-8269.594906
6710.519097,708.275490,-1990.828403,-10068.997501
6710.521662,2163.111630,3617.947771,-9494.720077
6710.524228,-746.560651,-478.564520,-10183.852986
6710.526795,4326.223261,4287.938099,-9762.716208
6710.529361,344.566454,-3139.383251,-10490.134278
6710.531928,-3311.666478,3656.232933,-9494.720077
6710.534494,3694.518094,4460.221326,-8499.305875
6710.537061,3771.088418,-6240.481341,-10394.421374
6710.539627,-4862.215523,803.988394,-10451.849117
6710.542194,3426.521963,3866.801322,-8786.444587
6710.544760,-267.996131,-5627.918755,-11562.118803
6710.547327,-2967.100024,5704.489078,-8212.167163
6710.549893,2890.529701,-1665.404530,-10394.421374
6710.552460,-1091.127106,-1301.695494,-10145.567824
6710.555026,631.705166,2124.826469,-9437.292334
6710.557593,-937.986459,-114.855485,-10049.854920
6710.560159,708.275490,3847.658741,-8671.589102
6710.562726,803.988394,-1167.697429,-10336.993632
6710.565292,401.994197,-421.136778,-10585.847182
6710.567859,-1722.832272,-1225.125171,-9915.856854
6710.570425,248.853550,1569.691626,-9284.151688
6710.572992,1091.127106,-210.568389,-9896.714274
6710.575558,-401.994197,-440.279358,-10126.425243
6710.578125,114.855485,1684.547110,-9839.286531
6710.580691,555.134843,-172.283227,-9801.001370
6710.583258,-478.564520,-497.707101,-10068.997501
6710.585824,-57.427742,727.418070,-9686.145885
6710.588391,363.709035,478.564520,-10145.567824
6710.590957,19.142581,555.134843,-10011.569758
6710.593524,-19.142581,133.998066,-9437.292334
6710.596090,937.986459,-153.140646,-9667.003304
6710.598657,-1933.400661,842.273555,-10260.423309
6710.601223,-746.560651,-440.279358,-10107.282662
6710.603790,-1607.976787,-1971.685822,-9801.001370
6710.606356,3120.240670,1856.830338,-9647.860723
6710.608923,306.281293,-2794.816797,-10222.138147
6710.611489,-1435.693560,-1014.556782,-10183.852986
6710.614056,-1531.406464,5015.356170,-9035.298138
6710.616622,708.275490,-1512.263883,-10336.993632
6710.619189,133.998066,861.416136,-10068.997501
6710.621755,1129.412267,-823.130974,-9475.577496
6710.624322,-497.707101,-1588.834206,-10451.849117
6710.626886,-574.277424,3751.945837,-8824.729749
6710.629454,-2545.963246,-6967.899411,-11428.120738
6710.632022,-1895.115499,880.558717,-10643.274925
6710.634590,5953.342629,9054.440718,-7561.319416
6710.637158,57.427742,-6565.905214,-11849.257515
6710.639726,-3254.238736,8729.016845,-8652.446522
6710.642294,2526.820666,-1799.402595,-9954.142016
6710.644862,2584.248408,1110.269686,-10183.852986
6710.647430,-440.279358,1186.840010,-9705.288466
6710.649998,5379.065205,-555.134843,-9647.860723
6710.652566,-2277.967115,2718.246474,-9533.005238
6710.655134,-2373.680019,4096.512291,-9169.296203
6710.657702,6125.625856,1741.974853,-9437.292334
6710.660270,0.000000,325.423874,-10815.558152
6710.662838,1569.691626,3617.947771,-8786.444587
6710.665406,593.420005,-899.701298,-9475.577496
6710.667974,-1588.834206,1741.974853,-9628.718142
6710.670542,2335.394858,133.998066,-10336.993632
6710.673110,3177.668413,1359.123237,-10279.565890
6710.675678,-765.703232,2431.107762,-9399.007173
6710.678246,1052.841944,-401.994197,-9456.434915
6710.680814,1339.980656,1359.123237,-9379.864592
6710.683382,593.420005,1186.840010,-10490.134278
6710.685950,1110.269686,555.134843,-10470.991698
6710.688518,1091.127106,1205.982590,-9016.155557
6710.691086,1301.695494,1512.263883,-9131.011042
6710.693654,2239.681954,1665.404530,-9820.143950
6710.696222,937.986459,2220.539373,-10126.425243
6710.698790,957.129040,1512.263883,-9934.999435
6710.701358,1722.832272,1569.691626,-9647.860723
6710.703926,-1990.828403,2029.113565,-9475.577496
6710.706494,3522.234867,2679.961312,-8709.874264
6710.709062,344.566454,-1914.258080,-11140.982026
6710.711630,-1454.836141,-38.285162,-10432.706536
6710.714198,3847.658741,3311.666478,-8958.727814
6710.716766,995.414202,-937.986459,-9647.860723
6710.719334,-2029.113565,3617.947771,-9303.294269
6710.721902,4670.789715,4613.361973,-9035.298138
6710.724470,-2392.822600,-5647.061336,-12212.966550
6710.727038,-1761.117434,7580.461997,-8575.876198
6710.729607,3828.516160,3617.947771,-8001.598774
6710.732176,-650.847747,-8863.014910,-11791.829773
6710.734745,-1320.838075,7101.897477,-8633.303941
6710.737314,708.275490,-4000.799387,-10872.985894
6710.739883,-574.277424,2775.674216,-9628.718142
6710.742452,-2565.105827,823.130974,-9265.009107
6710.745021,4115.654872,-1531.406464,-9896.714274
6710.747590,976.271621,-669.990328,-10202.995566
6710.750159,-4173.082614,-2986.242605,-11064.411702
6710.752728,861.416136,2813.959378,-8843.872330
6710.755297,2086.541307,574.277424,-9399.007173
6710.757866,-210.568389,-1473.978722,-10566.704602
6710.760435,-2660.818731,153.140646,-9858.429112
6710.763004,287.138712,1990.828403,-9150.153622
6710.765573,1799.402595,-1722.832272,-10834.700733
6710.768142,38.285162,1033.699363,-9801.001370
6710.770711,-229.710970,516.849682,-9590.432981
6710.773279,248.853550,803.988394,-9762.716208
6710.775848,133.998066,937.986459,-9724.431046
6710.778417,995.414202,57.427742,-10222.138147
6710.780986,0.000000,1339.980656,-9915.856854
6710.783555,1512.263883,574.277424,-9379.864592
6710.786124,-2086.541307,-2833.101958,-10375.278794
6710.788693,-3081.955509,1091.127106,-9724.431046
6710.791262,229.710970,-267.996131,-10145.567824
6710.793831,3311.666478,133.998066,-10145.567824
6710.796400,-1569.691626,-2565.105827,-9839.286531
6710.798969,-2756.531635,-38.285162,-9131.011042
6710.801538,1722.832272,4594.219392,-9245.866526
6710.804107,-957.129040,-2852.244539,-11294.122672
6710.806676,57.427742,2182.254211,-9801.001370
6710.809245,-19.142581,-2679.961312,-9590.432981
6710.811814,-1033.699363,-976.271621,-10241.280728
6710.814383,382.851616,3464.807125,-9092.725880
6710.816952,-3043.670347,-6336.194245,-11274.980091
6710.819521,1550.549045,7140.182638,-9188.438784
6710.822090,7159.325219,-1646.261949,-9494.720077
6710.824659,-2392.822600,-1895.115499,-10777.272990
6710.827228,344.566454,11006.983960,-7235.895542
6710.829797,995.414202,-5053.641331,-11466.405899
6710.832367,-19.142581,5398.207786,-10049.854920
6710.834937,344.566454,918.843878,-9513.862658
6710.837507,3828.516160,-1167.697429,-9628.718142
6710.840077,-1914.258080,4115.654872,-9418.149754
6710.842647,612.562586,880.558717,-9858.429112
6710.845217,401.994197,-421.136778,-10202.995566
6710.847786,2699.103893,5627.918755,-9341.579430
6710.850356,4383.651003,-1780.260014,-10164.710405
6710.852926,-2277.967115,1627.119368,-9590.432981
6710.855496,-382.851616,2469.392923,-8977.870395
6710.858066,3330.809059,-1244.267752,-10585.847182
6710.860636,2163.111630,1875.972918,-9992.427178
6710.863206,210.568389,1339.980656,-9322.436850
6710.865776,1588.834206,1588.834206,-9265.009107
6710.868346,-95.712904,153.140646,-9858.429112
6710.870916,1110.269686,574.277424,-10068.997501
6710.873486,1588.834206,1722.832272,-9915.856854
6710.876056,1512.263883,1359.123237,-9915.856854
6710.878626,2048.256146,1722.832272,-9245.866526
6710.881196,-727.418070,76.570323,-9724.431046
6710.883766,2277.967115,4881.358104,-9399.007173
6710.886336,4134.797453,2124.826469,-10202.995566
6710.888906,-2794.816797,-497.707101,-10490.134278
6710.891476,2124.826469,4804.787781,-7886.743290
6710.894046,1875.972918,-2967.100024,-10394.421374
6710.896616,-1607.976787,-1263.410333,-10930.413637
6710.899186,3273.381317,4498.506488,-9092.725880
6710.901756,2316.252277,-689.132909,-10088.140082
6710.904326,-2890.529701,2603.390989,-9571.290400
6710.906896,1435.693560,8767.302006,-7829.315547
6710.909466,2086.541307,-3790.230998,-10681.560086
6710.912036,-3560.520029,-38.285162,-11064.411702
6710.914606,3637.090352,4862.215523,-8020.741355
6710.917176,-727.418070,-9035.298138,-11619.546546
6710.919746,-2086.541307,5972.485210,-8595.018779
6710.922316,459.421939,-3464.807125,-10451.849117
6710.924886,133.998066,2507.678085,-9973.284597
6710.927456,-2450.250342,650.847747,-9839.286531
6710.930025,3254.238736,1167.697429,-9513.862658
6710.932595,689.132909,-1339.980656,-10030.712339
6710.935149,-4555.934230,-1952.543242,-10624.132344
6710.937703,1684.547110,3330.809059,-9035.298138
6710.940257,1493.121302,-1435.693560,-10336.993632
6710.942810,-57.427742,-421.136778,-10413.563955
6710.945364,-57.427742,861.416136,-9322.436850
6710.947918,-2411.965181,-2316.252277,-10126.425243
6710.950471,-497.707101,1531.406464,-9399.007173
6710.953025,2660.818731,153.140646,-10298.708470
6710.955579,1110.269686,401.994197,-10145.567824
6710.958133,-765.703232,727.418070,-9571.290400
6710.960686,-765.703232,-76.570323,-9322.436850
6710.963240,1512.263883,1780.260014,-9781.858789
6710.965794,-153.140646,-861.416136,-10949.556218
6710.968347,-1493.121302,1244.267752,-9590.432981
6710.970901,-1435.693560,-1875.972918,-9628.718142
6710.973455,-1052.841944,-478.564520,-9801.001370
6710.976008,1473.978722,1512.263883,-10222.138147
6710.978562,306.281293,-363.709035,-9934.999435
6710.981116,746.560651,-2947.957443,-9973.284597
6710.983670,-3330.809059,555.134843,-9915.856854
6710.986223,1397.408398,1435.693560,-9533.005238
6710.988777,1703.689691,1473.978722,-9992.427178
6710.991331,-210.568389,-574.277424,-9781.858789
6710.993884,-995.414202,-1282.552914,-10336.993632
6710.996438,918.843878,2852.244539,-8786.444587
6710.998992,-2660.818731,-7082.754896,-11255.837510
6711.001546,-2009.970984,995.414202,-10643.274925
6711.004099,5302.494882,8690.731683,-7657.032320
6711.006653,-574.277424,-6393.621987,-12021.540742
6711.009207,-2029.113565,9399.007173,-8288.737486
6711.011760,2603.390989,-1684.547110,-9858.429112
6711.014314,2641.676150,1320.838075,-10183.852986
6711.016868,38.285162,1818.545176,-9724.431046
6711.019422,3483.949706,-880.558717,-9877.571693
6711.021975,-1512.263883,4307.080680,-9226.723946
6711.024529,-976.271621,3330.809059,-9131.011042
6711.027083,2699.103893,-937.986459,-10356.136213
6711.029636,2718.246474,4900.500685,-9686.145885
6711.032190,2622.533570,-669.990328,-10049.854920
6711.034744,-1014.556782,1359.123237,-9475.577496
6711.037300,-1378.265818,2258.824534,-8863.014910
6711.039857,1895.115499,-1397.408398,-10700.702667
6711.042414,1607.976787,2871.387120,-10068.997501
6711.044970,1895.115499,-248.853550,-9877.571693
6711.047527,-153.140646,2163.111630,-9245.866526
6711.050083,401.994197,669.990328,-9686.145885
6711.052640,1703.689691,880.558717,-9647.860723
6711.055197,1799.402595,2392.822600,-10126.425243
6711.057753,555.134843,1052.841944,-9896.714274
6711.060310,2660.818731,995.414202,-9131.011042
6711.062866,1263.410333,2354.537438,-9552.147819
6711.065423,2565.105827,4555.934230,-9915.856854
6711.067980,-210.568389,-1282.552914,-10681.560086
6711.070536,478.564520,5685.346498,-8556.733618
6711.073093,-746.560651,1186.840010,-9245.866526
6711.075649,4421.936165,459.421939,-9609.575562
6711.078206,-1531.406464,-1397.408398,-10872.985894
6711.080763,3962.514226,5493.920690,-9150.153622
6711.083319,-133.998066,-3656.232933,-10968.698798
6711.085876,-2488.535504,7905.885870,-8499.305875
6711.088432,4460.221326,1110.269686,-9035.298138
6711.090989,-2373.680019,-6527.620053,-12117.253646
6711.093546,1148.554848,6833.901346,-8001.598774
6711.096102,2469.392923,-7657.032320,-10892.128475
6711.098659,-1627.119368,-2469.392923,-10872.985894
6711.101215,-3924.229064,2852.244539,-8843.872330
6711.103772,3943.371645,-401.994197,-9954.142016
6711.106329,-2239.681954,976.271621,-10088.140082
6711.108885,1875.972918,2813.959378,-9456.434915
6711.111442,2124.826469,-1359.123237,-9915.856854
6711.113998,-5685.346498,-2603.390989,-10490.134278
6711.116555,1320.838075,2641.676150,-8843.872330
6711.119112,3522.234867,-191.425808,-9934.999435
6711.121668,-76.570323,459.421939,-10470.991698
6711.124225,-612.562586,1722.832272,-9092.725880
6711.126781,-1205.982590,-1186.840010,-9973.284597
6711.129338,-325.423874,382.851616,-9801.001370
6711.131895,1473.978722,-153.140646,-9934.999435
6711.134451,1052.841944,1167.697429,-10241.280728
6711.137008,-957.129040,823.130974,-9858.429112
6711.139567,1148.554848,19.142581,-9341.579430
6711.142126,-421.136778,95.712904,-9628.718142
6711.144686,-1244.267752,-210.568389,-10585.847182
6711.147245,-1282.552914,210.568389,-10183.852986
6711.149804,1761.117434,1588.834206,-9437.292334
6711.152363,-1646.261949,-4364.508422,-10222.138147
6711.154923,-2354.537438,172.283227,-9322.436850
6711.157482,2928.814862,3101.098090,-9131.011042
6711.160041,-1914.258080,-5417.350366,-11983.255581
6711.162601,38.285162,3790.230998,-9265.009107
6711.165160,-1473.978722,-1320.838075,-9322.436850
6711.167719,2316.252277,3541.377448,-9265.009107
6711.170278,-1780.260014,-2947.957443,-10202.995566
6711.172838,-2507.678085,1952.543242,-10317.851051
6711.175397,3483.949706,535.992262,-9284.151688
6711.177956,-727.418070,-6240.481341,-11102.696864
6711.180515,-3330.809059,3962.514226,-10183.852986
6711.183075,4019.941968,6297.909083,-8193.024582
6711.185634,-765.703232,-2545.963246,-11160.124606
6711.188193,-937.986459,6297.909083,-8690.731683
6711.190752,6738.188442,-1186.840010,-9858.429112
6711.193312,-1225.125171,-459.421939,-9954.142016
6711.195871,1646.261949,842.273555,-9743.573627
6711.198430,-114.855485,-1397.408398,-10528.419440
6711.200989,-1110.269686,5340.780043,-9111.868461
6711.203549,3254.238736,2871.387120,-8901.300072
6711.206108,4402.793584,2392.822600,-9724.431046
6711.208667,-746.560651,1339.980656,-9934.999435
6711.211227,-287.138712,1014.556782,-9494.720077
6711.213786,306.281293,650.847747,-9781.858789
6711.216345,76.570323,708.275490,-10107.282662
6711.218904,2545.963246,1320.838075,-9724.431046
6711.221464,957.129040,823.130974,-9590.432981
6711.224023,-325.423874,1493.121302,-9628.718142
6711.226582,574.277424,842.273555,-9628.718142
6711.229141,1301.695494,1225.125171,-9896.714274
6711.231701,2584.248408,1244.267752,-9896.714274
6711.234260,2718.246474,2105.683888,-9590.432981
6711.236819,2124.826469,4460.221326,-9207.581365
6711.239378,-1780.260014,1378.265818,-9762.716208
6711.241940,1914.258080,4517.649069,-9322.436850
6711.244502,1473.978722,-1627.119368,-10585.847182
6711.247063,-708.275490,-3445.664544,-10853.843314
6711.249625,3254.238736,4498.506488,-8307.880067
6711.252187,2813.959378,631.705166,-9628.718142
6711.254748,-1875.972918,1780.260014,-10317.851051
6711.257310,3215.953574,8958.727814,-8078.169098
6711.259872,-153.140646,-6642.475538,-11600.403965
6711.262433,-3885.943902,4594.219392,-9322.436850
6711.264995,4441.078746,133.998066,-8920.442653
6711.267557,-2086.541307,-6297.909083,-11657.831707
6711.270118,-497.707101,6910.471669,-8346.165229
6711.272680,1071.984525,-5532.205851,-11160.124606
6711.275242,-1722.832272,2086.541307,-9437.292334
6711.277803,-2833.101958,1416.550979,-9801.001370
6711.280365,3062.812928,-2124.826469,-10413.563955
6711.282927,-382.851616,1359.123237,-9915.856854
6711.285488,-765.703232,1741.974853,-9647.860723
6711.288050,-727.418070,-3177.668413,-9934.999435
6711.290612,-2143.969050,823.130974,-9533.005238
6711.293173,2909.672282,459.421939,-9915.856854
6711.295735,1071.984525,-459.421939,-10356.136213
6711.298297,-1990.828403,3024.527766,-9054.440718
6711.300858,-1339.980656,-267.996131,-9494.720077
6711.303420,976.271621,344.566454,-9801.001370
6711.305982,784.845813,459.421939,-10068.997501
6711.308543,363.709035,1110.269686,-10241.280728
6711.311105,-344.566454,248.853550,-9858.429112
6711.313667,-497.707101,-153.140646,-9265.009107
6711.316228,-631.705166,-363.709035,-9934.999435
6711.318790,440.279358,0.000000,-10241.280728
6711.321352,-1110.269686,0.000000,-10547.562021
6711.323913,-1933.400661,19.142581,-9322.436850
6711.326475,2354.537438,-957.129040,-8863.014910
6711.329037,-2143.969050,-3522.234867,-11179.267187
6711.331598,-114.855485,3809.373579,-9418.149754
6711.334160,2565.105827,2297.109696,-9552.147819
6711.336722,-1646.261949,-1282.552914,-10298.708470
6711.339283,-1761.117434,1129.412267,-9418.149754
6711.341845,2316.252277,1244.267752,-9245.866526
6711.344409,-3043.670347,-6374.479406,-11619.546546
6711.346972,-2526.820666,2316.252277,-10317.851051
6711.349536,5513.063270,5934.200048,-7714.460062
6711.352099,-1339.980656,-5551.348432,-11753.544611
6711.354663,-1129.412267,10375.278794,-8193.024582
6711.357226,3062.812928,-1990.828403,-10241.280728
6711.359790,2526.820666,2756.531635,-9877.571693
6711.362353,325.423874,2009.970984,-9533.005238
6711.364917,2143.969050,-1416.550979,-9686.145885
6711.367480,-287.138712,3732.803256,-9016.155557
6711.370044,-19.142581,-3426.521963,-10949.556218
6711.372607,210.568389,-421.136778,-10681.560086
6711.375171,1895.115499,4670.789715,-9111.868461
6711.377734,4919.643266,1378.265818,-9609.575562
6711.380298,-995.414202,823.130974,-9954.142016
6711.382861,-1167.697429,1895.115499,-9131.011042
6711.385425,2316.252277,440.279358,-9781.858789
6711.387988,19.142581,708.275490,-10490.134278
6711.390552,631.705166,1339.980656,-9781.858789
6711.393115,3024.527766,937.986459,-9131.011042
6711.395679,153.140646,-555.134843,-9877.571693
6711.398242,516.849682,1761.117434,-9801.001370
6711.400806,2565.105827,2679.961312,-9839.286531
6711.403369,4000.799387,2297.109696,-9552.147819
6711.405933,1263.410333,2469.392923,-9188.438784
6711.408496,-1282.552914,421.136778,-9724.431046
6711.411060,1627.119368,4096.512291,-9609.575562
6711.413623,459.421939,2297.109696,-9896.714274
6711.416187,2756.531635,-727.418070,-9781.858789
6711.418751,-1301.695494,-440.279358,-10298.708470
6711.421314,2928.814862,4173.082614,-9016.155557
6711.423878,-76.570323,-4785.645200,-11351.550414
6711.426441,-1110.269686,7848.458128,-9207.581365
6711.429005,4517.649069,2143.969050,-8805.587168
6711.431568,-2239.681954,-5685.346498,-11581.261384
6711.434132,918.843878,7178.467800,-7733.602643
6711.436695,1856.830338,-8575.876198,-11389.835576
6711.439259,-3120.240670,3081.955509,-10107.282662
6711.441822,-842.273555,-689.132909,-9647.860723
6711.444386,4077.369710,-306.281293,-9437.292334
6711.446934,-2565.105827,1703.689691,-9686.145885
6711.449482,2029.113565,2699.103893,-9513.862658
6711.452030,1397.408398,-1818.545176,-10738.987829
6711.454578,-3637.090352,612.562586,-10088.140082
6711.457126,210.568389,-2143.969050,-9303.294269
6711.459674,-746.560651,-842.273555,-9896.714274
6711.462223,880.558717,1837.687757,-9801.001370
6711.464771,1990.828403,-267.996131,-10260.423309
6711.467319,-650.847747,861.416136,-9667.003304
6711.469867,-1684.547110,325.423874,-9437.292334
6711.472415,1320.838075,306.281293,-9781.858789
6711.474963,-114.855485,631.705166,-10126.425243
6711.477511,535.992262,1320.838075,-10068.997501
6711.480060,-918.843878,-497.707101,-9915.856854
6711.482608,-1091.127106,210.568389,-9226.723946
6711.485156,784.845813,803.988394,-9667.003304
6711.487704,-1129.412267,-2143.969050,-10892.128475
6711.490252,-2565.105827,-2354.537438,-10375.278794
6711.492800,1607.976787,3196.810994,-8843.872330
6711.495348,-325.423874,-5953.342629,-10758.130410
6711.497896,421.136778,1091.127106,-9934.999435
6711.500445,-535.992262,3081.955509,-9513.862658
6711.502993,2450.250342,1454.836141,-9801.001370
6711.505541,-4479.363907,-2699.103893,-10298.708470
6711.508089,1895.115499,5187.639397,-8269.594906
6711.510637,2737.389054,-7101.897477,-10968.698798
6711.513185,-2871.387120,1167.697429,-9073.583299
6711.515733,2603.390989,10375.278794,-8154.739421
6711.518281,3273.381317,-2297.109696,-10336.993632
6711.520830,-3254.238736,5589.633594,-9399.007173
6711.523378,2258.824534,1895.115499,-8958.727814
6711.525926,4555.934230,-1014.556782,-10585.847182
6711.528474,-1837.687757,1167.697429,-9954.142016
6711.531022,1550.549045,-555.134843,-9858.429112
6711.533570,1454.836141,5091.926493,-8633.303941
6711.536118,-382.851616,-1703.689691,-10241.280728
6711.538667,1282.552914,-1225.125171,-10624.132344
6711.541215,1512.263883,3656.232933,-9437.292334
6711.543763,3215.953574,1033.699363,-9915.856854
6711.546311,306.281293,1493.121302,-9801.001370
6711.548863,-1091.127106,689.132909,-9303.294269
6711.551415,1837.687757,1091.127106,-9552.147819
6711.553966,459.421939,401.994197,-10509.276859
6711.556518,-172.283227,899.701298,-9973.284597
6711.559070,1588.834206,880.558717,-9245.866526
6711.561622,344.566454,1205.982590,-9647.860723
6711.564174,1531.406464,2297.109696,-9781.858789
6711.566725,3675.375514,2871.387120,-9801.001370
6711.569277,-267.996131,2603.390989,-9762.716208
6711.571829,2450.250342,2565.105827,-9054.440718
6711.574381,937.986459,344.566454,-10145.567824
6711.576933,-1684.547110,1435.693560,-10068.997501
6711.579485,4651.647134,3694.518094,-8939.585234
6711.582036,1052.841944,-3235.096155,-10585.847182
6711.584588,1033.699363,5340.780043,-9035.298138
6711.587140,1665.404530,-2679.961312,-9896.714274
6711.589692,-2603.390989,1780.260014,-10356.136213
6711.592244,3598.805190,6833.901346,-8556.733618
6711.594795,-1512.263883,-7350.751027,-11638.689126
6711.597347,-4345.365842,593.420005,-10183.852986
6711.599899,2143.969050,2545.963246,-8958.727814
6711.602451,459.421939,-6508.477472,-11466.405899
6711.605003,-5130.211654,2277.967115,-9399.007173
6711.607555,3120.240670,229.710970,-9762.716208
6711.610106,-937.986459,-76.570323,-10088.140082
6711.612658,957.129040,5091.926493,-8939.585234
6711.615210,2048.256146,-2163.111630,-10260.423309
6711.617762,-3388.236802,-38.285162,-10241.280728
6711.620314,-1875.972918,-363.709035,-9475.577496
6711.622865,1454.836141,-2967.100024,-10222.138147
6711.625417,-38.285162,1990.828403,-10107.282662
6711.627969,401.994197,555.134843,-9820.143950
6711.630523,555.134843,1148.554848,-9475.577496
6711.633078,-1512.263883,478.564520,-9686.145885
6711.635633,172.283227,-76.570323,-10222.138147
6711.638188,1512.263883,1359.123237,-9915.856854
6711.640743,-153.140646,210.568389,-10260.423309
6711.643298,-574.277424,306.281293,-9379.864592
6711.645853,-2488.535504,-574.277424,-9896.714274
6711.648408,-1473.978722,-593.420005,-10126.425243
6711.650963,-344.566454,-2182.254211,-10241.280728
6711.653519,1148.554848,2488.535504,-9724.431046
6711.656074,-363.709035,-3828.516160,-10107.282662
6711.658629,650.847747,-287.138712,-9705.288466
6711.661184,-1990.828403,1818.545176,-9896.714274
6711.663739,2852.244539,2967.100024,-9743.573627
6711.666294,-3369.094221,-3196.810994,-10624.132344
6711.668849,-2947.957443,2488.535504,-9303.294269
6711.671404,3235.096155,306.281293,-9035.298138
6711.673959,-1110.269686,-6719.045861,-11849.257515
6711.676514,1263.410333,9839.286531,-8729.016845
6711.679069,4785.645200,-1205.982590,-10107.282662
6711.681624,-2909.672282,4651.647134,-9647.860723
6711.684180,1320.838075,2603.390989,-8709.874264
6711.686735,5072.783912,-1627.119368,-10490.134278
6711.689290,-1895.115499,899.701298,-10298.708470
6711.691845,-1263.410333,-57.427742,-10030.712339
6711.694400,3426.521963,4134.797453,-8767.302006
6711.696955,363.709035,1110.269686,-9896.714274
6711.699510,38.285162,-784.845813,-10394.421374
6711.702065,1780.260014,3809.373579,-9303.294269
6711.704620,1856.830338,574.277424,-10183.852986
6711.707175,1033.699363,1780.260014,-9667.003304
6711.709730,-248.853550,899.701298,-9437.292334
6711.712285,1244.267752,440.279358,-9858.429112
6711.714840,899.701298,708.275490,-10145.567824
6711.717396,516.849682,1493.121302,-10030.712339
6711.719951,1301.695494,1071.984525,-9647.860723
6711.722506,1569.691626,1550.549045,-9456.434915
6711.725061,2182.254211,1971.685822,-9590.432981
6711.727616,76.570323,2718.246474,-9877.571693
6711.730171,2909.672282,3541.377448,-9341.579430
6711.732729,1607.976787,172.283227,-10604.989763
6711.735287,-1780.260014,1895.115499,-9513.862658
6711.737845,3790.230998,3675.375514,-8307.880067
6711.740403,497.707101,-2871.387120,-10719.845248
6711.742961,1990.828403,4919.643266,-9667.003304
6711.745519,784.845813,-3962.514226,-10566.704602
6711.748077,-1607.976787,4000.799387,-9494.720077
6711.750635,3464.807125,3235.096155,-8595.018779
6711.753193,-2316.252277,-5091.926493,-11753.544611
6711.755751,1033.699363,7925.028451,-8039.883936
6711.758309,2507.678085,-7848.458128,-11102.696864
6711.760867,-3043.670347,995.414202,-10068.997501
6711.763425,-4651.647134,1339.980656,-9150.153622
6711.765983,3407.379382,-248.853550,-9839.286531
6711.768541,-1607.976787,2335.394858,-9915.856854
6711.771099,1703.689691,2603.390989,-9533.005238
6711.773658,803.988394,-2086.541307,-10260.423309
6711.776216,-2009.970984,1435.693560,-9628.718142
6711.778774,-2163.111630,-2392.822600,-10049.854920
6711.781332,-133.998066,957.129040,-9781.858789
6711.783890,784.845813,-918.843878,-10298.708470
6711.786448,1205.982590,1646.261949,-10088.140082
6711.789006,267.996131,133.998066,-9475.577496
6711.791564,-689.132909,57.427742,-9265.009107
6711.794122,133.998066,784.845813,-10279.565890
6711.796680,555.134843,842.273555,-10547.562021
6711.799238,1225.125171,363.709035,-9896.714274
6711.801796,-2239.681954,612.562586,-9226.723946
6711.804354,-1244.267752,-1684.547110,-9571.290400
6711.806912,-2316.252277,-1856.830338,-10547.562021
6711.809470,2450.250342,1205.982590,-10088.140082
6711.812028,-1225.125171,-4345.365842,-10509.276859
6711.814586,-995.414202,842.273555,-8786.444587
6711.817144,229.710970,3215.953574,-8920.442653
6711.819702,1129.412267,-1607.976787,-10911.271056
6711.822260,-2545.963246,1244.267752,-10700.702667
6711.824818,1895.115499,2890.529701,-8843.872330
6711.827376,-1703.689691,-7848.458128,-11026.126541
6711.829934,248.853550,6661.618118,-8193.024582
6711.832492,6967.899411,-1627.119368,-9992.427178
6711.835052,-57.427742,-5187.639397,-12480.962682
6711.837613,-899.701298,9284.151688,-8652.446522
6711.840173,2718.246474,-2124.826469,-9552.147819
6711.842733,2297.109696,2909.672282,-9092.725880
6711.845293,363.709035,3656.232933,-9628.718142
6711.847853,2373.680019,-1665.404530,-10566.704602
6711.850414,-325.423874,976.271621,-9724.431046
6711.852974,440.279358,-95.712904,-10030.712339
6711.855534,2641.676150,2794.816797,-8958.727814
6711.858094,1607.976787,3062.812928,-9418.149754
6711.860654,727.418070,1512.263883,-10260.423309
6711.863214,1588.834206,1856.830338,-9839.286531
6711.865775,784.845813,880.558717,-9705.288466
6711.868335,765.703232,0.000000,-9399.007173
6711.870895,593.420005,1339.980656,-9628.718142
6711.873455,19.142581,421.136778,-10738.987829
6711.876015,1875.972918,1684.547110,-9360.722011
6711.878576,2086.541307,1607.976787,-9571.290400
6711.881136,2048.256146,1684.547110,-9533.005238
6711.883696,-153.140646,-210.568389,-9934.999435
6711.886256,2469.392923,5838.487144,-9571.290400
6711.888816,3713.660675,3024.527766,-9762.716208
6711.891376,-1263.410333,-3158.525832,-10413.563955
6711.893937,708.275490,3905.086483,-8441.878133
6711.896497,1454.836141,-2986.242605,-10088.140082
6711.899057,1493.121302,4670.789715,-9801.001370
6711.901617,2067.398726,421.136778,-9724.431046
6711.904177,-1818.545176,-191.425808,-10547.562021
6711.906738,-1225.125171,7867.600709,-8288.737486
6711.909298,3924.229064,-3522.234867,-9647.860723
6711.911858,-3560.520029,-1531.406464,-11198.409768
6711.914418,1435.693560,4689.932296,-8575.876198
6711.916978,1148.554848,-6757.331022,-11255.837510
6711.919539,-4632.504554,937.986459,-9284.151688
6711.922099,2182.254211,497.707101,-9647.860723
6711.924659,-574.277424,229.710970,-10490.134278
6711.927219,727.418070,5187.639397,-9150.153622
6711.929779,1225.125171,-2220.539373,-10202.995566
6711.932339,-1837.687757,-1435.693560,-10317.851051
6711.934900,-3656.232933,-650.847747,-9609.575562
6711.937462,2526.820666,-1741.974853,-9954.142016
6711.940024,306.281293,1531.406464,-10394.421374
6711.942586,880.558717,689.132909,-10164.710405
6711.945148,401.994197,-382.851616,-9322.436850
6711.947710,-478.564520,1473.978722,-8729.016845
6711.950273,574.277424,287.138712,-10356.136213
6711.952835,1607.976787,1129.412267,-10604.989763
6711.955397,-1493.121302,-1186.840010,-9686.145885
6711.957959,-2641.676150,-612.562586,-9322.436850
6711.960521,-1473.978722,-1531.406464,-9954.142016
6711.963083,1933.400661,1512.263883,-10049.854920
6711.965646,-1454.836141,-4402.793584,-11255.837510
6711.968208,-1091.127106,995.414202,-9169.296203
6711.970770,1512.263883,3062.812928,-8499.305875
6711.973332,-114.855485,-2488.535504,-10643.274925
6711.975894,-2182.254211,2086.541307,-10126.425243
6711.978457,1339.980656,6029.912952,-8729.016845
6711.981019,1205.982590,-7369.893608,-10949.556218
6711.983581,-3024.527766,2411.965181,-9494.720077
6711.986143,5570.491013,4747.360038,-8097.311678
6711.988705,-689.132909,-5340.780043,-12155.538808
6711.991267,-784.845813,9590.432981,-8499.305875
6711.993830,2526.820666,-2086.541307,-10049.854920
6711.996392,1033.699363,4096.512291,-8997.012976
6711.998954,-1454.836141,3464.807125,-9303.294269
6712.001516,2431.107762,-57.427742,-9915.856854
6712.004078,1339.980656,1225.125171,-9743.573627
6712.006640,-861.416136,-229.710970,-10260.423309
6712.009203,3139.383251,2182.254211,-9341.579430
6712.011765,401.994197,1473.978722,-9590.432981
6712.014327,689.132909,2182.254211,-9820.143950
6712.016889,1607.976787,2182.254211,-9839.286531
6712.019451,1550.549045,210.568389,-9915.856854
6712.022013,-153.140646,708.275490,-9513.862658
6712.024576,957.129040,1378.265818,-9628.718142
6712.027138,880.558717,57.427742,-10183.852986
6712.029700,1607.976787,3005.385186,-9399.007173
6712.032262,2775.674216,1282.552914,-10011.569758
6712.034824,-689.132909,-497.707101,-9973.284597
6712.037386,2928.814862,6948.756830,-8365.307810
6712.039951,3885.943902,4039.084549,-9475.577496
6712.042515,-842.273555,-2947.957443,-10949.556218
6712.045079,363.709035,4594.219392,-8499.305875
6712.047643,880.558717,-2163.111630,-9954.142016
6712.050207,2603.390989,3981.656806,-9513.862658
6712.052771,669.990328,-2220.539373,-10088.140082
6712.055335,-1665.404530,2316.252277,-10298.708470
6712.057899,3215.953574,4689.932296,-8786.444587
6712.060463,-2392.822600,-6029.912952,-11408.978157
6712.063028,-3598.805190,1990.828403,-10068.997501
6712.065592,2009.970984,1531.406464,-8958.727814
6712.068156,535.992262,-5111.069074,-11313.265253
6712.070720,-4689.932296,612.562586,-9552.147819
6712.073284,2584.248408,-76.570323,-9552.147819
6712.075848,-861.416136,1933.400661,-9954.142016
6712.078412,708.275490,1856.830338,-9628.718142
6712.080976,-19.142581,-1129.412267,-10183.852986
6712.083541,-842.273555,1856.830338,-9628.718142
6712.086105,-1129.412267,-1378.265818,-9743.573627
6712.088669,-555.134843,-3292.523898,-10107.282662
6712.091233,-1435.693560,2488.535504,-9743.573627
6712.093797,1646.261949,1167.697429,-10336.993632
6712.096361,976.271621,-631.705166,-9877.571693
6712.098925,-1761.117434,1493.121302,-8997.012976
6712.101489,957.129040,95.712904,-10145.567824
6712.104053,-133.998066,-248.853550,-10777.272990
6712.106618,-1129.412267,1301.695494,-9839.286531
6712.109182,-1493.121302,-1722.832272,-9647.860723
6712.111746,1493.121302,-727.418070,-9533.005238
6712.114310,-2297.109696,-1627.119368,-10585.847182
6712.116874,-440.279358,803.988394,-9418.149754
6712.119438,2258.824534,191.425808,-9686.145885
6712.122002,-2316.252277,-3981.656806,-10930.413637
6712.124566,1091.127106,4977.071008,-8939.585234
6712.127131,-784.845813,-2947.957443,-10279.565890
6712.129695,-2545.963246,4613.361973,-9647.860723
6712.132259,3254.238736,650.847747,-9322.436850
6712.134823,3522.234867,-6489.334891,-10949.556218
6712.137387,-2679.961312,3656.232933,-10241.280728
6712.139951,3369.094221,2373.680019,-9035.298138
6712.142517,306.281293,1493.121302,-10298.708470
6712.145082,-574.277424,5379.065205,-8843.872330
6712.147648,5991.627790,-784.845813,-10164.710405
6712.150213,-918.843878,-574.277424,-10336.993632
6712.152779,-1263.410333,1033.699363,-9705.288466
6712.155345,4919.643266,2679.961312,-8709.874264
6712.157910,-1588.834206,-612.562586,-10853.843314
6712.160476,-669.990328,3483.949706,-9399.007173
6712.163041,3158.525832,2450.250342,-8843.872330
6712.165607,0.000000,133.998066,-10394.421374
6712.168173,803.988394,1607.976787,-9513.862658
6712.170738,1301.695494,861.416136,-9820.143950
6712.173304,669.990328,957.129040,-9839.286531
6712.175869,57.427742,1071.984525,-9552.147819
6712.178435,1569.691626,1282.552914,-9647.860723
6712.181001,2220.539373,2124.826469,-9743.573627
6712.183566,1856.830338,459.421939,-9781.858789
6712.186132,1895.115499,3177.668413,-9590.432981
6712.188697,2622.533570,5723.631659,-9054.440718
6712.191263,708.275490,-2163.111630,-10183.852986
6712.193828,344.566454,3483.949706,-9188.438784
6712.196394,421.136778,-918.843878,-9973.284597
6712.198960,3464.807125,3637.090352,-9533.005238
6712.201525,114.855485,-2488.535504,-10145.567824
6712.204091,-2029.113565,2143.969050,-10068.997501
6712.206656,1627.119368,8269.594906,-8307.880067
6712.209222,1588.834206,-5513.063270,-10470.991698
6712.211788,-3598.805190,2201.396792,-10222.138147
6712.214353,2775.674216,1512.263883,-8901.300072
6712.216919,-325.423874,-5264.209720,-11121.839445
6712.219484,-4632.504554,574.277424,-9552.147819
6712.222050,2737.389054,19.142581,-9781.858789
6712.224615,-535.992262,2029.113565,-9934.999435
6712.227181,-38.285162,267.996131,-10030.712339
6712.229747,765.703232,-2277.967115,-10145.567824
6712.232312,-1282.552914,957.129040,-10145.567824
6712.234878,-440.279358,-1033.699363,-9839.286531
6712.237443,-784.845813,-1875.972918,-10183.852986
6712.240009,-1435.693560,478.564520,-9820.143950
6712.242575,1799.402595,2067.398726,-9743.573627
6712.245141,880.558717,-861.416136,-10222.138147
6712.247708,-363.709035,1339.980656,-9054.440718
6712.250275,-19.142581,210.568389,-9839.286531
6712.252842,-440.279358,-229.710970,-10451.849117
6712.255409,-1359.123237,114.855485,-9762.716208
6712.257976,-727.418070,-1454.836141,-9686.145885
6712.260543,-38.285162,1512.263883,-9705.288466
6712.263110,-803.988394,-1990.828403,-9820.143950
6712.265677,746.560651,-3407.379382,-10413.563955
6712.268243,-2239.681954,-76.570323,-10566.704602
6712.270810,3694.518094,2354.537438,-9073.583299
6712.273377,-2679.961312,-1646.261949,-10202.995566
6712.275944,287.138712,6661.618118,-7963.313613
6712.278511,3713.660675,-1665.404530,-9934.999435
6712.281078,-1225.125171,-5072.783912,-11715.259450
6712.283645,3790.230998,8997.012976,-7848.458128
6712.286212,2067.398726,-4096.512291,-10892.128475
6712.288778,-2048.256146,7140.182638,-9035.298138
6712.291345,1225.125171,-363.709035,-9820.143950
6712.293912,4460.221326,1416.550979,-10088.140082
6712.296479,-344.566454,4441.078746,-9456.434915
6712.299046,2622.533570,-1052.841944,-9743.573627
6712.301613,-1378.265818,210.568389,-9035.298138
6712.304180,-516.849682,2182.254211,-10088.140082
6712.306747,3043.670347,1875.972918,-9934.999435
6712.309314,325.423874,172.283227,-9954.142016
6712.311880,-535.992262,2469.392923,-9456.434915
6712.314447,2947.957443,823.130974,-9667.003304
6712.317014,497.707101,593.420005,-9915.856854
6712.319581,-746.560651,1014.556782,-9724.431046
6712.322148,2431.107762,1531.406464,-10049.854920
6712.324715,574.277424,421.136778,-9858.429112
6712.327282,-344.566454,574.277424,-9839.286531
6712.329849,4709.074877,4383.651003,-9303.294269
6712.332416,3005.385186,1301.695494,-10088.140082
6712.334982,-1933.400661,3675.375514,-10126.425243
6712.337549,2565.105827,3790.230998,-8384.450390
6712.340116,1454.836141,-1646.261949,-10394.421374
6712.342683,-1148.554848,-1091.127106,-10432.706536
6712.345250,2258.824534,2565.105827,-9360.722011
6712.347818,3081.955509,1416.550979,-9456.434915
6712.350386,-2431.107762,-3962.514226,-10815.558152
6712.352954,-3426.521963,6412.764568,-8901.300072
6712.355522,4594.219392,1091.127106,-9073.583299
6712.358090,-2105.683888,-6163.911018,-12117.253646
6712.360658,0.000000,5934.200048,-8307.880067
6712.363226,1091.127106,-5761.916821,-10777.272990
6712.365794,-3426.521963,-669.990328,-9724.431046
6712.368362,1320.838075,1129.412267,-9571.290400
6712.370930,114.855485,516.849682,-10547.562021
6712.373498,478.564520,5436.492947,-8575.876198
6712.376066,689.132909,-1416.550979,-10107.282662
6712.378634,-1263.410333,-1205.982590,-10490.134278
6712.381202,-803.988394,133.998066,-9418.149754
6712.383770,516.849682,-1952.543242,-10279.565890
6712.386338,-478.564520,1263.410333,-9686.145885
6712.388906,-191.425808,957.129040,-10011.569758
6712.391474,1244.267752,-133.998066,-9762.716208
6712.394042,-363.709035,1282.552914,-9035.298138
6712.396610,-727.418070,-114.855485,-10451.849117
6712.399178,-1569.691626,-153.140646,-9934.999435
6712.401746,-555.134843,-401.994197,-9609.575562
6712.404314,421.136778,1378.265818,-9896.714274
6712.406882,-1052.841944,-2909.672282,-9992.427178
6712.409450,-57.427742,-3101.098090,-9954.142016
6712.412018,-1607.976787,612.562586,-10260.423309
6712.414586,3369.094221,976.271621,-9858.429112
6712.417154,-1435.693560,-2239.681954,-10202.995566
6712.419722,172.283227,7293.323285,-8346.165229
6712.422290,2890.529701,-4823.930362,-10413.563955
6712.424858,-2220.539373,-1071.984525,-10930.413637
6712.427426,4555.934230,7503.891674,-8039.883936
6712.429994,555.134843,-5283.352301,-11485.548480
6712.432562,-1741.974853,5321.637462,-9207.581365
6712.435130,114.855485,823.130974,-9571.290400
6712.437698,5436.492947,114.855485,-10317.851051
6712.440266,-1052.841944,3713.660675,-9647.860723
6712.442834,2124.826469,287.138712,-9628.718142
6712.445402,0.000000,325.423874,-9437.292334
6712.447970,1607.976787,3388.236802,-9379.864592
6712.450539,2967.100024,-1952.543242,-10777.272990
6712.453107,-937.986459,3139.383251,-9801.001370
6712.455676,861.416136,2756.531635,-9035.298138
6712.458244,2622.533570,-344.566454,-9934.999435
6712.460813,440.279358,1244.267752,-9743.573627
6712.463381,210.568389,1531.406464,-9609.575562
6712.465950,1971.685822,363.709035,-10222.138147
6712.468518,-1320.838075,2335.394858,-9456.434915
6712.471087,3924.229064,727.418070,-9360.722011
6712.473656,3043.670347,1607.976787,-10164.710405
6712.476224,1703.689691,6642.475538,-9188.438784
6712.478793,382.851616,-1741.974853,-10432.706536
6712.481361,899.701298,1512.263883,-9609.575562
6712.483930,-478.564520,669.990328,-9552.147819
6712.486498,5111.069074,2928.814862,-9609.575562
6712.489067,0.000000,-3445.664544,-10451.849117
6712.491635,-3158.525832,3158.525832,-9724.431046
6712.494204,4211.367776,3388.236802,-9131.011042
6712.496773,-3637.090352,-5417.350366,-11485.548480
6712.499341,1244.267752,7867.600709,-8039.883936
6712.501910,2794.816797,-5283.352301,-10470.991698
6712.504478,-2737.389054,-574.277424,-11064.411702
6712.507047,-4709.074877,478.564520,-9590.432981
6712.509615,2622.533570,-267.996131,-9686.145885
6712.512184,1129.412267,2009.970984,-9801.001370
6712.514752,-1550.549045,-2373.680019,-10624.132344
6712.517321,0.000000,2163.111630,-9092.725880
6712.519889,344.566454,1339.980656,-9284.151688
6712.522458,-248.853550,-1914.258080,-10624.132344
6712.525027,-1301.695494,1646.261949,-9341.579430
6712.527595,727.418070,-1320.838075,-9820.143950
6712.530164,1359.123237,727.418070,-10049.854920
6712.532732,-459.421939,-229.710970,-9896.714274
6712.535301,803.988394,1071.984525,-9399.007173
6712.537869,-459.421939,-363.709035,-9973.284597
6712.540438,-1971.685822,-478.564520,-10107.282662
6712.543006,-95.712904,-344.566454,-9915.856854
6712.545575,-593.420005,765.703232,-10049.854920
6712.548144,-995.414202,-1856.830338,-9724.431046
6712.550712,1167.697429,-3503.092286,-10011.569758
6712.553281,-2565.105827,-4728.217458,-11294.122672
6712.555851,1435.693560,4670.789715,-9188.438784
6712.558420,-1148.554848,-2660.818731,-10394.421374
6712.560989,-478.564520,7293.323285,-8556.733618
6712.563558,3483.949706,-3254.238736,-9973.284597
6712.566127,-1990.828403,-2852.244539,-10930.413637
6712.568697,4268.795518,8384.450390,-7982.456194
6712.571266,1186.840010,-5015.356170,-11619.546546
6712.573835,-1435.693560,7101.897477,-8748.159426
6712.576404,-535.992262,880.558717,-9724.431046
6712.578973,5398.207786,-325.423874,-10241.280728
6712.581543,-535.992262,4019.941968,-9399.007173
6712.584112,1818.545176,842.273555,-9858.429112
6712.586681,172.283227,153.140646,-9456.434915
6712.589250,2335.394858,2813.959378,-9303.294269
6712.591819,2239.681954,-2163.111630,-11006.983960
6712.594389,-267.996131,4383.651003,-9399.007173
6712.596958,1205.982590,1435.693560,-9111.868461
6712.599527,1531.406464,76.570323,-10049.854920
6712.602096,-325.423874,937.986459,-9705.288466
6712.604665,823.130974,2297.109696,-9437.292334
6712.607235,1550.549045,-325.423874,-10356.136213
6712.609804,-401.994197,1435.693560,-9456.434915
6712.612373,3790.230998,3483.949706,-9226.723946
6712.614942,4785.645200,2794.816797,-9934.999435
6712.617511,-2469.392923,1990.828403,-9896.714274
6712.620081,2316.252277,5819.344563,-8518.448456
6712.622650,1684.547110,-1033.699363,-10336.993632
6712.625219,2813.959378,-650.847747,-10107.282662
6712.627788,-1186.840010,-2105.683888,-10643.274925
6712.630357,3962.514226,5800.201982,-8843.872330
6712.632927,-1339.980656,-3311.666478,-10566.704602
6712.635496,-4268.795518,4957.928427,-9513.862658
6712.638065,4307.080680,2622.533570,-8767.302006
6712.640634,-1454.836141,-7044.469734,-11964.113000
6712.643203,-784.845813,4938.785846,-8633.303941
6712.645773,1148.554848,-4766.502619,-10585.847182
6712.648342,-2928.814862,-497.707101,-9896.714274
6712.650911,-689.132909,1837.687757,-9705.288466
6712.653480,-421.136778,-727.418070,-10279.565890
6712.656049,631.705166,3675.375514,-8786.444587
6712.658618,-708.275490,-2297.109696,-10470.991698
6712.661188,-382.851616,57.427742,-10317.851051
6712.663757,153.140646,229.710970,-9418.149754
6712.666326,-114.855485,-1301.695494,-10202.995566
6712.668896,-689.132909,1646.261949,-9418.149754
6712.671465,1359.123237,478.564520,-9992.427178
6712.674035,1091.127106,-229.710970,-9839.286531
6712.676604,-995.414202,1359.123237,-9609.575562
6712.679174,-1493.121302,-1646.261949,-10394.421374
6712.681743,765.703232,421.136778,-9686.145885
6712.684312,-2660.818731,-1454.836141,-10336.993632
6712.686882,-746.560651,-306.281293,-9628.718142
6712.689451,2182.254211,-1627.119368,-9475.577496
6712.692021,-2813.959378,-4077.369710,-10853.843314
6712.694590,2220.539373,3062.812928,-9111.868461
6712.697160,-727.418070,-2373.680019,-10241.280728
6712.699729,-1167.697429,5761.916821,-9399.007173
6712.702298,2718.246474,172.283227,-9092.725880
6712.704868,-727.418070,-5149.354235,-11255.837510
6712.707437,3656.232933,8346.165229,-8346.165229
6712.710007,1971.685822,-3809.373579,-11045.269122
6712.712576,-1359.123237,6757.331022,-8863.014910
6712.715146,440.279358,-823.130974,-9934.999435
6712.717715,3885.943902,1550.549045,-9839.286531
6712.720284,-363.709035,2163.111630,-9896.714274
6712.722854,1052.841944,1895.115499,-9647.860723
6712.725423,842.273555,95.712904,-9284.151688
6712.727993,1627.119368,2603.390989,-9628.718142
6712.730562,2201.396792,-842.273555,-10604.989763
6712.733131,440.279358,3541.377448,-9494.720077
6712.735701,-325.423874,401.994197,-9418.149754
6712.738270,880.558717,421.136778,-9992.427178
6712.740840,459.421939,1703.689691,-9915.856854
6712.743409,1301.695494,401.994197,-10298.708470
6712.745979,1244.267752,-76.570323,-9628.718142
6712.748548,1320.838075,4211.367776,-8843.872330
6712.751117,4441.078746,1550.549045,-10030.712339
6712.753687,1263.410333,2603.390989,-10068.997501
6712.756256,153.140646,3445.664544,-8958.727814
6712.758826,2354.537438,957.129040,-9896.714274
6712.761396,-708.275490,267.996131,-9839.286531
6712.763965,3503.092286,4441.078746,-8767.302006
6712.766535,918.843878,-4345.365842,-10987.841379
6712.769105,-1933.400661,-1091.127106,-10949.556218
6712.771675,1799.402595,7446.463931,-8078.169098
6712.774244,1627.119368,-6317.051664,-10624.132344
6712.776814,-3311.666478,3560.520029,-9686.145885
6712.779384,2431.107762,-363.709035,-9245.866526
6712.781954,-593.420005,-3579.662610,-10987.841379
6712.784523,-3656.232933,1091.127106,-9513.862658
6712.787093,3388.236802,-38.285162,-9781.858789
6712.789663,899.701298,1186.840010,-9743.573627
6712.792232,-3426.521963,-2411.965181,-10681.560086
6712.794802,-306.281293,1320.838075,-9265.009107
6712.797372,1148.554848,1033.699363,-9686.145885
6712.799942,-478.564520,-1741.974853,-10585.847182
6712.802511,-593.420005,1416.550979,-9150.153622
6712.805081,229.710970,-784.845813,-9896.714274
6712.807651,-172.283227,1512.263883,-10088.140082
6712.810220,-344.566454,-76.570323,-9973.284597
6712.812790,765.703232,669.990328,-9705.288466
6712.815360,-1263.410333,-497.707101,-10049.854920
6712.817930,-38.285162,1952.543242,-9513.862658
6712.820499,-2354.537438,-3407.379382,-10432.706536
6712.823069,-1971.685822,-401.994197,-9762.716208
6712.825639,2679.961312,1627.119368,-9035.298138
6712.828209,-1550.549045,-6680.760699,-11581.261384
6712.830778,382.851616,3675.375514,-8997.012976
6712.833348,-1416.550979,-1914.258080,-10317.851051
6712.835918,-2048.256146,2297.109696,-10202.995566
6712.838487,1761.117434,5072.783912,-8001.598774
6712.841041,918.843878,-6412.764568,-11102.696864
6712.843594,1665.404530,6719.045861,-9379.864592
6712.846147,2679.961312,-2201.396792,-10432.706536
6712.848700,-1071.984525,4938.785846,-9207.581365
6712.851254,-669.990328,1110.269686,-9571.290400
6712.853807,5493.920690,-114.855485,-9858.429112
6712.856360,210.568389,478.564520,-10011.569758
6712.858913,0.000000,2833.101958,-9379.864592
6712.861467,1607.976787,114.855485,-9379.864592
6712.864020,1397.408398,2450.250342,-9724.431046
6712.866573,2603.390989,1225.125171,-10260.423309
6712.869126,1493.121302,2239.681954,-9571.290400
6712.871680,-1186.840010,287.138712,-9437.292334
6712.874233,382.851616,918.843878,-9647.860723
6712.876786,1856.830338,1741.974853,-10068.997501
6712.879339,1205.982590,-210.568389,-10107.282662
6712.881892,1550.549045,3311.666478,-9035.298138
6712.884446,2756.531635,1416.550979,-9322.436850
6712.886999,2392.822600,2373.680019,-9954.142016
6712.889552,114.855485,1569.691626,-9973.284597
6712.892105,3503.092286,5072.783912,-9111.868461
6712.894659,-363.709035,1014.556782,-9934.999435
6712.897212,2565.105827,1397.408398,-8939.585234
6712.899765,-1493.121302,-3675.375514,-11083.554283
6712.902318,-1205.982590,3962.514226,-10011.569758
6712.904872,4230.510357,1435.693560,-9265.009107
6712.907425,-2603.390989,-4096.512291,-11332.407834
6712.909978,1588.834206,8518.448456,-7427.321350
6712.912531,1014.556782,-6853.043926,-10911.271056
6712.915085,-2890.529701,1684.547110,-10126.425243
6712.917638,-1454.836141,-1071.984525,-9992.427178
6712.920191,2411.965181,-2354.537438,-10241.280728
6712.922744,210.568389,957.129040,-9552.147819
6712.925298,-3790.230998,-937.986459,-10298.708470
6712.927851,1588.834206,3196.810994,-9092.725880
6712.930404,-459.421939,-2067.398726,-10547.562021
6712.932957,-248.853550,-325.423874,-10336.993632
6712.935510,1052.841944,669.990328,-9379.864592
6712.938064,-861.416136,-1071.984525,-9973.284597
6712.940617,-861.416136,1550.549045,-9628.718142
6712.943173,1416.550979,516.849682,-10107.282662
6712.945728,-459.421939,267.996131,-9896.714274
6712.948284,-1186.840010,153.140646,-9781.858789
6712.950840,-325.423874,1282.552914,-9494.720077
6712.953395,-2067.398726,-2890.529701,-10279.565890
6712.955951,-3005.385186,-1627.119368,-10298.708470
6712.958507,2603.390989,2852.244539,-9035.298138
6712.961063,-153.140646,-6163.911018,-11102.696864
6712.963618,-344.566454,2718.246474,-9494.720077
6712.966174,-1435.693560,-2048.256146,-10030.712339
6712.968730,-899.701298,5417.350366,-9743.573627
6712.971285,3235.096155,7791.030386,-7580.461997
6712.973841,2641.676150,-6604.190376,-10930.413637
6712.976397,-995.414202,4804.787781,-10049.854920
6712.978953,2699.103893,689.132909,-9322.436850
6712.981508,631.705166,2775.674216,-9743.573627
6712.984064,-1703.689691,2584.248408,-9590.432981
6712.986620,5570.491013,-1263.410333,-10164.710405
6712.989175,574.277424,2947.957443,-9303.294269
6712.991731,1473.978722,2603.390989,-9494.720077
6712.994287,516.849682,-306.281293,-9705.288466
6712.996842,1110.269686,2335.394858,-10011.569758
6712.999398,1895.115499,2947.957443,-9667.003304
6713.001954,2239.681954,-38.285162,-10011.569758
6713.004510,-2048.256146,708.275490,-9667.003304
6713.007065,842.273555,1205.982590,-9552.147819
6713.009621,2067.398726,995.414202,-10126.425243
6713.012177,1761.117434,1110.269686,-10088.140082
6713.014732,1435.693560,2029.113565,-9265.009107
6713.017288,2565.105827,2105.683888,-9035.298138
6713.019844,-555.134843,2105.683888,-10164.710405
6713.022399,3943.371645,4709.074877,-9533.005238
6713.024955,2526.820666,459.421939,-10624.132344
6713.027511,-1244.267752,-1818.545176,-9934.999435
6713.030067,689.132909,4307.080680,-8059.026517
6713.032622,2737.389054,344.566454,-9705.288466
6713.035178,-1837.687757,-1378.265818,-11274.980091
6713.037734,2986.242605,7714.460062,-8614.161360
6713.040289,995.414202,-7427.321350,-10758.130410
6713.042845,-3637.090352,3292.523898,-9418.149754
6713.045403,-1320.838075,4632.504554,-8422.735552
6713.047961,2354.537438,-4173.082614,-10968.698798
6713.050519,-3675.375514,-133.998066,-10336.993632
6713.053077,1780.260014,1091.127106,-9322.436850
6713.055635,2182.254211,440.279358,-9571.290400
6713.058193,-4996.213589,-2086.541307,-10394.421374
6713.060751,210.568389,3062.812928,-9035.298138
6713.063309,2163.111630,-631.705166,-10279.565890
6713.065867,76.570323,-1454.836141,-10356.136213
6713.068425,-842.273555,1435.693560,-8997.012976
6713.070983,306.281293,-57.427742,-9571.290400
6713.073541,-287.138712,153.140646,-10336.993632
6713.076099,229.710970,1110.269686,-9934.999435
6713.078657,0.000000,-689.132909,-10164.710405
6713.081215,-172.283227,1435.693560,-9494.720077
6713.083773,-3062.812928,-3177.668413,-10068.997501
6713.086331,-3196.810994,-823.130974,-10241.280728
6713.088889,2928.814862,1761.117434,-9322.436850
6713.091447,593.420005,-5283.352301,-10968.698798
6713.094005,-267.996131,1263.410333,-9552.147819
6713.096563,-1741.974853,-1761.117434,-9820.143950
6713.099121,-861.416136,4517.649069,-10030.712339
6713.101679,2526.820666,2143.969050,-9169.296203
6713.104237,-689.132909,-5857.629725,-11160.124606
6713.106794,3943.371645,8805.587168,-8078.169098
6713.109352,2201.396792,-3771.088418,-10758.130410
6713.111910,-1473.978722,5187.639397,-9379.864592
6713.114468,-1837.687757,2947.957443,-9552.147819
6713.117026,5627.918755,-1320.838075,-10241.280728
6713.119584,823.130974,2794.816797,-9379.864592
6713.122142,1378.265818,2679.961312,-9111.868461
6713.124700,38.285162,-440.279358,-9839.286531
6713.127258,-401.994197,2048.256146,-9934.999435
6713.129816,4498.506488,229.710970,-10222.138147
6713.132374,1493.121302,2029.113565,-9839.286531
6713.134932,-2622.533570,976.271621,-9399.007173
6713.137490,1110.269686,1205.982590,-9226.723946
6713.140048,2833.101958,1014.556782,-10375.278794
6713.142606,880.558717,1435.693560,-10279.565890
6713.145164,3043.670347,2775.674216,-9073.583299
6713.147724,2737.389054,1990.828403,-8958.727814
6713.150283,-976.271621,-76.570323,-10356.136213
6713.152843,3120.240670,6967.899411,-9092.725880
6713.155403,2699.103893,1741.974853,-10011.569758
6713.157962,1110.269686,-1435.693560,-10126.425243
6713.160522,-2699.103893,248.853550,-9226.723946
6713.163081,2143.969050,4938.785846,-9188.438784
6713.165641,2182.254211,-3081.955509,-10834.700733
6713.168201,-3311.666478,2431.107762,-10413.563955
6713.170760,3024.527766,6374.479406,-7867.600709
6713.173320,-727.418070,-8384.450390,-11332.407834
6713.175879,-2641.676150,3196.810994,-9150.153622
6713.178439,1627.119368,-3445.664544,-10681.560086
6713.180999,-1205.982590,-1512.263883,-10758.130410
6713.183558,-76.570323,3120.240670,-9054.440718
6713.186118,2392.822600,497.707101,-9647.860723
6713.188677,-1397.408398,-1148.554848,-9437.292334
6713.191237,-1856.830338,842.273555,-10107.282662
6713.193797,2316.252277,459.421939,-10164.710405
6713.196356,937.986459,-1148.554848,-10260.423309
6713.198916,-1129.412267,1339.980656,-9169.296203
6713.201475,153.140646,306.281293,-9245.866526
6713.204035,172.283227,401.994197,-10260.423309
6713.206595,-287.138712,1110.269686,-10145.567824
6713.209154,1761.117434,1397.408398,-9724.431046
6713.211714,-2526.820666,-3005.385186,-10145.567824
6713.214273,-4019.941968,-669.990328,-9379.864592
6713.216833,2737.389054,976.271621,-9456.434915
6713.219393,-440.279358,-6757.331022,-11830.114934
6713.221952,823.130974,2335.394858,-9245.866526
6713.224512,-2067.398726,-325.423874,-9456.434915
6713.227071,937.986459,5589.633594,-8671.589102
6713.229631,-1416.550979,-4766.502619,-11045.269122
6713.232191,-478.564520,2526.820666,-10241.280728
6713.234750,5072.783912,8518.448456,-7791.030386
6713.237310,957.129040,-4555.934230,-11026.126541
6713.239869,-1167.697429,5761.916821,-9092.725880
6713.242429,-363.709035,-114.855485,-9533.005238
6713.244989,2699.103893,2354.537438,-10030.712339
6713.247548,3407.379382,6010.770371,-8920.442653
6713.250109,2565.105827,-2239.681954,-10413.563955
6713.252671,-823.130974,-861.416136,-9877.571693
6713.255232,-708.275490,1799.402595,-9743.573627
6713.257793,4326.223261,-153.140646,-10317.851051
6713.260354,1837.687757,2718.246474,-9724.431046
6713.262915,-1512.263883,880.558717,-9513.862658
6713.265476,1282.552914,459.421939,-9533.005238
6713.268038,669.990328,1493.121302,-9781.858789
6713.270599,2029.113565,1837.687757,-10241.280728
6713.273160,2852.244539,2431.107762,-9839.286531
6713.275721,918.843878,3177.668413,-8939.585234
6713.278282,899.701298,727.418070,-9456.434915
6713.280843,2258.824534,2679.961312,-10107.282662
6713.283404,267.996131,2699.103893,-9915.856854
6713.285966,4517.649069,4192.225195,-9035.298138
6713.288527,-2182.254211,-4613.361973,-10451.849117
6713.291088,-191.425808,4326.223261,-8958.727814
6713.293649,3847.658741,-1933.400661,-9188.438784
6713.296210,-2067.398726,-7523.034254,-12193.823970
6713.298771,-287.138712,7274.180704,-8231.309744
6713.301333,1320.838075,-3598.805190,-9418.149754
6713.303894,-2048.256146,325.423874,-10011.569758
6713.306455,-2737.389054,363.709035,-9781.858789
6713.309016,2947.957443,-2909.672282,-10930.413637
6713.311577,-765.703232,1397.408398,-9896.714274
6713.314138,-306.281293,612.562586,-9590.432981
6713.316700,-1627.119368,-1205.982590,-9513.862658
6713.319261,-689.132909,-325.423874,-10088.140082
6713.321822,440.279358,803.988394,-10241.280728
6713.324383,2411.965181,114.855485,-9801.001370
6713.326944,-1990.828403,153.140646,-9705.288466
6713.329505,-631.705166,708.275490,-9418.149754
6713.332067,1607.976787,153.140646,-10011.569758
6713.334628,1205.982590,995.414202,-10068.997501
6713.337189,-3330.809059,-976.271621,-10394.421374
6713.339750,-3024.527766,-516.849682,-9418.149754
6713.342311,-459.421939,-2316.252277,-9513.862658
6713.344872,-1359.123237,-4766.502619,-11389.835576
6713.347434,19.142581,1799.402595,-9092.725880
6713.349995,1263.410333,1186.840010,-9647.860723
6713.352540,248.853550,229.710970,-10107.282662
6713.355086,-4823.930362,-3388.236802,-10336.993632
6713.357632,3866.801322,7006.184573,-8595.018779
6713.360177,7025.327154,-2699.103893,-10202.995566
6713.362723,-2124.826469,1588.834206,-10451.849117
6713.365269,765.703232,4881.358104,-8327.022648
6713.367815,1531.406464,-593.420005,-9992.427178
6713.370360,-38.285162,3043.670347,-9533.005238
6713.372906,4823.930362,2545.963246,-9437.292334
6713.375452,1875.972918,-3101.098090,-10949.556218
6713.377997,-1837.687757,4096.512291,-9073.583299
6713.380543,1473.978722,1512.263883,-9341.579430
6713.383089,325.423874,2048.256146,-9724.431046
6713.385634,2029.113565,1990.828403,-9858.429112
6713.388180,3005.385186,689.132909,-10164.710405
6713.390726,-1320.838075,478.564520,-9494.720077
6713.393271,153.140646,1244.267752,-9513.862658
6713.395817,2833.101958,976.271621,-10011.569758
6713.398363,3273.381317,2526.820666,-9934.999435
6713.400908,1416.550979,2813.959378,-9724.431046
6713.403454,708.275490,612.562586,-9245.866526
6713.406000,2335.394858,3522.234867,-9667.003304
6713.408546,306.281293,3369.094221,-9934.999435
6713.411091,4536.791650,3771.088418,-9111.868461
6713.413637,-306.281293,-4345.365842,-10451.849117
6713.416183,-3407.379382,2660.818731,-9513.862658
6713.418728,4536.791650,1607.976787,-9150.153622
6713.421274,-2067.398726,-6546.762634,-12480.962682
6713.423820,1378.265818,9111.868461,-7771.887805
6713.426365,803.988394,-4517.649069,-9820.143950
6713.428911,-2660.818731,1033.699363,-10049.854920
6713.431457,-1799.402595,-1091.127106,-10011.569758
6713.434002,2335.394858,-3905.086483,-10777.272990
6713.436548,-1282.552914,2239.681954,-9801.001370
6713.439094,-2048.256146,746.560651,-9705.288466
6713.441639,-708.275490,-1397.408398,-9781.858789
6713.444185,-1397.408398,1971.685822,-9456.434915
6713.446731,1684.547110,57.427742,-9954.142016
6713.449277,2163.111630,19.142581,-10336.993632
6713.451822,-1799.402595,153.140646,-9705.288466
6713.454371,-555.134843,918.843878,-9150.153622
6713.456920,1473.978722,-38.285162,-10030.712339
6713.459469,-421.136778,1416.550979,-9934.999435
6713.462019,-2067.398726,-631.705166,-10164.710405
6713.464568,-2813.959378,-2335.394858,-9762.716208
6713.467117,957.129040,2067.398726,-9303.294269
6713.469666,-650.847747,-6163.911018,-10853.843314
6713.472215,1378.265818,57.427742,-9705.288466
6713.474764,-1933.400661,-631.705166,-10011.569758
6713.477313,1780.260014,5685.346498,-9188.438784
6713.479862,-1110.269686,-4173.082614,-10528.419440
6713.482411,-1244.267752,2794.816797,-9628.718142
6713.484960,6719.045861,4326.223261,-7982.456194
6713.487509,1397.408398,-4421.936165,-11255.837510
6713.490059,-957.129040,5283.352301,-9533.005238
6713.492608,-516.849682,-172.283227,-9418.149754
6713.495157,2354.537438,1952.543242,-9801.001370
6713.497706,3675.375514,6374.479406,-8480.163294
6713.500255,2909.672282,-2526.820666,-10777.272990
6713.502804,-2469.392923,1301.695494,-9973.284597
6713.505353,306.281293,1741.974853,-9360.722011
6713.507902,2507.678085,784.845813,-9858.429112
6713.510451,2220.539373,3369.094221,-9494.720077
6713.513000,-191.425808,344.566454,-9820.143950
6713.515549,1512.263883,880.558717,-9609.575562
6713.518098,459.421939,1397.408398,-9590.432981
6713.520648,3158.525832,1818.545176,-9839.286531
6713.523197,3043.670347,2029.113565,-9954.142016
6713.525746,-210.568389,880.558717,-9647.860723
6713.528295,2507.678085,5991.627790,-8652.446522
6713.530844,2833.101958,3235.096155,-9801.001370
6713.533393,1225.125171,-842.273555,-9092.725880
6713.535942,-2335.394858,-3828.516160,-10987.841379
6713.538491,2048.256146,4575.076811,-8824.729749
6713.541040,708.275490,-4651.647134,-10643.274925
6713.543589,-3732.803256,3943.371645,-10011.569758
6713.546138,3943.371645,4900.500685,-8652.446522
6713.548688,-1033.699363,-6776.473603,-11619.546546
6713.551237,-2890.529701,3158.525832,-8767.302006
6713.553786,2450.250342,-4326.223261,-10700.702667
6713.556338,784.845813,-3790.230998,-10738.987829
6713.558890,-1167.697429,2852.244539,-9418.149754
6713.561443,1818.545176,1167.697429,-9628.718142
6713.563995,-2718.246474,-76.570323,-9647.860723
6713.566547,-995.414202,1091.127106,-9513.862658
6713.569099,1397.408398,-1780.260014,-10451.849117
6713.571652,593.420005,803.988394,-10164.710405
6713.574204,-114.855485,803.988394,-9820.143950
6713.576756,344.566454,784.845813,-9341.579430
6713.579309,574.277424,497.707101,-9265.009107
6713.581861,-1971.685822,-1282.552914,-10547.562021
6713.584413,-1569.691626,478.564520,-9877.571693
6713.586966,-2105.683888,-2411.965181,-10107.282662
6713.589518,344.566454,1607.976787,-9533.005238
6713.592070,-1646.261949,-5149.354235,-10260.423309
6713.594622,1512.263883,-650.847747,-9781.858789
6713.597175,-1914.258080,-1397.408398,-10470.991698
6713.599727,1837.687757,6087.340694,-9016.155557
6713.602279,459.421939,-3522.234867,-10509.276859
6713.604832,-842.273555,-3617.947771,-10490.134278
6713.607384,4211.367776,9284.151688,-8346.165229
6713.609936,2048.256146,-3828.516160,-11083.554283
6713.612489,-727.418070,4498.506488,-9590.432981
6713.615041,-574.277424,-267.996131,-9609.575562
6713.617593,2373.680019,1225.125171,-9724.431046
6713.620145,3407.379382,6642.475538,-8327.022648
6713.622698,3101.098090,-2182.254211,-10777.272990
6713.625250,-2316.252277,1091.127106,-10279.565890
6713.627802,497.707101,2526.820666,-9475.577496
6713.630355,3292.523898,-784.845813,-10068.997501
6713.632907,1607.976787,2986.242605,-9552.147819
6713.635459,267.996131,459.421939,-9743.573627
6713.638012,1397.408398,1129.412267,-9705.288466
6713.640564,746.560651,1646.261949,-9513.862658
6713.643116,2469.392923,1531.406464,-9992.427178
6713.645668,1186.840010,2009.970984,-9781.858789
6713.648221,2124.826469,3483.949706,-8977.870395
6713.650773,2852.244539,1952.543242,-10088.140082
6713.653325,-1148.554848,-1320.838075,-10662.417506
6713.655878,2201.396792,6814.758765,-8078.169098
6713.658415,1799.402595,-3292.523898,-10222.138147
6713.660953,-3847.658741,899.701298,-10145.567824
6713.663491,4096.512291,4039.084549,-8843.872330
6713.666030,-1569.691626,-9131.011042,-12557.533005
6713.668568,-4019.941968,1359.123237,-10298.708470
6713.671106,-172.283227,1473.978722,-8729.016845
6713.673644,1416.550979,-1588.834206,-10183.852986
6713.676183,-3732.803256,2258.824534,-9590.432981
6713.678721,2852.244539,-631.705166,-10088.140082
6713.681259,229.710970,-1971.685822,-10145.567824
6713.683797,-2316.252277,803.988394,-9858.429112
6713.686335,-1205.982590,-1722.832272,-9628.718142
6713.688874,459.421939,918.843878,-9781.858789
6713.691412,937.986459,401.994197,-10222.138147
6713.693950,1091.127106,631.705166,-9762.716208
6713.696488,-995.414202,344.566454,-9762.716208
6713.699026,880.558717,899.701298,-9322.436850
6713.701565,-1569.691626,-535.992262,-10260.423309
6713.704103,-1339.980656,555.134843,-10068.997501
6713.706641,-1703.689691,-2067.398726,-10413.563955
6713.709179,918.843878,880.558717,-9188.438784
6713.711718,-2163.111630,-4460.221326,-10279.565890
6713.714256,937.986459,-1110.269686,-9667.003304
6713.716794,-1895.115499,-1799.402595,-10451.849117
6713.719332,2029.113565,6221.338760,-9379.864592
6713.721870,1569.691626,-2947.957443,-10183.852986
6713.724409,-2565.105827,1129.412267,-9686.145885
6713.726947,5513.063270,6470.192310,-7886.743290
6713.729485,133.998066,-5053.641331,-11964.113000
6713.732023,-727.418070,6833.901346,-9016.155557
6713.734561,-689.132909,-172.283227,-9456.434915
6713.737100,2718.246474,1014.556782,-9590.432981
6713.739638,3235.096155,6565.905214,-8480.163294
6713.742176,2794.816797,-2182.254211,-10911.271056
6713.744714,-2297.109696,1627.119368,-10126.425243
6713.747253,229.710970,2450.250342,-9207.581365
6713.749791,2373.680019,133.998066,-9877.571693
6713.752329,1263.410333,2699.103893,-9437.292334
6713.754867,1627.119368,-248.853550,-10030.712339
6713.757405,-38.285162,1339.980656,-9820.143950
6713.759948,1071.984525,1684.547110,-9590.432981
6713.762491,2660.818731,1627.119368,-9762.716208
6713.765034,1301.695494,306.281293,-10049.854920
6713.767577,2660.818731,6393.621987,-8901.300072
6713.770120,4421.936165,3120.240670,-9762.716208
6713.772663,-823.130974,-1818.545176,-10662.417506
6713.775206,-114.855485,5245.067139,-8575.876198
6713.777748,2833.101958,-784.845813,-9667.003304
6713.780291,-2316.252277,-1569.691626,-11408.978157
6713.782834,-1473.978722,8078.169098,-8633.303941
6713.785377,4843.072942,-3330.809059,-9954.142016
6713.787920,-3751.945837,-2067.398726,-11026.126541
6713.790463,-1435.693560,2871.387120,-8537.591037
6713.793006,2507.678085,-2622.533570,-10432.706536
6713.795549,-3503.092286,1722.832272,-9877.571693
6713.798092,2009.970984,1071.984525,-9475.577496
6713.800634,1205.982590,-2392.822600,-10126.425243
6713.803177,-2967.100024,191.425808,-10126.425243
6713.805720,-2526.820666,-1339.980656,-9839.286531
6713.808263,1359.123237,842.273555,-9896.714274
6713.810806,287.138712,937.986459,-10088.140082
6713.813349,1397.408398,574.277424,-9724.431046
6713.815892,-229.710970,267.996131,-9686.145885
6713.818435,-1244.267752,612.562586,-9590.432981
6713.820978,210.568389,-306.281293,-9992.427178
6713.823520,-2565.105827,-1014.556782,-10643.274925
6713.826063,-1473.978722,-516.849682,-10068.997501
6713.828606,803.988394,-2124.826469,-9973.284597
6713.831149,-1359.123237,-2105.683888,-9590.432981
6713.833692,708.275490,1378.265818,-9207.581365
6713.836235,1493.121302,-2718.246474,-11179.267187
6713.838778,-2852.244539,-899.701298,-11102.696864
6713.841321,3349.951640,7523.034254,-7484.749093
6713.843864,1837.687757,-4307.080680,-10451.849117
6713.846406,-957.129040,5972.485210,-9801.001370
6713.848949,3273.381317,1033.699363,-9628.718142
6713.851492,727.418070,1550.549045,-10490.134278
6713.854035,-1665.404530,1167.697429,-9571.290400
6713.856578,4000.799387,-1531.406464,-9801.001370
6713.859121,2354.537438,2890.529701,-9628.718142
6713.861668,1014.556782,4115.654872,-9418.149754
6713.864214,574.277424,306.281293,-10011.569758
6713.866761,-650.847747,2009.970984,-9590.432981
6713.869308,3215.953574,-382.851616,-9667.003304
6713.871855,1263.410333,1033.699363,-9992.427178
6713.874401,-555.134843,1397.408398,-9839.286531
6713.876948,957.129040,823.130974,-9801.001370
6713.879495,3005.385186,2258.824534,-9533.005238
6713.882042,-38.285162,267.996131,-9896.714274
6713.884588,4058.227130,5570.491013,-9092.725880
6713.887135,3579.662610,2450.250342,-9934.999435
6713.889682,-1225.125171,-669.990328,-10834.700733
6713.892229,2660.818731,7446.463931,-8097.311678
6713.894776,803.988394,-3464.807125,-10088.140082
6713.897322,-3081.955509,1607.976787,-10049.854920
6713.899869,4517.649069,1856.830338,-9054.440718
6713.902416,937.986459,-8518.448456,-11542.976222
6713.904963,-3311.666478,3196.810994,-9743.573627
6713.907509,401.994197,38.285162,-9035.298138
6713.910056,765.703232,248.853550,-9743.573627
6713.912603,-3541.377448,2679.961312,-9456.434915
6713.915150,3024.527766,-2756.531635,-10662.417506
6713.917696,-1205.982590,-1607.976787,-10202.995566
6713.920243,-1263.410333,1014.556782,-9552.147819
6713.922790,-823.130974,-401.994197,-9647.860723
6713.925337,459.421939,-478.564520,-9858.429112
6713.927883,-765.703232,1339.980656,-9954.142016
6713.930430,1875.972918,765.703232,-9992.427178
6713.932977,478.564520,-153.140646,-9724.431046
6713.935524,-1416.550979,57.427742,-9724.431046
6713.938070,-478.564520,574.277424,-9801.001370
6713.940617,-1703.689691,-1875.972918,-10700.702667
6713.943164,-421.136778,114.855485,-10049.854920
6713.945711,-1244.267752,-1033.699363,-9915.856854
6713.948258,-1110.269686,-497.707101,-9111.868461
6713.950804,153.140646,1091.127106,-9303.294269
6713.953351,2431.107762,-861.416136,-10643.274925
6713.955898,-2986.242605,-2986.242605,-11504.691061
6713.958445,3503.092286,8135.596840,-7771.887805
6713.960991,4632.504554,-3024.527766,-9647.860723
6713.963542,-2603.390989,3675.375514,-10088.140082
6713.966092,2163.111630,3694.518094,-9207.581365
6713.968642,2239.681954,57.427742,-10719.845248
6713.971193,-727.418070,1473.978722,-9552.147819
6713.973743,3943.371645,-823.130974,-9590.432981
6713.976293,1933.400661,976.271621,-10183.852986
6713.978843,746.560651,5340.780043,-9188.438784
6713.981394,555.134843,267.996131,-9954.142016
6713.983944,38.285162,1856.830338,-9686.145885
6713.986494,1895.115499,-516.849682,-9762.716208
6713.989045,1856.830338,1091.127106,-9801.001370
6713.991595,306.281293,1052.841944,-9839.286531
6713.994145,957.129040,593.420005,-9992.427178
6713.996696,1531.406464,3043.670347,-9609.575562
6713.999246,3024.527766,248.853550,-9628.718142
6714.001796,2660.818731,2756.531635,-9801.001370
6714.004347,306.281293,7178.467800,-9054.440718
6714.006897,3675.375514,1263.410333,-9743.573627
6714.009447,-3713.660675,440.279358,-10375.278794
6714.011997,2679.961312,3790.230998,-8671.589102
6714.014548,133.998066,-7178.467800,-11581.261384
6714.017098,-1722.832272,7963.313613,-8575.876198
6714.019648,2737.389054,5800.201982,-8422.735552
6714.022199,-574.277424,-6163.911018,-11389.835576
6714.024749,-3024.527766,3235.096155,-9169.296203
6714.027299,2699.103893,-3407.379382,-10490.134278
6714.029850,-2488.535504,-1741.974853,-10681.560086
6714.032400,-38.285162,4230.510357,-8786.444587
6714.034950,2450.250342,-1205.982590,-9896.714274
6714.037501,-2737.389054,-478.564520,-10298.708470
6714.040051,-1378.265818,-478.564520,-9628.718142
6714.042601,1129.412267,-1014.556782,-10068.997501
6714.045151,1416.550979,1531.406464,-9915.856854
6714.047702,-593.420005,784.845813,-10126.425243
6714.050252,306.281293,76.570323,-9571.290400
6714.052802,-421.136778,899.701298,-9188.438784
6714.055353,-2297.109696,-1875.972918,-10509.276859
6714.057903,-1971.685822,-440.279358,-10336.993632
6714.060453,765.703232,2029.113565,-9571.290400
6714.063004,-1435.693560,-5072.783912,-10451.849117
6714.065557,382.851616,344.566454,-9188.438784
6714.068111,-248.853550,-3828.516160,-10911.271056
6714.070664,-1569.691626,1875.972918,-10853.843314
6714.073218,3081.955509,5761.916821,-8365.307810
6714.075772,-172.283227,-4728.217458,-10509.276859
6714.078325,1071.984525,8193.024582,-8633.303941
6714.080879,3407.379382,-1205.982590,-9954.142016
6714.083432,2852.244539,133.998066,-10853.843314
6714.085986,-1799.402595,823.130974,-9801.001370
6714.088540,2507.678085,-1454.836141,-9896.714274
6714.091093,4096.512291,6029.912952,-8480.163294
6714.093647,1282.552914,1263.410333,-10068.997501
6714.096201,-1225.125171,459.421939,-10298.708470
6714.098754,325.423874,2507.678085,-9513.862658
6714.101308,1933.400661,-1301.695494,-10049.854920
6714.103861,1607.976787,1722.832272,-9801.001370
6714.106415,823.130974,842.273555,-9839.286531
6714.108969,1225.125171,535.992262,-9877.571693
6714.111522,363.709035,3273.381317,-9341.579430
6714.114076,4211.367776,497.707101,-9801.001370
6714.116629,2526.820666,2239.681954,-10049.854920
6714.119183,-535.992262,6967.899411,-8977.870395
6714.121737,4977.071008,2565.105827,-9418.149754
6714.124290,-3924.229064,-765.703232,-10566.704602
6714.126844,-306.281293,5130.211654,-8901.300072
6714.129398,3713.660675,-5264.209720,-10260.423309
6714.131951,-2909.672282,-1244.267752,-10777.272990
6714.134505,1703.689691,7312.465866,-7963.313613
6714.137058,-210.568389,-5895.914886,-11102.696864
6714.139612,-2852.244539,3062.812928,-9437.292334
6714.142166,2182.254211,-3177.668413,-10585.847182
6714.144719,-2067.398726,-2909.672282,-10624.132344
6714.147276,-574.277424,4326.223261,-8652.446522
6714.149832,1282.552914,1282.552914,-9322.436850
6714.152389,-497.707101,248.853550,-9743.573627
6714.154946,-2335.394858,957.129040,-9839.286531
6714.157502,1186.840010,-1339.980656,-9954.142016
6714.160059,1148.554848,1148.554848,-9915.856854
6714.162615,-1780.260014,1091.127106,-10145.567824
6714.165172,1607.976787,516.849682,-9437.292334
6714.167729,-1512.263883,-248.853550,-9590.432981
6714.170285,-2239.681954,-957.129040,-10107.282662
6714.172842,1052.841944,1014.556782,-9705.288466
6714.175398,-1818.545176,-5359.922624,-11198.409768
6714.177955,-1071.984525,-1186.840010,-9322.436850
6714.180511,-1167.697429,153.140646,-9245.866526
6714.183068,2354.537438,2947.957443,-9647.860723
6714.185625,-2335.394858,-4307.080680,-11447.263318
6714.188181,1263.410333,6508.477472,-9035.298138
6714.190738,6872.186507,-344.566454,-8939.585234
6714.193294,-2086.541307,-172.283227,-10566.704602
6714.195851,0.000000,6719.045861,-8384.450390
6714.198408,2660.818731,1033.699363,-9762.716208
6714.200964,1014.556782,1339.980656,-9762.716208
6714.203521,3330.809059,172.283227,-9533.005238
6714.206077,2354.537438,459.421939,-10241.280728
6714.208634,459.421939,4900.500685,-9111.868461
6714.211191,-133.998066,76.570323,-10088.140082
6714.213747,-153.140646,1684.547110,-9533.005238
6714.216304,2584.248408,172.283227,-9858.429112
6714.218860,2545.963246,267.996131,-10049.854920
6714.221417,-401.994197,842.273555,-9877.571693
6714.223973,1818.545176,2641.676150,-9265.009107
6714.226530,2545.963246,-1129.412267,-10336.993632
6714.229087,2565.105827,4613.361973,-9494.720077
6714.231643,4307.080680,5742.774240,-8863.014910
6714.234200,823.130974,-1167.697429,-10317.851051
6714.236756,-1454.836141,5149.354235,-9150.153622
6714.239313,2277.967115,0.000000,-9360.722011
6714.241870,-1129.412267,-1646.261949,-10643.274925
6714.244426,3235.096155,6623.332957,-8480.163294
6714.246983,4307.080680,-3426.521963,-9705.288466
6714.249542,-3503.092286,-1971.685822,-10738.987829
6714.252100,-2373.680019,1818.545176,-9016.155557
6714.254659,2718.246474,-1780.260014,-10356.136213
6714.257218,-3522.234867,3311.666478,-9437.292334
6714.259777,2086.541307,650.847747,-9647.860723
6714.262336,593.420005,-3828.516160,-10470.991698
6714.264895,-2909.672282,574.277424,-10145.567824
6714.267453,593.420005,57.427742,-9915.856854
6714.270012,535.992262,-861.416136,-10126.425243
6714.272571,-1607.976787,1435.693560,-9743.573627
6714.275130,1320.838075,1244.267752,-9590.432981
6714.277689,631.705166,-650.847747,-10068.997501
6714.280248,-1933.400661,842.273555,-9820.143950
6714.282806,-1818.545176,-1684.547110,-10088.140082
6714.285365,1225.125171,-574.277424,-9973.284597
6714.287924,-2545.963246,-1914.258080,-10624.132344
6714.290483,-1454.836141,-899.701298,-9092.725880
6714.293042,-746.560651,248.853550,-9456.434915
6714.295601,2392.822600,1684.547110,-9533.005238
6714.298159,-2584.248408,-4249.652938,-11351.550414
6714.300718,1856.830338,7025.327154,-8997.012976
6714.303277,6719.045861,-746.560651,-9207.581365
6714.305836,-2316.252277,1091.127106,-10451.849117
6714.308395,459.421939,6106.483275,-8518.448456
6714.310954,4115.654872,229.710970,-10164.710405
6714.313512,-1665.404530,535.992262,-10011.569758
6714.316071,2411.965181,-210.568389,-9475.577496
6714.318630,3196.810994,2163.111630,-10107.282662
6714.321189,899.701298,3924.229064,-9513.862658
6714.323748,-76.570323,-210.568389,-10049.854920
6714.326307,-114.855485,1627.119368,-9379.864592
6714.328865,2182.254211,287.138712,-9858.429112
6714.331424,2488.535504,574.277424,-10011.569758
6714.333983,-1416.550979,1895.115499,-9647.860723
6714.336542,2258.824534,1378.265818,-9437.292334
6714.339101,2335.394858,-344.566454,-9667.003304
6714.341660,2871.387120,2469.392923,-10145.567824
6714.344218,133.998066,6221.338760,-9303.294269
6714.346777,4153.940034,3081.955509,-9111.868461
6714.349336,-3445.664544,-344.566454,-10585.847182
6714.351897,1856.830338,3790.230998,-8805.587168
6714.354458,727.418070,-5934.200048,-11294.122672
6714.357019,-803.988394,6891.329088,-8958.727814
6714.359580,4096.512291,-3924.229064,-9992.427178
6714.362141,-3885.943902,-1933.400661,-10719.845248
6714.364702,-2967.100024,2679.961312,-9265.009107
6714.367263,2718.246474,-3024.527766,-10796.415571
6714.369824,-2584.248408,-516.849682,-10356.136213
6714.372385,-38.285162,4402.793584,-8537.591037
6714.374946,2660.818731,-2699.103893,-10068.997501
6714.377507,-2852.244539,-669.990328,-10451.849117
6714.380067,-880.558717,-287.138712,-9724.431046
6714.382628,1186.840010,153.140646,-9973.284597
6714.385189,-1071.984525,535.992262,-9973.284597
6714.387750,823.130974,899.701298,-9590.432981
6714.390311,248.853550,535.992262,-9781.858789
6714.392872,-1339.980656,-574.277424,-9896.714274
6714.395433,-1837.687757,-918.843878,-9973.284597
6714.397994,19.142581,1301.695494,-9858.429112
6714.400555,-1531.406464,-3579.662610,-10317.851051
6714.403116,287.138712,-2258.824534,-9686.145885
6714.405677,-2928.814862,-2986.242605,-10356.136213
6714.408238,2794.816797,6125.625856,-8767.302006
6714.410799,2277.967115,-2909.672282,-10872.985894
6714.413360,-1531.406464,-3120.240670,-10853.843314
6714.415921,3311.666478,10719.845248,-7580.461997
6714.418482,2450.250342,-3369.094221,-10700.702667
6714.421043,-38.285162,2641.676150,-10145.567824
6714.423604,-574.277424,1014.556782,-9475.577496
6714.426165,3235.096155,1244.267752,-9590.432981
6714.428726,3235.096155,2545.963246,-9188.438784
6714.431287,1397.408398,19.142581,-10451.849117
6714.433848,-76.570323,4632.504554,-9360.722011
6714.436408,957.129040,1110.269686,-9418.149754
6714.438969,1454.836141,-133.998066,-9839.286531
6714.441530,535.992262,1416.550979,-9705.288466
6714.444091,1684.547110,1244.267752,-10068.997501
6714.446652,459.421939,937.986459,-9647.860723
6714.449213,669.990328,1091.127106,-9513.862658
6714.451774,4287.938099,2890.529701,-9513.862658
6714.454337,4804.787781,4211.367776,-9724.431046
6714.456900,-516.849682,-344.566454,-10528.419440
6714.459463,-1148.554848,2871.387120,-9552.147819
6714.462026,823.130974,1512.263883,-9169.296203
6714.464589,-19.142581,-2277.967115,-10394.421374
6714.467152,3120.240670,6125.625856,-8882.157491
6714.469715,-172.283227,-8997.012976,-11791.829773
6714.472278,-2852.244539,3062.812928,-9360.722011
6714.474840,-267.996131,-765.703232,-9207.581365
6714.477403,555.134843,1244.267752,-9992.427178
6714.479966,-2699.103893,3273.381317,-9169.296203
6714.482529,2067.398726,-4613.361973,-10892.128475
6714.485092,459.421939,-4173.082614,-10432.706536
6714.487655,-2603.390989,612.562586,-10030.712339
6714.490218,459.421939,-229.710970,-9915.856854
6714.492781,-727.418070,1550.549045,-9647.860723
6714.495344,-153.140646,229.710970,-10011.569758
6714.497907,918.843878,593.420005,-9877.571693
6714.500470,-708.275490,133.998066,-10068.997501
6714.503033,-1607.976787,-650.847747,-9743.573627
6714.505596,-1186.840010,-803.988394,-9934.999435
6714.508159,-669.990328,823.130974,-10241.280728
6714.510721,-1646.261949,-3120.240670,-10183.852986
6714.513284,478.564520,-1761.117434,-9303.294269
6714.515847,-2909.672282,-4517.649069,-10815.558152
6714.518410,2373.680019,6278.766502,-9131.011042
6714.520973,3273.381317,3809.373579,-9111.868461
6714.523536,-421.136778,-3732.803256,-11160.124606
6714.526099,2258.824534,10585.847182,-7848.458128
6714.528662,2584.248408,-2565.105827,-10260.423309
6714.531225,555.134843,1627.119368,-10356.136213
6714.533788,-555.134843,880.558717,-9437.292334
6714.536351,3273.381317,976.271621,-9628.718142
6714.538914,3483.949706,3426.521963,-8920.442653
6714.541477,1550.549045,229.710970,-10336.993632
6714.544039,-1110.269686,3637.090352,-9628.718142
6714.546602,1071.984525,1148.554848,-9207.581365
6714.549165,2067.398726,-421.136778,-9820.143950
6714.551728,689.132909,1569.691626,-9973.284597
6714.554291,1493.121302,1129.412267,-9973.284597
6714.556856,401.994197,1091.127106,-9399.007173
6714.559420,2641.676150,3043.670347,-9016.155557
6714.561985,4173.082614,1493.121302,-9915.856854
6714.564549,1014.556782,5015.356170,-10030.712339
6714.567114,3177.668413,3598.805190,-9092.725880
6714.569678,-1856.830338,-3177.668413,-10662.417506
6714.572243,1129.412267,3349.951640,-9092.725880
6714.574807,-38.285162,-5379.065205,-10643.274925
6714.577372,-1875.972918,3962.514226,-9973.284597
6714.579936,3273.381317,1091.127106,-9131.011042
6714.582501,-2086.541307,-4785.645200,-11179.267187
6714.585065,-2794.816797,1780.260014,-8939.585234
6714.587630,1990.828403,-2335.394858,-10490.134278
6714.590194,-3043.670347,2220.539373,-9992.427178
6714.592759,-727.418070,5053.641331,-8307.880067
6714.595323,2871.387120,-1301.695494,-9839.286531
6714.597888,-1473.978722,-1071.984525,-10279.565890
6714.600453,-1550.549045,229.710970,-9781.858789
6714.603017,1454.836141,-574.277424,-10068.997501
6714.605582,-842.273555,1339.980656,-9781.858789
6714.608146,401.994197,306.281293,-9915.856854
6714.610711,19.142581,478.564520,-9820.143950
6714.613275,-2029.113565,-918.843878,-9820.143950
6714.615840,650.847747,133.998066,-9858.429112
6714.618404,-1512.263883,-4000.799387,-10738.987829
6714.620969,-1588.834206,-2335.394858,-9667.003304
6714.623533,-1052.841944,440.279358,-9245.866526
6714.626098,3024.527766,-76.570323,-9839.286531
6714.628662,-3254.238736,-3196.810994,-10987.841379
6714.631227,2986.242605,8365.307810,-8671.589102
6714.633791,5934.200048,-2105.683888,-9896.714274
6714.636356,-2947.957443,2756.531635,-9934.999435
6714.638920,-1818.545176,7101.897477,-8709.874264
6714.641485,5187.639397,1378.265818,-9513.862658
6714.644049,191.425808,306.281293,-10241.280728
6714.646614,1052.841944,-842.273555,-9781.858789
6714.649178,4345.365842,3981.656806,-9188.438784
6714.651743,861.416136,1473.978722,-10183.852986
6714.654307,-1703.689691,2469.392923,-9877.571693
6714.656872,1205.982590,727.418070,-9131.011042
6714.659439,2201.396792,-133.998066,-9858.429112
6714.662005,172.283227,1837.687757,-10222.138147
6714.664571,-593.420005,2258.824534,-9456.434915
6714.667136,4115.654872,1397.408398,-8958.727814
6714.669702,2775.674216,1588.834206,-9915.856854
6714.672268,2067.398726,5781.059402,-9647.860723
6714.674834,3062.812928,1378.265818,-9801.001370
6714.677400,-803.988394,3005.385186,-9647.860723
6714.679966,38.285162,708.275490,-9341.579430
6714.682532,-535.992262,-1225.125171,-10068.997501
6714.685097,3273.381317,5551.348432,-8614.161360
6714.687663,3235.096155,-3751.945837,-10202.995566
6714.690229,-2909.672282,-1837.687757,-10662.417506
6714.692795,-2297.109696,631.705166,-9035.298138
6714.695361,1971.685822,-1052.841944,-10030.712339
6714.697927,-3541.377448,4345.365842,-9226.723946
6714.700493,1703.689691,-555.134843,-10202.995566
6714.703058,-382.851616,-4019.941968,-10681.560086
6714.705624,-1799.402595,1167.697429,-9647.860723
6714.708190,708.275490,210.568389,-9820.143950
6714.710756,-191.425808,1473.978722,-9494.720077
6714.713322,-133.998066,-95.712904,-10183.852986
6714.715888,133.998066,669.990328,-9820.143950
6714.718454,-765.703232,478.564520,-9781.858789
6714.721019,-1493.121302,-1435.693560,-9934.999435
6714.723585,382.851616,1225.125171,-9628.718142
6714.726151,-2641.676150,-4039.084549,-10834.700733
6714.728717,-2201.396792,-1627.119368,-9973.284597
6714.731283,267.996131,1339.980656,-8958.727814
6714.733849,2679.961312,-3330.809059,-10375.278794
6714.736415,-2182.254211,-4421.936165,-11255.837510
6714.738980,612.562586,8001.598774,-8958.727814
6714.741546,7427.321350,38.285162,-9475.577496
6714.744112,-2794.816797,-669.990328,-10700.702667
6714.746678,-133.998066,7618.747158,-8020.741355
6714.749244,5551.348432,287.138712,-9934.999435
6714.751810,-1359.123237,172.283227,-10202.995566
6714.754376,1186.840010,-1320.838075,-10126.425243
6714.756941,5551.348432,3828.516160,-9073.583299
6714.759507,-325.423874,1435.693560,-10088.140082
6714.762074,-899.701298,2201.396792,-9743.573627
6714.764640,516.849682,1071.984525,-9150.153622
6714.767207,1607.976787,555.134843,-9667.003304
6714.769773,1148.554848,1971.685822,-10279.565890
6714.772340,-1014.556782,535.992262,-10068.997501
6714.774907,3885.943902,3924.229064,-8690.731683
6714.777473,4115.654872,937.986459,-9647.860723
6714.780040,172.283227,4689.932296,-10126.425243
6714.782606,4517.649069,9054.440718,-8059.026517
6714.785173,-325.423874,-2833.101958,-10643.274925
6714.787739,497.707101,2316.252277,-9399.007173
6714.790306,-574.277424,-4536.791650,-10336.993632
6714.792873,-1033.699363,4536.791650,-9705.288466
6714.795439,3273.381317,-535.992262,-9839.286531
6714.798006,-2105.683888,-3196.810994,-11064.411702
6714.800572,-2335.394858,842.273555,-8882.157491
6714.803139,1531.406464,-2258.824534,-10298.708470
6714.805705,-3579.662610,3771.088418,-9475.577496
6714.808272,-172.283227,5091.926493,-8480.163294
6714.810838,3101.098090,-2392.822600,-10183.852986
6714.813405,-1512.263883,-1014.556782,-10260.423309
6714.815972,-823.130974,-153.140646,-9667.003304
6714.818538,708.275490,-76.570323,-10011.569758
6714.821105,-1186.840010,1397.408398,-9839.286531
6714.823671,1129.412267,421.136778,-9839.286531
6714.826238,-1014.556782,38.285162,-9896.714274
6714.828804,-1990.828403,-229.710970,-9552.147819
6714.831371,-2086.541307,-1416.550979,-10432.706536
6714.833937,-1990.828403,-1856.830338,-10260.423309
6714.836504,708.275490,-650.847747,-9169.296203
6714.839071,-2679.961312,-6317.051664,-11045.269122
6714.841637,1091.127106,5053.641331,-9131.011042
6714.844204,4383.651003,-306.281293,-9762.716208
6714.846770,-1722.832272,-76.570323,-10892.128475
6714.849337,4058.227130,11121.839445,-7312.465866
6714.851903,1359.123237,-4785.645200,-11102.696864
6714.854470,-1780.260014,3962.514226,-9724.431046
6714.857036,-1339.980656,765.703232,-9494.720077
6714.859603,4230.510357,325.423874,-9820.143950
6714.862170,2009.970984,3349.951640,-9073.583299
6714.864737,1799.402595,2890.529701,-9801.001370
6714.867304,1186.840010,1875.972918,-9992.427178
6714.869871,-1263.410333,976.271621,-9934.999435
6714.872439,1244.267752,210.568389,-9552.147819
6714.875006,2488.535504,1684.547110,-9667.003304
6714.877573,-382.851616,248.853550,-10930.413637
6714.880141,3330.809059,3598.805190,-8690.731683
6714.882708,3617.947771,1205.982590,-9494.720077
6714.885275,2009.970984,4728.217458,-9858.429112
6714.887842,2182.254211,1493.121302,-9820.143950
6714.890410,1282.552914,3120.240670,-10088.140082
6714.892977,-344.566454,593.420005,-9533.005238
6714.895544,-918.843878,555.134843,-9494.720077
6714.898112,3043.670347,3656.232933,-8729.016845
6714.900679,-2507.678085,-9111.868461,-12576.675586
6714.903246,133.998066,5647.061336,-8748.159426
6714.905813,-1033.699363,-708.275490,-9188.438784
6714.908381,803.988394,-401.994197,-9839.286531
6714.910948,-3196.810994,4517.649069,-8824.729749
6714.913515,1263.410333,-3330.809059,-10949.556218
6714.916083,-1416.550979,-2163.111630,-10585.847182
6714.918650,-1684.547110,459.421939,-10088.140082
6714.921217,19.142581,-689.132909,-9820.143950
6714.923785,38.285162,574.277424,-9456.434915
6714.926352,-612.562586,1359.123237,-9820.143950
6714.928919,535.992262,-401.994197,-10451.849117
6714.931486,-995.414202,899.701298,-9686.145885
6714.934054,-1014.556782,-1205.982590,-9552.147819
6714.936621,-1971.685822,287.138712,-9973.284597
6714.939188,-2354.537438,0.000000,-9839.286531
6714.941756,1359.123237,-957.129040,-9456.434915
6714.944323,-2297.109696,-6489.334891,-11140.982026
6714.946890,38.285162,5072.783912,-9111.868461
6714.949457,4498.506488,95.712904,-9686.145885
6714.952025,-2048.256146,-1282.552914,-11006.983960
6714.954592,4039.084549,12882.956878,-7331.608446
6714.957159,2163.111630,-4326.223261,-11045.269122
6714.959727,-1282.552914,2392.822600,-9858.429112
6714.962294,1493.121302,210.568389,-9628.718142
6714.964861,3981.656806,57.427742,-9934.999435
6714.967429,1741.974853,3483.949706,-9207.581365
6714.969997,1569.691626,3713.660675,-9628.718142
6714.972565,1378.265818,1282.552914,-9992.427178
6714.975133,-306.281293,1033.699363,-9781.858789
6714.977701,153.140646,-229.710970,-9667.003304
6714.980269,1837.687757,2009.970984,-9686.145885
6714.982838,-153.140646,57.427742,-10738.987829
6714.985406,3005.385186,3828.516160,-8709.874264
6714.987974,4862.215523,2603.390989,-9150.153622
6714.990542,-421.136778,1627.119368,-10356.136213
6714.993110,4421.936165,7025.327154,-8863.014910
6714.995678,153.140646,-1435.693560,-11006.983960
6714.998246,133.998066,1933.400661,-9399.007173
6715.000814,-976.271621,-3005.385186,-9724.431046
6715.003382,899.701298,5895.914886,-8843.872330
6715.005950,2699.103893,-4613.361973,-10719.845248
6715.008518,-2641.676150,-516.849682,-11351.550414
6715.011086,-2411.965181,995.414202,-9341.579430
6715.013654,1282.552914,-3426.521963,-10183.852986
6715.016222,-3809.373579,1627.119368,-9858.429112
6715.018790,842.273555,3732.803256,-8939.585234
6715.021358,2163.111630,-3771.088418,-10853.843314
6715.023926,-1359.123237,421.136778,-10145.567824
6715.026494,38.285162,-689.132909,-9513.862658
6715.029062,-382.851616,267.996131,-9609.575562
6715.031630,-1703.689691,1359.123237,-9801.001370
6715.034199,727.418070,1186.840010,-10145.567824
6715.036767,-1129.412267,-1263.410333,-10241.280728
6715.039335,-861.416136,1875.972918,-8958.727814
6715.041903,-2392.822600,-4268.795518,-10394.421374
6715.044471,-2852.244539,-1627.119368,-10470.991698
6715.047039,555.134843,1703.689691,-9169.296203
6715.049607,2660.818731,-4651.647134,-10547.562021
6715.052175,-2967.100024,-535.992262,-10470.991698
6715.054743,3924.229064,6814.758765,-7905.885870
6715.057311,1129.412267,-1263.410333,-10011.569758
6715.059879,-2488.535504,2507.678085,-10470.991698
6715.062447,1052.841944,6948.756830,-8231.309744
6715.065015,4594.219392,-229.710970,-9992.427178
6715.067583,-1512.263883,-861.416136,-10126.425243
6715.070152,1665.404530,-1071.984525,-10164.710405
6715.072720,4153.940034,2718.246474,-9399.007173
6715.075288,382.851616,4843.072942,-9705.288466
6715.077857,3005.385186,2182.254211,-9475.577496
6715.080425,-287.138712,-899.701298,-9609.575562
6715.082994,-1454.836141,669.990328,-10088.140082
6715.085562,421.136778,2086.541307,-10222.138147
6715.088130,4249.652938,861.416136,-10030.712339
6715.090699,1397.408398,2354.537438,-9475.577496
6715.093267,3464.807125,4996.213589,-8863.014910
6715.095835,1761.117434,-1761.117434,-10624.132344
6715.098404,1895.115499,7140.182638,-9341.579430
6715.100972,957.129040,-440.279358,-9954.142016
6715.103541,-421.136778,2182.254211,-9322.436850
6715.106109,1550.549045,4326.223261,-8518.448456
6715.108677,-1914.258080,-8997.012976,-12078.968485
6715.111246,-363.709035,3828.516160,-9609.575562
6715.113814,57.427742,-1703.689691,-9839.286531
6715.116383,-153.140646,2316.252277,-9437.292334
6715.118951,-1225.125171,1512.263883,-8863.014910
6715.121519,-1167.697429,-6872.186507,-11351.550414
6715.124088,-1588.834206,1282.552914,-9858.429112
6715.126656,2201.396792,1856.830338,-9360.722011
6715.129224,669.990328,-401.994197,-10030.712339
6715.131793,-1569.691626,784.845813,-9341.579430
6715.134361,-344.566454,899.701298,-9686.145885
6715.136930,1129.412267,114.855485,-10432.706536
6715.139498,-1646.261949,746.560651,-10030.712339
6715.142066,727.418070,-325.423874,-9494.720077
6715.144635,-3866.801322,-2411.965181,-10068.997501
6715.147203,-2756.531635,-133.998066,-9475.577496
6715.149772,1684.547110,-1148.554848,-9628.718142
6715.152340,-2354.537438,-6278.766502,-10911.271056
6715.154908,-3043.670347,267.996131,-10241.280728
6715.157477,3905.086483,6489.334891,-8097.311678
6715.160045,440.279358,-4555.934230,-11217.552349
6715.162614,-497.707101,10375.278794,-8805.587168
6715.165182,4096.512291,1205.982590,-9437.292334
6715.167750,1933.400661,-976.271621,-10470.991698
6715.170319,-1588.834206,497.707101,-9475.577496
6715.172888,4058.227130,38.285162,-9590.432981
6715.175456,1473.978722,2833.101958,-9456.434915
6715.178025,191.425808,5130.211654,-9647.860723
6715.180594,2009.970984,1378.265818,-9839.286531
6715.183163,287.138712,421.136778,-9437.292334
6715.185732,574.277424,325.423874,-9379.864592
6715.188301,535.992262,689.132909,-10394.421374
6715.190870,2354.537438,2373.680019,-10145.567824
6715.193438,3158.525832,1550.549045,-9322.436850
6715.196007,3139.383251,4651.647134,-8997.012976
6715.198576,861.416136,-497.707101,-9934.999435
6715.201145,2928.814862,-3254.238736,-10317.851051
6715.203714,-210.568389,765.703232,-10126.425243
6715.206283,-1665.404530,727.418070,-9303.294269
6715.208852,3503.092286,2737.389054,-8595.018779
6715.211421,-3637.090352,-9513.862658,-12212.966550
6715.213989,746.560651,5704.489078,-8997.012976
6715.216558,363.709035,-1856.830338,-9839.286531
6715.219127,-842.273555,2258.824534,-9743.573627
6715.221696,-1148.554848,-344.566454,-9188.438784
6715.224265,-1722.832272,-7044.469734,-11351.550414
6715.226834,-1454.836141,-899.701298,-10470.991698
6715.229403,191.425808,1741.974853,-9647.860723
6715.231972,1397.408398,-210.568389,-9934.999435
6715.234540,-1952.543242,2316.252277,-9226.723946
6715.237109,57.427742,-727.418070,-9686.145885
6715.239678,287.138712,574.277424,-10222.138147
6715.242247,-1550.549045,535.992262,-10432.706536
6715.244816,1110.269686,-574.277424,-9686.145885
6715.247385,-4019.941968,-2545.963246,-9877.571693
6715.249954,-3311.666478,-2718.246474,-10049.854920
6715.252522,-689.132909,-133.998066,-9858.429112
6715.255091,3809.373579,-1435.693560,-10068.997501
6715.257660,-2986.242605,-3196.810994,-10872.985894
6715.260229,3503.092286,8327.022648,-8193.024582
6715.262798,4077.369710,-2813.959378,-10279.565890
6715.265367,-2603.390989,5685.346498,-9896.714274
6715.267936,2871.387120,5206.781978,-8614.161360
6715.270505,3407.379382,-1263.410333,-10528.419440
6715.273073,-1646.261949,-593.420005,-9877.571693
6715.275643,382.851616,-842.273555,-10011.569758
6715.278212,3541.377448,2029.113565,-9667.003304
6715.280781,612.562586,5245.067139,-9724.431046
6715.283350,2354.537438,1895.115499,-9743.573627
6715.285920,-516.849682,-803.988394,-9418.149754
6715.288489,-1129.412267,1914.258080,-9150.153622
6715.291058,3235.096155,287.138712,-10566.704602
6715.293627,1091.127106,1952.543242,-10145.567824
6715.296196,3732.803256,4077.369710,-8939.585234
6715.298766,19.142581,2105.683888,-9418.149754
6715.301335,4862.215523,5895.914886,-9111.868461
6715.303904,-899.701298,95.712904,-10872.985894
6715.306473,1512.263883,1818.545176,-9762.716208
6715.309043,-1550.549045,-4153.940034,-10470.991698
6715.311612,-478.564520,5245.067139,-8690.731683
6715.314181,2794.816797,-2967.100024,-9686.145885
6715.316750,-1780.260014,-1799.402595,-11179.267187
6715.319319,-1244.267752,-153.140646,-9762.716208
6715.321889,287.138712,-3215.953574,-10375.278794
6715.324458,-4000.799387,784.845813,-9954.142016
6715.327027,1033.699363,3235.096155,-8499.305875
6715.329596,2431.107762,-3656.232933,-10968.698798
6715.332166,-1320.838075,708.275490,-10222.138147
6715.334735,95.712904,-248.853550,-9647.860723
6715.337304,842.273555,440.279358,-9475.577496
6715.339873,-669.990328,325.423874,-9992.427178
6715.342442,-57.427742,842.273555,-10336.993632
6715.345012,1186.840010,-555.134843,-9934.999435
6715.347581,-4843.072942,-1952.543242,-9992.427178
6715.350150,-2967.100024,-631.705166,-9437.292334
6715.352719,1320.838075,-1225.125171,-9667.003304
6715.355289,-2316.252277,-6699.903280,-11408.978157
6715.357858,-2105.683888,210.568389,-10451.849117
6715.360427,3388.236802,6240.481341,-8116.454259
6715.362996,-287.138712,-3866.801322,-11102.696864
6715.365565,229.710970,10624.132344,-8518.448456
6715.368135,4096.512291,669.990328,-9667.003304
6715.370704,2086.541307,-708.275490,-10719.845248
6715.373273,-1129.412267,1110.269686,-9399.007173
6715.375842,3924.229064,-287.138712,-9533.005238
6715.378395,803.988394,2603.390989,-9303.294269
6715.380947,2048.256146,2124.826469,-9915.856854
6715.383499,1397.408398,1569.691626,-10164.710405
6715.386052,-612.562586,689.132909,-9647.860723
6715.388604,1473.978722,459.421939,-9092.725880
6715.391157,2143.969050,401.994197,-10356.136213
6715.393709,421.136778,2890.529701,-10183.852986
6715.396261,4785.645200,3158.525832,-8939.585234
6715.398814,1339.980656,2833.101958,-9379.864592
6715.401366,2526.820666,4192.225195,-8920.442653
6715.403918,2143.969050,1339.980656,-10375.278794
6715.406471,1416.550979,1378.265818,-10088.140082
6715.409023,-2029.113565,-3637.090352,-10356.136213
6715.411575,-478.564520,5264.209720,-8729.016845
6715.414128,3235.096155,-2679.961312,-9418.149754
6715.416680,-1627.119368,-2622.533570,-11351.550414
6715.419233,-1741.974853,248.853550,-9686.145885
6715.421785,555.134843,-708.275490,-9877.571693
6715.424337,-3388.236802,4000.799387,-8748.159426
6715.426890,555.134843,-2584.248408,-10030.712339
6715.429442,-880.558717,-1837.687757,-10930.413637
6715.431994,-1741.974853,727.418070,-10451.849117
6715.434547,1071.984525,325.423874,-9475.577496
6715.437099,-765.703232,-363.709035,-9820.143950
6715.439652,-1780.260014,957.129040,-9513.862658
6715.442204,1741.974853,516.849682,-9743.573627
6715.444756,133.998066,-172.283227,-10394.421374
6715.447309,-4345.365842,-1263.410333,-9992.427178
6715.449861,-2507.678085,-1722.832272,-9475.577496
6715.452413,861.416136,-650.847747,-9609.575562
6715.454966,784.845813,-5264.209720,-10892.128475
6715.457518,-1646.261949,401.994197,-10490.134278
6715.460070,3273.381317,5742.774240,-8422.735552
6715.462623,-133.998066,-3866.801322,-10777.272990
6715.465175,287.138712,11351.550414,-8307.880067
6715.467728,3732.803256,172.283227,-9858.429112
6715.470280,2277.967115,-650.847747,-10509.276859
6715.472832,-1033.699363,1627.119368,-9513.862658
6715.475385,4555.934230,-306.281293,-9590.432981
6715.477937,344.566454,2048.256146,-9245.866526
6715.480492,746.560651,3713.660675,-9762.716208
6715.483046,2124.826469,3254.238736,-9724.431046
6715.485601,191.425808,-421.136778,-10049.854920
6715.488156,-210.568389,593.420005,-8939.585234
6715.490710,2316.252277,1378.265818,-9801.001370
6715.493265,1550.549045,1378.265818,-10719.845248
6715.495820,3694.518094,4096.512291,-9245.866526
6715.498374,267.996131,3483.949706,-8977.870395
6715.500929,3924.229064,6585.047795,-8748.159426
6715.503484,459.421939,-689.132909,-10509.276859
6715.506038,1129.412267,2545.963246,-9915.856854
6715.508593,-899.701298,-5225.924558,-10528.419440
6715.511148,-3101.098090,1569.691626,-9571.290400
6715.513702,3330.809059,3426.521963,-8403.592971
6715.516257,-267.996131,-4996.213589,-11504.691061
6715.518812,-2833.101958,976.271621,-9781.858789
6715.521366,344.566454,-2526.820666,-10528.419440
6715.523921,-3732.803256,2565.105827,-9437.292334
6715.526476,95.712904,4804.787781,-8346.165229
6715.529030,3426.521963,-3349.951640,-10911.271056
6715.531585,-1244.267752,459.421939,-10241.280728
6715.534140,-899.701298,382.851616,-9839.286531
6715.536694,1129.412267,421.136778,-9418.149754
6715.539249,-1282.552914,363.709035,-9647.860723
6715.541804,401.994197,650.847747,-9992.427178
6715.544358,-382.851616,957.129040,-9820.143950
6715.546913,-3254.238736,-2622.533570,-10145.567824
6715.549468,-76.570323,-3771.088418,-9992.427178
6715.552022,-3330.809059,-2852.244539,-10202.995566
6715.554577,3158.525832,2048.256146,-9111.868461
6715.557132,-784.845813,-5111.069074,-11255.837510
6715.559686,459.421939,7791.030386,-8920.442653
6715.562226,6585.047795,1205.982590,-9284.151688
6715.564766,-2392.822600,708.275490,-10585.847182
6715.567306,363.709035,7561.319416,-8212.167163
6715.569846,5800.201982,57.427742,-9992.427178
6715.572386,-1454.836141,-995.414202,-10394.421374
6715.574926,-765.703232,650.847747,-9667.003304
6715.577465,3101.098090,708.275490,-9686.145885
6715.580005,1129.412267,3349.951640,-9820.143950
6715.582545,535.992262,3541.377448,-9647.860723
6715.585085,1186.840010,-746.560651,-9399.007173
6715.587625,727.418070,746.560651,-9399.007173
6715.590165,1339.980656,1512.263883,-10298.708470
6715.592704,3273.381317,2488.535504,-10049.854920
6715.595244,3273.381317,4268.795518,-9150.153622
6715.597784,3407.379382,3158.525832,-8977.870395
6715.600324,1684.547110,1952.543242,-10202.995566
6715.602864,210.568389,1339.980656,-9762.716208
6715.605404,-1244.267752,57.427742,-9781.858789
6715.607944,2622.533570,4651.647134,-8939.585234
6715.610483,-1856.830338,-9341.579430,-11562.118803
6715.613023,-784.845813,2699.103893,-9360.722011
6715.615563,363.709035,-1339.980656,-9647.860723
6715.618103,133.998066,3139.383251,-9705.288466
6715.620643,-1933.400661,4383.651003,-9035.298138
6715.623183,-535.992262,-4230.510357,-10241.280728
6715.625722,-976.271621,-861.416136,-9877.571693
6715.628262,306.281293,1091.127106,-10164.710405
6715.630802,1875.972918,918.843878,-9934.999435
6715.633342,-2105.683888,344.566454,-9609.575562
6715.635882,-746.560651,976.271621,-9571.290400
6715.638422,1588.834206,-153.140646,-10049.854920
6715.640962,-1359.123237,995.414202,-10068.997501
6715.643501,-3541.377448,-1799.402595,-10011.569758
6715.646041,-1473.978722,-3445.664544,-9820.143950
6715.648581,-1665.404530,-363.709035,-10183.852986
6715.651121,2699.103893,-3139.383251,-10068.997501
6715.653661,-2143.969050,-2545.963246,-10892.128475
6715.656201,3847.658741,7905.885870,-8346.165229
6715.658740,2373.680019,-3713.660675,-10834.700733
6715.661280,-1875.972918,8958.727814,-8920.442653
6715.663808,3139.383251,2679.961312,-9169.296203
6715.666335,3751.945837,-1435.693560,-9552.147819
6715.668862,-1148.554848,-1416.550979,-10604.989763
6715.671389,1052.841944,-210.568389,-9839.286531
6715.673917,3426.521963,1569.691626,-9131.011042
6715.676444,-765.703232,3560.520029,-9934.999435
6715.678971,2277.967115,3809.373579,-9609.575562
6715.681499,1225.125171,-229.710970,-9934.999435
6715.684026,191.425808,287.138712,-9360.722011
6715.686553,1416.550979,1416.550979,-9820.143950
6715.689081,2986.242605,2565.105827,-10107.282662
6715.691608,2067.398726,4134.797453,-9303.294269
6715.694135,3196.810994,2239.681954,-9131.011042
6715.696662,2029.113565,3120.240670,-9896.714274
6715.699190,0.000000,1186.840010,-9820.143950
6715.701717,-1607.976787,1301.695494,-9686.145885
6715.704244,2545.963246,3196.810994,-9284.151688
6715.706772,-2603.390989,-9475.577496,-11887.542677
6715.709299,0.000000,3790.230998,-8805.587168
6715.711826,382.851616,-1627.119368,-9724.431046
6715.714354,-267.996131,3177.668413,-9743.573627
6715.716881,-1952.543242,4230.510357,-8920.442653
6715.719408,-976.271621,-5915.057467,-10930.413637
6715.721935,-803.988394,-133.998066,-9628.718142
6715.724463,1359.123237,880.558717,-9877.571693
6715.726990,516.849682,612.562586,-10222.138147
6715.729517,-1627.119368,1148.554848,-9513.862658
6715.732045,842.273555,19.142581,-9590.432981
6715.734572,306.281293,153.140646,-10241.280728
6715.737099,-1148.554848,1263.410333,-9877.571693
6715.739626,-2545.963246,-1952.543242,-9915.856854
6715.742154,0.000000,-3828.516160,-10068.997501
6715.744681,-3158.525832,-1435.693560,-10202.995566
6715.747208,3311.666478,-497.707101,-9456.434915
6715.749736,-2201.396792,-4211.367776,-10968.698798
6715.752263,-1550.549045,6010.770371,-9858.429112
6715.754790,6202.196179,4096.512291,-8422.735552
6715.757318,-1282.552914,-2220.539373,-11179.267187
6715.759845,-1397.408398,7925.028451,-8384.450390
6715.762372,6929.614250,2086.541307,-9073.583299
6715.764906,-401.994197,-1531.406464,-10604.989763
6715.767439,0.000000,-459.421939,-10088.140082
6715.769972,3503.092286,1550.549045,-9303.294269
6715.772506,-172.283227,2545.963246,-9934.999435
6715.775039,669.990328,3675.375514,-9322.436850
6715.777573,2143.969050,-650.847747,-9552.147819
6715.780106,-803.988394,1875.972918,-9647.860723
6715.782639,2871.387120,1359.123237,-9877.571693
6715.785173,3675.375514,2737.389054,-9954.142016
6715.787706,-593.420005,3101.098090,-9647.860723
6715.790239,5340.780043,6910.471669,-8288.737486
6715.792773,459.421939,-325.423874,-10700.702667
6715.795306,689.132909,1914.258080,-9647.860723
6715.797840,-1435.693560,-4498.506488,-10432.706536
6715.800373,-2794.816797,-38.285162,-10470.991698
6715.802906,3005.385186,3751.945837,-8384.450390
6715.805440,38.285162,-4900.500685,-11026.126541
6715.807973,-2852.244539,172.283227,-9954.142016
6715.810507,-19.142581,-2105.683888,-10413.563955
6715.813040,-3005.385186,2986.242605,-9743.573627
6715.815573,153.140646,-287.138712,-9207.581365
6715.818107,363.709035,-2316.252277,-10375.278794
6715.820640,-899.701298,669.990328,-10126.425243
6715.823174,-861.416136,612.562586,-10126.425243
6715.825707,1378.265818,-38.285162,-9399.007173
6715.828240,-1301.695494,708.275490,-9533.005238
6715.830774,727.418070,937.986459,-10260.423309
6715.833307,-2813.959378,-2718.246474,-10260.423309
6715.835840,-3962.514226,-267.996131,-9399.007173
6715.838374,1110.269686,-689.132909,-9552.147819
6715.840907,-2277.967115,-7752.745224,-11523.833642
6715.843441,-76.570323,4881.358104,-8882.157491
6715.845974,3330.809059,4153.940034,-8843.872330
6715.848507,593.420005,-3407.379382,-11217.552349
6715.851041,669.990328,12366.107197,-7848.458128
6715.853574,3330.809059,-631.705166,-9954.142016
6715.856108,995.414202,363.709035,-10202.995566
6715.858641,287.138712,3292.523898,-9245.866526
6715.861174,4632.504554,-1665.404530,-10011.569758
6715.863708,-535.992262,1627.119368,-9571.290400
6715.866247,1148.554848,1627.119368,-9571.290400
6715.868786,3101.098090,2450.250342,-9762.716208
6715.871324,401.994197,1282.552914,-10107.282662
6715.873863,421.136778,306.281293,-9303.294269
6715.876402,1646.261949,1378.265818,-9552.147819
6715.878941,3369.094221,2928.814862,-10241.280728
6715.881480,2009.970984,2890.529701,-9513.862658
6715.884019,2737.389054,3215.953574,-8939.585234
6715.886558,2775.674216,3847.658741,-9667.003304
6715.889097,-76.570323,650.847747,-9934.999435
6715.891636,-1799.402595,-1646.261949,-10528.419440
6715.894175,1569.691626,5359.922624,-9035.298138
6715.896713,1052.841944,-7178.467800,-10528.419440
6715.899252,-1684.547110,-95.712904,-10068.997501
6715.901791,-210.568389,-1684.547110,-9686.145885
6715.904330,248.853550,2526.820666,-9609.575562
6715.906869,-1722.832272,3158.525832,-9265.009107
6715.909408,-2086.541307,-6278.766502,-11370.692995
6715.911947,-650.847747,1684.547110,-8843.872330
6715.914486,2488.535504,1110.269686,-9858.429112
6715.917025,1512.263883,574.277424,-9839.286531
6715.919564,-1722.832272,535.992262,-9877.571693
6715.922102,-306.281293,689.132909,-9379.864592
6715.924641,2565.105827,-153.140646,-9820.143950
6715.927180,-5111.069074,-1225.125171,-10604.989763
6715.929719,-3196.810994,-133.998066,-9418.149754
6715.932258,2239.681954,-2258.824534,-9609.575562
6715.934797,-4192.225195,-7216.752962,-11428.120738
6715.937336,1186.840010,5704.489078,-8269.594906
6715.939875,4651.647134,421.136778,-9533.005238
6715.942414,-440.279358,-1435.693560,-11408.978157
6715.944953,2737.389054,13265.808494,-6872.186507
6715.947491,1799.402595,-3369.094221,-10987.841379
6715.950030,-2335.394858,2986.242605,-9896.714274
6715.952569,4249.652938,4268.795518,-8690.731683
6715.955108,3694.518094,-2220.539373,-10624.132344
6715.957647,-1397.408398,937.986459,-9896.714274
6715.960186,1952.543242,1071.984525,-9475.577496
6715.962725,2545.963246,306.281293,-10107.282662
6715.965264,-344.566454,3235.096155,-9590.432981
6715.967807,1071.984525,957.129040,-9456.434915
6715.970350,1569.691626,382.851616,-9858.429112
6715.972894,2124.826469,3522.234867,-9686.145885
6715.975437,2488.535504,2871.387120,-9801.001370
6715.977980,2890.529701,2450.250342,-9571.290400
6715.980524,2488.535504,4823.930362,-9169.296203
6715.983067,535.992262,172.283227,-10068.997501
6715.985610,-2086.541307,2718.246474,-9341.579430
6715.988154,1205.982590,5455.635528,-9054.440718
6715.990697,1033.699363,-7274.180704,-10777.272990
6715.993240,-1301.695494,325.423874,-9992.427178
6715.995784,-267.996131,-2048.256146,-9801.001370
6715.998327,-95.712904,2048.256146,-9628.718142
6716.000870,-1799.402595,3254.238736,-9092.725880
6716.003414,-2124.826469,-5359.922624,-11389.835576
6716.005957,-191.425808,1761.117434,-8939.585234
6716.008500,2067.398726,401.994197,-9954.142016
6716.011044,976.271621,650.847747,-10107.282662
6716.013587,-2163.111630,555.134843,-9839.286531
6716.016131,459.421939,937.986459,-9399.007173
6716.018674,1359.123237,191.425808,-10030.712339
6716.021217,-3924.229064,-2488.535504,-10509.276859
6716.023761,-4115.654872,-363.709035,-9590.432981
6716.026304,2143.969050,248.853550,-9418.149754
6716.028847,-3196.810994,-8748.159426,-11581.261384
6716.031391,-325.423874,5130.211654,-8863.014910
6716.033934,3273.381317,4096.512291,-8786.444587
6716.036477,784.845813,-3828.516160,-11600.403965
6716.039021,976.271621,12710.673651,-7752.745224
6716.041564,3101.098090,-421.136778,-9820.143950
6716.044107,612.562586,76.570323,-10317.851051
6716.046651,650.847747,3905.086483,-9016.155557
6716.049194,5034.498750,-1646.261949,-10145.567824
6716.051737,-650.847747,995.414202,-9839.286531
6716.054281,344.566454,1856.830338,-9552.147819
6716.056824,1799.402595,1665.404530,-9915.856854
6716.059367,976.271621,2947.957443,-9628.718142
6716.061911,1780.260014,-95.712904,-9475.577496
6716.064454,803.988394,1320.838075,-9954.142016
6716.066997,2775.674216,3943.371645,-9781.858789
6716.069545,1129.412267,440.279358,-9839.286531
6716.072092,4575.076811,7293.323285,-8901.300072
6716.074639,1684.547110,1186.840010,-10068.997501
6716.077187,1148.554848,957.129040,-9705.288466
6716.079734,-2928.814862,-957.129040,-9973.284597
6716.082282,-2947.957443,1205.982590,-9954.142016
6716.084829,3790.230998,1627.119368,-9073.583299
6716.087376,-669.990328,-4881.358104,-11064.411702
6716.089924,-2507.678085,-555.134843,-9705.288466
6716.092471,-267.996131,-1110.269686,-10068.997501
6716.095018,-2277.967115,3981.656806,-9724.431046
6716.097566,76.570323,-2029.113565,-9590.432981
6716.100113,-478.564520,-1014.556782,-10049.854920
6716.102661,38.285162,650.847747,-9839.286531
6716.105208,1167.697429,1722.832272,-9992.427178
6716.107755,191.425808,-421.136778,-9801.001370
6716.110303,-823.130974,1014.556782,-9341.579430
6716.112850,-1493.121302,-823.130974,-10624.132344
6716.115397,-2526.820666,-1263.410333,-10049.854920
6716.117945,-976.271621,-2718.246474,-9667.003304
6716.120492,-2277.967115,-2220.539373,-10432.706536
6716.123040,2124.826469,-555.134843,-9092.725880
6716.125587,-1741.974853,-4460.221326,-10719.845248
6716.128134,3541.377448,7542.176835,-8863.014910
6716.130682,6106.483275,3349.951640,-8939.585234
6716.133229,-1205.982590,-497.707101,-10853.843314
6716.135776,-1186.840010,8173.882002,-8020.741355
6716.138324,6451.049730,1435.693560,-9207.581365
6716.140871,-382.851616,-1914.258080,-10892.128475
6716.143418,478.564520,861.416136,-10030.712339
6716.145966,3235.096155,287.138712,-9437.292334
6716.148513,-669.990328,2775.674216,-9820.143950
6716.151061,1493.121302,4498.506488,-9150.153622
6716.153608,4039.084549,-421.136778,-9667.003304
6716.156155,-440.279358,880.558717,-9896.714274
6716.158703,3215.953574,3005.385186,-9437.292334
6716.161250,1990.828403,1933.400661,-10088.140082
6716.163797,2928.814862,3962.514226,-9341.579430
6716.166345,1856.830338,2029.113565,-9973.284597
6716.168892,1148.554848,765.703232,-9801.001370
6716.171443,-2277.967115,-153.140646,-9743.573627
6716.173995,1397.408398,4957.928427,-9150.153622
6716.176546,593.420005,-7905.885870,-11026.126541
6716.179097,-1244.267752,210.568389,-9973.284597
6716.181648,-76.570323,-2258.824534,-9762.716208
6716.184199,-363.709035,2105.683888,-9609.575562
6716.186751,-1493.121302,3751.945837,-9399.007173
6716.189302,-1071.984525,-2986.242605,-10356.136213
6716.191853,459.421939,-191.425808,-9494.720077
6716.194404,1205.982590,-57.427742,-9762.716208
6716.196955,861.416136,689.132909,-10088.140082
6716.199506,-2679.961312,612.562586,-9820.143950
6716.202058,1550.549045,918.843878,-9379.864592
6716.204609,-363.709035,-746.560651,-10241.280728
6716.207160,-4115.654872,-1167.697429,-10260.423309
6716.209711,-2029.113565,-2392.822600,-9934.999435
6716.212262,-2431.107762,-3790.230998,-10738.987829
6716.214814,1110.269686,689.132909,-8997.012976
6716.217365,-1301.695494,-4115.654872,-10394.421374
6716.219916,3579.662610,7331.608446,-8958.727814
6716.222467,4919.643266,-1473.978722,-10624.132344
6716.225018,-1799.402595,5130.211654,-9781.858789
6716.227570,1052.841944,6604.190376,-7982.456194
6716.230121,5015.356170,-1186.840010,-10202.995566
6716.232672,-1301.695494,574.277424,-10088.140082
6716.235223,-76.570323,1071.984525,-9934.999435
6716.237774,3235.096155,-153.140646,-9724.431046
6716.240325,-574.277424,2947.957443,-9705.288466
6716.242877,1837.687757,2890.529701,-9437.292334
6716.245428,1914.258080,1263.410333,-9686.145885
6716.247979,516.849682,1665.404530,-9475.577496
6716.250530,3177.668413,918.843878,-9781.858789
6716.253081,746.560651,3177.668413,-9801.001370
6716.255633,3464.807125,4058.227130,-8939.585234
6716.258184,3694.518094,382.851616,-10336.993632
6716.260735,-95.712904,1282.552914,-9839.286531
6716.263286,-2565.105827,1129.412267,-9437.292334
6716.265837,2029.113565,4230.510357,-9322.436850
6716.268389,-918.843878,-8575.876198,-11236.694930
6716.270940,-344.566454,765.703232,-9858.429112
6716.273477,306.281293,-3024.527766,-9801.001370
6716.276015,-823.130974,2507.678085,-9379.864592
6716.278552,-1435.693560,3235.096155,-9226.723946
6716.281090,-2622.533570,-4517.649069,-11428.120738
6716.283628,-95.712904,497.707101,-9533.005238
6716.286165,1071.984525,-650.847747,-9820.143950
6716.288703,899.701298,746.560651,-10145.567824
6716.291240,-1971.685822,1091.127106,-9915.856854
6716.293778,2699.103893,248.853550,-9552.147819
6716.296315,-2354.537438,-1512.263883,-10183.852986
6716.298853,-3101.098090,-191.425808,-10011.569758
6716.301390,0.000000,-3732.803256,-10260.423309
6716.303928,-2813.959378,-1933.400661,-10336.993632
6716.306466,-95.712904,3694.518094,-8461.020714
6716.309003,478.564520,-4421.936165,-10183.852986
6716.311541,1684.547110,6317.051664,-9724.431046
6716.314078,5493.920690,2201.396792,-9667.003304
6716.316616,-1378.265818,823.130974,-10432.706536
6716.319153,-995.414202,7982.456194,-7829.315547
6716.321691,6087.340694,401.994197,-9686.145885
6716.324228,-267.996131,-937.986459,-10394.421374
6716.326766,1320.838075,784.845813,-9954.142016
6716.329304,3043.670347,-172.283227,-9571.290400
6716.331841,478.564520,1684.547110,-9973.284597
6716.334379,133.998066,3560.520029,-9379.864592
6716.336916,3464.807125,-114.855485,-9609.575562
6716.339454,-95.712904,1856.830338,-9437.292334
6716.341991,3062.812928,2392.822600,-9801.001370
6716.344529,38.285162,937.986459,-10126.425243
6716.347066,5206.781978,8403.592971,-8403.592971
6716.349604,3330.809059,823.130974,-10279.565890
6716.352142,382.851616,1263.410333,-9839.286531
6716.354679,-4096.512291,-3254.238736,-10451.849117
6716.357217,-2373.680019,2220.539373,-9724.431046
6716.359754,4058.227130,-1167.697429,-9513.862658
6716.362292,-631.705166,-4613.361973,-11102.696864
6716.364829,-2852.244539,-1493.121302,-9801.001370
6716.367367,-497.707101,-133.998066,-9781.858789
6716.369904,-1473.978722,5091.926493,-9513.862658
6716.372442,-1646.261949,-2833.101958,-10336.993632
6716.374985,-19.142581,172.283227,-9552.147819
6716.377527,-325.423874,-172.283227,-9839.286531
6716.380070,1148.554848,1339.980656,-10088.140082
6716.382613,-363.709035,-497.707101,-10068.997501
6716.385155,-957.129040,1244.267752,-9016.155557
6716.387698,-229.710970,-2201.396792,-10432.706536
6716.390241,-4536.791650,-1588.834206,-10451.849117
6716.392783,516.849682,2029.113565,-9207.581365
6716.395326,-2775.674216,-9035.298138,-11408.978157
6716.397869,-516.849682,3560.520029,-8958.727814
6716.400411,3503.092286,1320.838075,-9399.007173
6716.402954,995.414202,-2469.392923,-11542.976222
6716.405497,2277.967115,13438.091722,-7542.176835
6716.408039,2029.113565,-1493.121302,-10241.280728
6716.410582,-1646.261949,2488.535504,-9705.288466
6716.413125,3215.953574,4536.791650,-8805.587168
6716.415667,4517.649069,-2947.957443,-10777.272990
6716.418210,-1818.545176,1454.836141,-9858.429112
6716.420753,1684.547110,1244.267752,-9456.434915
6716.423295,1741.974853,-344.566454,-9877.571693
6716.425838,382.851616,2507.678085,-9820.143950
6716.428381,669.990328,1569.691626,-9609.575562
6716.430923,2833.101958,1952.543242,-9475.577496
6716.433466,1129.412267,3120.240670,-9858.429112
6716.436009,3139.383251,1435.693560,-9705.288466
6716.438551,3445.664544,4555.934230,-9552.147819
6716.441094,1875.972918,3043.670347,-9475.577496
6716.443637,38.285162,4498.506488,-8901.300072
6716.446179,38.285162,-1225.125171,-9647.860723
6716.448722,-3369.094221,-9973.284597,-12117.253646
6716.451265,1282.552914,2297.109696,-9284.151688
6716.453807,-114.855485,-3158.525832,-9801.001370
6716.456350,-650.847747,2833.101958,-9494.720077
6716.458893,-2220.539373,1320.838075,-9418.149754
6716.461435,-1914.258080,-3120.240670,-11389.835576
6716.463978,-114.855485,459.421939,-9494.720077
6716.466521,1454.836141,-1033.699363,-9303.294269
6716.469063,-669.990328,880.558717,-10164.710405
6716.471606,-287.138712,1378.265818,-9686.145885
6716.474149,2622.533570,823.130974,-9456.434915
6716.476696,-2258.824534,-1952.543242,-10298.708470
6716.479243,-4211.367776,-382.851616,-10030.712339
6716.481790,1512.263883,-2431.107762,-10107.282662
6716.484337,-3675.375514,-5091.926493,-10968.698798
6716.486884,-57.427742,2584.248408,-8193.024582
6716.489431,-382.851616,-4460.221326,-10394.421374
6716.491978,3081.955509,6853.043926,-9322.436850
6716.494525,5359.922624,210.568389,-9954.142016
6716.497072,-287.138712,-2699.103893,-11255.837510
6716.499619,-2507.678085,7235.895542,-8307.880067
6716.502166,6891.329088,2852.244539,-8843.872330
6716.504713,1071.984525,-2297.109696,-10834.700733
6716.507260,-650.847747,1971.685822,-9762.716208
6716.509807,2852.244539,-325.423874,-9877.571693
6716.512354,-440.279358,2737.389054,-9705.288466
6716.514901,1033.699363,3732.803256,-9379.864592
6716.517448,3866.801322,-325.423874,-9781.858789
6716.519995,593.420005,1627.119368,-9820.143950
