#time,accel_x,accel_y,accel_z
84163.715299,497.707101,1052.841944,-10107.282662
84163.717856,363.709035,153.140646,-10183.852986
84163.720414,497.707101,1435.693560,-9609.575562
84163.722972,555.134843,555.134843,-9934.999435
84163.725529,401.994197,191.425808,-10202.995566
84163.728087,478.564520,1454.836141,-9609.575562
84163.730646,535.992262,612.562586,-9896.714274
84163.733205,861.416136,325.423874,-10126.425243
84163.735765,-19.142581,1014.556782,-9724.431046
84163.738324,823.130974,995.414202,-9781.858789
84163.740883,689.132909,-19.142581,-10049.854920
84163.743442,478.564520,1703.689691,-9667.003304
84163.746001,287.138712,401.994197,-10049.854920
84163.748561,1091.127106,114.855485,-9992.427178
84163.751120,229.710970,1722.832272,-9667.003304
84163.753679,784.845813,287.138712,-10030.712339
84163.756238,555.134843,976.271621,-9915.856854
84163.758797,267.996131,1493.121302,-9762.716208
84163.761357,363.709035,-172.283227,-9973.284597
84163.763916,401.994197,1780.260014,-9801.001370
84163.766475,937.986459,95.712904,-10030.712339
84163.769034,669.990328,1091.127106,-9896.714274
84163.771593,708.275490,631.705166,-9877.571693
84163.774153,631.705166,229.710970,-9743.573627
84163.776712,287.138712,1359.123237,-10011.569758
84163.779271,842.273555,229.710970,-9877.571693
84163.781830,382.851616,1493.121302,-9647.860723
84163.784389,363.709035,306.281293,-10126.425243
84163.786949,440.279358,401.994197,-9820.143950
84163.789508,172.283227,1186.840010,-9858.429112
84163.792067,210.568389,306.281293,-9973.284597
84163.794626,210.568389,746.560651,-9820.143950
84163.797185,248.853550,1091.127106,-9801.001370
84163.799744,555.134843,382.851616,-9954.142016
84163.802304,612.562586,593.420005,-10126.425243
84163.804863,344.566454,1167.697429,-9724.431046
84163.807422,191.425808,440.279358,-10049.854920
84163.809981,535.992262,1014.556782,-9954.142016
84163.812540,593.420005,1052.841944,-9724.431046
84163.815100,306.281293,363.709035,-10375.278794
84163.817659,631.705166,995.414202,-9820.143950
84163.820218,363.709035,957.129040,-9609.575562
84163.822777,287.138712,459.421939,-10068.997501
84163.825336,478.564520,823.130974,-9877.571693
84163.827896,669.990328,957.129040,-9801.001370
84163.830455,344.566454,382.851616,-10107.282662
84163.833016,-114.855485,899.701298,-9743.573627
84163.835576,440.279358,1205.982590,-9801.001370
84163.838137,95.712904,306.281293,-10126.425243
84163.840698,784.845813,1454.836141,-9877.571693
84163.843258,574.277424,19.142581,-9839.286531
84163.845819,-19.142581,612.562586,-9973.284597
84163.848380,746.560651,1014.556782,-9762.716208
84163.850940,-76.570323,57.427742,-10241.280728
84163.853501,133.998066,1435.693560,-9820.143950
84163.856062,631.705166,133.998066,-9762.716208
84163.858623,-172.283227,421.136778,-10222.138147
84163.861183,95.712904,1052.841944,-9762.716208
84163.863744,-153.140646,-746.560651,-9973.284597
84163.866305,38.285162,918.843878,-9877.571693
84163.868865,2086.541307,172.283227,-9724.431046
84163.871426,880.558717,478.564520,-9934.999435
84163.873987,1512.263883,1722.832272,-9475.577496
84163.876548,1205.982590,191.425808,-9571.290400
84163.879108,-133.998066,1263.410333,-9992.427178
84163.881669,114.855485,1205.982590,-9705.288466
84163.884230,861.416136,1205.982590,-9628.718142
84163.886790,382.851616,1569.691626,-9781.858789
84163.889351,1014.556782,689.132909,-9667.003304
84163.891912,765.703232,574.277424,-9915.856854
84163.894472,899.701298,1225.125171,-9609.575562
84163.897033,497.707101,555.134843,-9973.284597
84163.899594,287.138712,459.421939,-10183.852986
84163.902155,574.277424,1186.840010,-9686.145885
84163.904715,287.138712,497.707101,-10011.569758
84163.907276,593.420005,803.988394,-10145.567824
84163.909837,631.705166,1282.552914,-9647.860723
84163.912397,153.140646,344.566454,-10241.280728
84163.914958,803.988394,842.273555,-9992.427178
84163.917519,669.990328,1148.554848,-9820.143950
84163.920080,133.998066,555.134843,-10279.565890
84163.922640,765.703232,746.560651,-10030.712339
84163.925201,650.847747,823.130974,-9858.429112
84163.927762,746.560651,612.562586,-10088.140082
84163.930322,746.560651,803.988394,-9896.714274
84163.932883,248.853550,823.130974,-9801.001370
84163.935445,1186.840010,918.843878,-9839.286531
84163.938007,1205.982590,631.705166,-9915.856854
84163.940569,995.414202,1129.412267,-9647.860723
84163.943132,1071.984525,172.283227,-9820.143950
84163.945694,478.564520,1282.552914,-10068.997501
84163.948256,-267.996131,1607.976787,-9858.429112
84163.950818,650.847747,401.994197,-9839.286531
84163.953380,-325.423874,1014.556782,-9896.714274
84163.955942,995.414202,1359.123237,-9820.143950
84163.958505,669.990328,248.853550,-10068.997501
84163.961067,478.564520,1167.697429,-9839.286531
84163.963629,1225.125171,325.423874,-9954.142016
84163.966191,1205.982590,1110.269686,-10030.712339
84163.968753,555.134843,1071.984525,-9781.858789
84163.971315,-114.855485,535.992262,-9915.856854
84163.973877,-708.275490,76.570323,-10241.280728
84163.976440,-363.709035,631.705166,-9896.714274
84163.979002,153.140646,-114.855485,-10126.425243
84163.981564,306.281293,-133.998066,-10126.425243
84163.984126,363.709035,497.707101,-9820.143950
84163.986688,325.423874,421.136778,-10107.282662
84163.989250,727.418070,708.275490,-10126.425243
84163.991813,114.855485,937.986459,-9801.001370
84163.994375,229.710970,823.130974,-9896.714274
84163.996937,689.132909,401.994197,-9992.427178
84163.999499,363.709035,1205.982590,-9743.573627
84164.002061,344.566454,459.421939,-10107.282662
84164.004623,689.132909,421.136778,-10030.712339
84164.007185,631.705166,1033.699363,-9647.860723
84164.009748,287.138712,306.281293,-10088.140082
84164.012310,937.986459,842.273555,-10030.712339
84164.014872,114.855485,669.990328,-9801.001370
84164.017434,382.851616,669.990328,-9973.284597
84164.019996,306.281293,459.421939,-9973.284597
84164.022558,593.420005,1148.554848,-9743.573627
84164.025121,440.279358,344.566454,-10011.569758
84164.027683,-172.283227,497.707101,-9973.284597
84164.030245,267.996131,1263.410333,-9647.860723
84164.032807,38.285162,-133.998066,-10049.854920
84164.035369,325.423874,1531.406464,-9915.856854
84164.037932,248.853550,-459.421939,-9954.142016
84164.040495,-248.853550,593.420005,-9973.284597
84164.043059,803.988394,803.988394,-9839.286531
84164.045622,114.855485,-1167.697429,-10336.993632
84164.048185,133.998066,1569.691626,-9801.001370
84164.050748,516.849682,631.705166,-9475.577496
84164.053311,-133.998066,133.998066,-10336.993632
84164.055874,-421.136778,1607.976787,-9686.145885
84164.058437,95.712904,-727.418070,-9839.286531
84164.061001,765.703232,765.703232,-9973.284597
84164.063564,2297.109696,708.275490,-9686.145885
84164.066127,1646.261949,1397.408398,-9839.286531
84164.068690,1550.549045,2411.965181,-9513.862658
84164.071253,842.273555,1473.978722,-9686.145885
84164.073816,76.570323,1780.260014,-9992.427178
84164.076379,267.996131,1167.697429,-9820.143950
84164.078943,555.134843,459.421939,-9839.286531
84164.081506,344.566454,1110.269686,-9801.001370
84164.084069,631.705166,689.132909,-9934.999435
84164.086632,823.130974,497.707101,-10049.854920
84164.089195,669.990328,1320.838075,-9705.288466
84164.091758,440.279358,421.136778,-10011.569758
84164.094321,727.418070,823.130974,-10145.567824
84164.096885,574.277424,918.843878,-9915.856854
84164.099448,287.138712,593.420005,-9877.571693
84164.102011,593.420005,708.275490,-10030.712339
84164.104574,746.560651,765.703232,-10049.854920
84164.107137,172.283227,612.562586,-10049.854920
84164.109700,689.132909,765.703232,-10030.712339
84164.112263,401.994197,593.420005,-9877.571693
84164.114827,899.701298,957.129040,-10011.569758
84164.117390,727.418070,401.994197,-9915.856854
84164.119953,631.705166,899.701298,-9839.286531
84164.122516,382.851616,669.990328,-10011.569758
84164.125079,1071.984525,555.134843,-10088.140082
84164.127642,689.132909,861.416136,-9877.571693
84164.130205,1301.695494,1033.699363,-9896.714274
84164.132769,516.849682,306.281293,-10107.282662
84164.135332,823.130974,2277.967115,-9571.290400
84164.137895,593.420005,612.562586,-9973.284597
84164.140459,-842.273555,1033.699363,-9896.714274
84164.143023,555.134843,2201.396792,-9552.147819
84164.145587,1129.412267,172.283227,-9934.999435
84164.148151,114.855485,612.562586,-10164.710405
84164.150715,440.279358,497.707101,-9475.577496
84164.153279,1282.552914,1301.695494,-9877.571693
84164.155843,1263.410333,823.130974,-9992.427178
84164.158407,1416.550979,937.986459,-9705.288466
84164.160971,803.988394,1282.552914,-9801.001370
84164.163535,133.998066,957.129040,-9743.573627
84164.166099,-803.988394,823.130974,-9743.573627
84164.168663,-1033.699363,708.275490,-9839.286531
84164.171227,-38.285162,382.851616,-9839.286531
84164.173791,306.281293,-421.136778,-10011.569758
84164.176356,248.853550,-229.710970,-9896.714274
84164.178920,899.701298,133.998066,-9915.856854
84164.181484,401.994197,-57.427742,-10088.140082
84164.184048,133.998066,1071.984525,-9705.288466
84164.186612,478.564520,918.843878,-9839.286531
84164.189176,421.136778,363.709035,-9973.284597
84164.191740,918.843878,746.560651,-9820.143950
84164.194304,287.138712,1148.554848,-10164.710405
84164.196868,248.853550,382.851616,-10202.995566
84164.199432,1052.841944,784.845813,-9762.716208
84164.201996,19.142581,708.275490,-9915.856854
84164.204560,325.423874,765.703232,-10145.567824
84164.207124,612.562586,689.132909,-10068.997501
84164.209688,478.564520,1359.123237,-9915.856854
84164.212252,191.425808,344.566454,-10030.712339
84164.214816,440.279358,918.843878,-10068.997501
84164.217380,191.425808,861.416136,-9858.429112
84164.219944,-153.140646,229.710970,-10222.138147
84164.222508,708.275490,1033.699363,-9934.999435
84164.225072,363.709035,153.140646,-9915.856854
84164.227636,-172.283227,784.845813,-9801.001370
84164.230201,727.418070,-191.425808,-9954.142016
84164.232765,153.140646,880.558717,-9992.427178
84164.235329,153.140646,1588.834206,-9762.716208
84164.237893,421.136778,-459.421939,-9801.001370
84164.240457,-133.998066,1454.836141,-9724.431046
84164.243014,-478.564520,-57.427742,-9973.284597
84164.245579,-1052.841944,229.710970,-10049.854920
84164.248144,0.000000,765.703232,-9590.432981
84164.250709,1627.119368,-267.996131,-9877.571693
84164.253274,2603.390989,1473.978722,-9992.427178
84164.255839,2622.533570,421.136778,-9762.716208
84164.258403,1186.840010,1512.263883,-9724.431046
84164.260968,-76.570323,2507.678085,-9686.145885
84164.263533,593.420005,1665.404530,-9762.716208
84164.266098,210.568389,1301.695494,-9973.284597
84164.268663,555.134843,363.709035,-9839.286531
84164.271228,899.701298,1244.267752,-9667.003304
84164.273793,497.707101,-19.142581,-10413.563955
84164.276357,497.707101,1397.408398,-9781.858789
84164.278922,612.562586,478.564520,-9839.286531
84164.281487,535.992262,459.421939,-10049.854920
84164.284052,210.568389,1722.832272,-9858.429112
84164.286617,401.994197,0.000000,-10279.565890
84164.289182,631.705166,1091.127106,-9724.431046
84164.291747,382.851616,1263.410333,-9724.431046
84164.294312,555.134843,153.140646,-10317.851051
84164.296876,516.849682,765.703232,-9686.145885
84164.299441,669.990328,1607.976787,-9667.003304
84164.302006,631.705166,114.855485,-10375.278794
84164.304571,899.701298,937.986459,-9724.431046
84164.307136,497.707101,957.129040,-9686.145885
84164.309701,861.416136,363.709035,-10126.425243
84164.312266,899.701298,918.843878,-10088.140082
84164.314830,1454.836141,1473.978722,-9820.143950
84164.317395,76.570323,191.425808,-9992.427178
84164.319960,1052.841944,2335.394858,-9494.720077
84164.322525,421.136778,612.562586,-9820.143950
84164.325073,-937.986459,1205.982590,-10126.425243
84164.327622,574.277424,2105.683888,-9820.143950
84164.330170,1110.269686,-57.427742,-9915.856854
84164.332719,-19.142581,478.564520,-10068.997501
84164.335267,344.566454,363.709035,-9628.718142
84164.337816,1186.840010,1339.980656,-9743.573627
84164.340364,1091.127106,593.420005,-10145.567824
84164.342913,1359.123237,746.560651,-10030.712339
84164.345461,1531.406464,1091.127106,-9647.860723
84164.348010,918.843878,976.271621,-9647.860723
84164.350558,-1052.841944,1052.841944,-9858.429112
84164.353107,-842.273555,1416.550979,-9801.001370
84164.355655,-784.845813,114.855485,-10183.852986
84164.358204,-689.132909,153.140646,-9896.714274
84164.360752,593.420005,229.710970,-9590.432981
84164.363301,1091.127106,-440.279358,-10049.854920
84164.365849,191.425808,-133.998066,-10164.710405
84164.368398,325.423874,803.988394,-9839.286531
84164.370946,478.564520,861.416136,-10126.425243
84164.373495,555.134843,746.560651,-9667.003304
84164.376043,344.566454,995.414202,-9839.286531
84164.378592,574.277424,38.285162,-10164.710405
84164.381140,248.853550,1607.976787,-9973.284597
84164.383689,803.988394,497.707101,-10145.567824
84164.386237,229.710970,-19.142581,-9877.571693
84164.388786,363.709035,1588.834206,-9743.573627
84164.391334,325.423874,344.566454,-10394.421374
84164.393883,803.988394,784.845813,-9896.714274
84164.396431,0.000000,823.130974,-9743.573627
84164.398980,325.423874,535.992262,-10049.854920
84164.401528,114.855485,210.568389,-9973.284597
84164.404077,593.420005,1703.689691,-9762.716208
84164.406625,57.427742,-497.707101,-10336.993632
84164.409174,95.712904,440.279358,-9954.142016
84164.411722,1014.556782,1110.269686,-9609.575562
84164.414271,0.000000,-1646.261949,-10528.419440
84164.416819,19.142581,1454.836141,-10068.997501
84164.419368,535.992262,153.140646,-9858.429112
84164.421916,-497.707101,669.990328,-10068.997501
84164.424464,-421.136778,650.847747,-9667.003304
84164.427016,-918.843878,-574.277424,-10049.854920
84164.429567,-535.992262,459.421939,-10241.280728
84164.432118,1971.685822,306.281293,-9973.284597
84164.434669,2947.957443,803.988394,-9801.001370
84164.437220,2239.681954,1052.841944,-9705.288466
84164.439771,1435.693560,1301.695494,-9801.001370
84164.442322,210.568389,2373.680019,-9954.142016
84164.444873,459.421939,1761.117434,-10011.569758
84164.447424,727.418070,1799.402595,-9877.571693
84164.449976,727.418070,-19.142581,-9552.147819
84164.452527,229.710970,995.414202,-9590.432981
84164.455078,382.851616,1129.412267,-10375.278794
84164.457629,516.849682,746.560651,-10336.993632
84164.460180,746.560651,861.416136,-9609.575562
84164.462731,382.851616,765.703232,-9533.005238
84164.465282,440.279358,746.560651,-9915.856854
84164.467833,287.138712,478.564520,-10317.851051
84164.470384,593.420005,1397.408398,-9896.714274
84164.472936,382.851616,823.130974,-9954.142016
84164.475487,650.847747,440.279358,-9801.001370
84164.478038,382.851616,1033.699363,-9494.720077
84164.480589,708.275490,937.986459,-10011.569758
84164.483140,593.420005,440.279358,-10317.851051
84164.485691,-76.570323,1129.412267,-9820.143950
84164.488242,1397.408398,1071.984525,-9667.003304
84164.490793,1205.982590,153.140646,-9896.714274
84164.493344,650.847747,1971.685822,-9667.003304
84164.495896,899.701298,555.134843,-10068.997501
84164.498447,478.564520,1703.689691,-10126.425243
84164.500998,-114.855485,1703.689691,-9609.575562
84164.503549,191.425808,-267.996131,-9801.001370
84164.506100,133.998066,957.129040,-9954.142016
84164.508651,1148.554848,1033.699363,-10088.140082
84164.511202,689.132909,267.996131,-10202.995566
84164.513753,248.853550,382.851616,-9839.286531
84164.516304,976.271621,593.420005,-9609.575562
84164.518855,1282.552914,803.988394,-9858.429112
84164.521407,1320.838075,823.130974,-9781.858789
84164.523958,1167.697429,1148.554848,-9992.427178
84164.526509,784.845813,784.845813,-10088.140082
84164.529062,-114.855485,669.990328,-9877.571693
84164.531616,-1110.269686,1014.556782,-9724.431046
84164.534170,-842.273555,478.564520,-9992.427178
84164.536724,-133.998066,153.140646,-10298.708470
84164.539277,191.425808,153.140646,-9973.284597
84164.541831,861.416136,-191.425808,-9686.145885
84164.544385,765.703232,-459.421939,-10030.712339
84164.546938,401.994197,1033.699363,-9896.714274
84164.549492,153.140646,631.705166,-10317.851051
84164.552046,765.703232,459.421939,-10049.854920
84164.554599,459.421939,1186.840010,-9456.434915
84164.557153,133.998066,76.570323,-10030.712339
84164.559707,516.849682,995.414202,-10088.140082
84164.562260,669.990328,1014.556782,-9896.714274
84164.564814,210.568389,287.138712,-10222.138147
84164.567368,421.136778,880.558717,-9743.573627
84164.569921,631.705166,1052.841944,-9896.714274
84164.572475,-133.998066,-172.283227,-10260.423309
84164.575029,191.425808,1397.408398,-9820.143950
84164.577582,650.847747,382.851616,-10011.569758
84164.580136,306.281293,669.990328,-10183.852986
84164.582690,-459.421939,555.134843,-9762.716208
84164.585243,19.142581,-19.142581,-9954.142016
84164.587797,382.851616,1665.404530,-10183.852986
84164.590351,325.423874,784.845813,-9743.573627
84164.592904,-38.285162,-535.992262,-10011.569758
84164.595458,287.138712,1378.265818,-9513.862658
84164.598012,133.998066,-478.564520,-10088.140082
84164.600566,-937.986459,1607.976787,-10068.997501
84164.603119,-689.132909,114.855485,-9820.143950
84164.605673,114.855485,-38.285162,-9896.714274
84164.608227,2029.113565,153.140646,-9801.001370
84164.610780,3101.098090,669.990328,-9743.573627
84164.613334,2297.109696,1588.834206,-9934.999435
84164.615888,363.709035,1875.972918,-9628.718142
84164.618441,287.138712,2086.541307,-9686.145885
84164.620995,440.279358,1722.832272,-9915.856854
84164.623549,440.279358,1473.978722,-9801.001370
84164.626102,765.703232,-57.427742,-9877.571693
84164.628656,401.994197,1588.834206,-9609.575562
84164.631195,344.566454,631.705166,-10126.425243
84164.633734,784.845813,344.566454,-10107.282662
84164.636273,880.558717,1531.406464,-9494.720077
84164.638811,172.283227,-133.998066,-10164.710405
84164.641350,593.420005,1129.412267,-10183.852986
84164.643889,555.134843,957.129040,-9934.999435
84164.646428,708.275490,114.855485,-9934.999435
84164.648967,478.564520,1167.697429,-9858.429112
84164.651506,669.990328,784.845813,-9954.142016
84164.654045,401.994197,669.990328,-10145.567824
84164.656584,784.845813,957.129040,-10068.997501
84164.659123,535.992262,287.138712,-9992.427178
84164.661661,478.564520,650.847747,-10011.569758
84164.664200,1531.406464,1454.836141,-9839.286531
84164.666739,421.136778,440.279358,-9934.999435
84164.669278,516.849682,2067.398726,-9954.142016
84164.671817,516.849682,727.418070,-10030.712339
84164.674356,-497.707101,1071.984525,-9934.999435
84164.676895,574.277424,803.988394,-9705.288466
84164.679434,421.136778,76.570323,-10222.138147
84164.681972,344.566454,1225.125171,-9992.427178
84164.684511,248.853550,516.849682,-9724.431046
84164.687050,976.271621,1186.840010,-9724.431046
84164.689589,899.701298,440.279358,-10068.997501
84164.692128,746.560651,957.129040,-10011.569758
84164.694667,1148.554848,1148.554848,-9877.571693
84164.697206,1435.693560,1033.699363,-9839.286531
84164.699745,612.562586,1014.556782,-9992.427178
84164.702283,0.000000,842.273555,-9781.858789
84164.704822,-612.562586,727.418070,-9877.571693
84164.707361,-1091.127106,612.562586,-9934.999435
84164.709900,-191.425808,976.271621,-9839.286531
84164.712439,765.703232,-210.568389,-10030.712339
84164.714978,593.420005,-210.568389,-9781.858789
84164.717517,325.423874,153.140646,-9839.286531
84164.720056,612.562586,440.279358,-9896.714274
84164.722594,497.707101,918.843878,-9954.142016
84164.725133,287.138712,669.990328,-9820.143950
84164.727672,421.136778,727.418070,-9628.718142
84164.730211,899.701298,555.134843,-10088.140082
84164.732754,210.568389,1014.556782,-10088.140082
84164.735297,401.994197,612.562586,-10011.569758
84164.737840,976.271621,459.421939,-9762.716208
84164.740383,-153.140646,631.705166,-9762.716208
84164.742926,459.421939,574.277424,-10088.140082
84164.745469,440.279358,459.421939,-10183.852986
84164.748013,440.279358,1435.693560,-9762.716208
84164.750556,325.423874,-153.140646,-10011.569758
84164.753099,133.998066,957.129040,-9839.286531
84164.755642,593.420005,497.707101,-9858.429112
84164.758185,-306.281293,-574.277424,-10470.991698
84164.760728,382.851616,1493.121302,-9915.856854
84164.763271,325.423874,-497.707101,-9801.001370
84164.765814,-248.853550,1110.269686,-9877.571693
84164.768357,19.142581,-172.283227,-10107.282662
84164.770900,-842.273555,555.134843,-10145.567824
84164.773443,-535.992262,727.418070,-10145.567824
84164.775986,1493.121302,-76.570323,-9896.714274
84164.778529,2718.246474,861.416136,-9762.716208
84164.781072,2297.109696,937.986459,-10030.712339
84164.783615,1359.123237,1761.117434,-9781.858789
84164.786158,95.712904,2143.969050,-9628.718142
84164.788701,95.712904,2067.398726,-9839.286531
84164.791244,727.418070,1875.972918,-9858.429112
84164.793788,957.129040,421.136778,-9839.286531
84164.796331,497.707101,650.847747,-9552.147819
84164.798874,76.570323,1339.980656,-9992.427178
84164.801417,669.990328,344.566454,-10279.565890
84164.803960,478.564520,1014.556782,-9456.434915
84164.806503,593.420005,1186.840010,-9418.149754
84164.809046,191.425808,401.994197,-10260.423309
84164.811589,708.275490,1014.556782,-9896.714274
84164.814132,535.992262,1378.265818,-9571.290400
84164.816675,593.420005,19.142581,-9839.286531
84164.819218,516.849682,1186.840010,-9705.288466
84164.821761,574.277424,937.986459,-9743.573627
84164.824304,114.855485,555.134843,-10088.140082
84164.826847,1148.554848,1359.123237,-9820.143950
84164.829390,976.271621,612.562586,-9762.716208
84164.831933,516.849682,1148.554848,-9839.286531
84164.834480,937.986459,650.847747,-9820.143950
84164.837027,612.562586,1378.265818,-10049.854920
84164.839574,363.709035,1110.269686,-10145.567824
84164.842121,-133.998066,-287.138712,-9992.427178
84164.844668,-95.712904,1741.974853,-9590.432981
84164.847215,1282.552914,248.853550,-10011.569758
84164.849762,650.847747,344.566454,-10183.852986
84164.852308,-344.566454,669.990328,-9743.573627
84164.854855,765.703232,440.279358,-9954.142016
84164.857402,1091.127106,803.988394,-10183.852986
84164.859949,803.988394,918.843878,-9705.288466
84164.862496,746.560651,1091.127106,-9915.856854
84164.865043,1359.123237,842.273555,-10164.710405
84164.867590,765.703232,1263.410333,-9801.001370
84164.870137,-440.279358,937.986459,-10030.712339
84164.872684,-516.849682,650.847747,-10011.569758
84164.875231,-1033.699363,459.421939,-9896.714274
84164.877777,-401.994197,95.712904,-10145.567824
84164.880324,937.986459,95.712904,-9992.427178
84164.882871,612.562586,-95.712904,-9934.999435
84164.885418,0.000000,172.283227,-10011.569758
84164.887965,325.423874,937.986459,-9877.571693
84164.890512,708.275490,765.703232,-10126.425243
84164.893059,287.138712,248.853550,-10011.569758
84164.895606,574.277424,1205.982590,-9571.290400
84164.898153,555.134843,535.992262,-10183.852986
84164.900699,363.709035,727.418070,-9858.429112
84164.903246,746.560651,1722.832272,-9590.432981
84164.905793,229.710970,-497.707101,-10164.710405
84164.908340,210.568389,1052.841944,-9743.573627
84164.910887,306.281293,880.558717,-9801.001370
84164.913434,861.416136,803.988394,-10202.995566
84164.915981,-248.853550,-153.140646,-10049.854920
84164.918528,-172.283227,861.416136,-9609.575562
84164.921075,1052.841944,995.414202,-9896.714274
84164.923622,459.421939,-689.132909,-10183.852986
84164.926168,-593.420005,574.277424,-10030.712339
84164.928715,287.138712,995.414202,-9820.143950
84164.931262,191.425808,-172.283227,-10260.423309
84164.933809,-880.558717,1397.408398,-9781.858789
84164.936359,-229.710970,-516.849682,-10068.997501
84164.938909,478.564520,344.566454,-10107.282662
84164.941459,1703.689691,114.855485,-9801.001370
84164.944009,2737.389054,650.847747,-9839.286531
84164.946559,2086.541307,727.418070,-10279.565890
84164.949109,95.712904,2277.967115,-9609.575562
84164.951659,-153.140646,1856.830338,-9781.858789
84164.954209,880.558717,2086.541307,-10202.995566
84164.956759,535.992262,1320.838075,-9915.856854
84164.959309,363.709035,-172.283227,-9992.427178
84164.961859,861.416136,1110.269686,-9839.286531
84164.964409,363.709035,880.558717,-10202.995566
84164.966959,306.281293,153.140646,-10356.136213
84164.969509,1052.841944,1359.123237,-9245.866526
84164.972059,267.996131,325.423874,-10011.569758
84164.974609,344.566454,535.992262,-10413.563955
84164.977159,650.847747,1339.980656,-9647.860723
84164.979709,918.843878,478.564520,-9820.143950
84164.982259,325.423874,382.851616,-10011.569758
84164.984809,478.564520,1225.125171,-9801.001370
84164.987359,287.138712,440.279358,-10049.854920
84164.989909,995.414202,1378.265818,-9839.286531
84164.992459,1282.552914,1110.269686,-9609.575562
84164.995009,784.845813,1014.556782,-9896.714274
84164.997559,669.990328,899.701298,-9724.431046
84165.000109,401.994197,1167.697429,-9877.571693
84165.002659,421.136778,1454.836141,-9934.999435
84165.005209,-95.712904,-191.425808,-9858.429112
84165.007759,-421.136778,1282.552914,-9801.001370
84165.010309,1339.980656,650.847747,-9801.001370
84165.012859,459.421939,325.423874,-10126.425243
84165.015409,95.712904,497.707101,-9934.999435
84165.017959,574.277424,727.418070,-9858.429112
84165.020509,1091.127106,937.986459,-9877.571693
84165.023058,631.705166,880.558717,-9801.001370
84165.025608,727.418070,1071.984525,-9820.143950
84165.028158,842.273555,899.701298,-9992.427178
84165.030708,727.418070,1225.125171,-9801.001370
84165.033258,191.425808,899.701298,-10068.997501
84165.035808,-306.281293,746.560651,-9858.429112
84165.038361,-650.847747,631.705166,-9820.143950
84165.040914,-344.566454,325.423874,-9954.142016
84165.043467,401.994197,-38.285162,-10183.852986
84165.046020,555.134843,172.283227,-10030.712339
84165.048573,650.847747,-172.283227,-10011.569758
84165.051126,612.562586,421.136778,-10011.569758
84165.053679,153.140646,1665.404530,-9934.999435
84165.056231,267.996131,229.710970,-10126.425243
84165.058784,861.416136,784.845813,-9705.288466
84165.061337,593.420005,765.703232,-9992.427178
84165.063890,57.427742,497.707101,-10413.563955
84165.066443,57.427742,478.564520,-9820.143950
84165.068996,344.566454,918.843878,-9705.288466
84165.071549,401.994197,-95.712904,-10413.563955
84165.074102,937.986459,1205.982590,-10164.710405
84165.076655,-210.568389,-57.427742,-9992.427178
84165.079207,-344.566454,267.996131,-9992.427178
84165.081760,918.843878,1205.982590,-9973.284597
84165.084313,401.994197,-784.845813,-10317.851051
84165.086866,-708.275490,516.849682,-10164.710405
84165.089419,344.566454,1071.984525,-9820.143950
84165.091972,95.712904,-133.998066,-10279.565890
84165.094525,-937.986459,1110.269686,-9992.427178
84165.097078,19.142581,-344.566454,-10068.997501
84165.099630,669.990328,267.996131,-10011.569758
84165.102183,1722.832272,-57.427742,-10049.854920
84165.104736,2565.105827,421.136778,-10011.569758
84165.107289,1722.832272,1071.984525,-10164.710405
84165.109842,191.425808,1646.261949,-9781.858789
84165.112395,95.712904,1818.545176,-9724.431046
84165.114948,631.705166,2431.107762,-9839.286531
84165.117501,861.416136,1359.123237,-9896.714274
84165.120054,363.709035,325.423874,-9877.571693
84165.122606,689.132909,1186.840010,-9705.288466
84165.125159,478.564520,401.994197,-10260.423309
84165.127712,478.564520,803.988394,-9801.001370
84165.130265,210.568389,899.701298,-9743.573627
84165.132818,1014.556782,210.568389,-9915.856854
84165.135371,401.994197,1569.691626,-9858.429112
84165.137924,459.421939,612.562586,-10068.997501
84165.140479,516.849682,325.423874,-9762.716208
84165.143035,574.277424,1435.693560,-9437.292334
84165.145590,133.998066,325.423874,-10279.565890
84165.148146,1091.127106,1320.838075,-9992.427178
84165.150701,899.701298,976.271621,-9801.001370
84165.153257,574.277424,861.416136,-9915.856854
84165.155812,861.416136,459.421939,-9915.856854
84165.158368,784.845813,1703.689691,-9762.716208
84165.160923,612.562586,1129.412267,-10145.567824
84165.163479,-306.281293,-95.712904,-10011.569758
84165.166034,-133.998066,1780.260014,-9513.862658
84165.168590,976.271621,57.427742,-9896.714274
84165.171145,382.851616,555.134843,-10145.567824
84165.173701,-382.851616,880.558717,-9762.716208
84165.176256,861.416136,957.129040,-9915.856854
84165.178812,995.414202,555.134843,-10145.567824
84165.181367,593.420005,823.130974,-9628.718142
84165.183923,669.990328,1014.556782,-9705.288466
84165.186478,1071.984525,918.843878,-10126.425243
84165.189034,708.275490,1205.982590,-9858.429112
84165.191589,535.992262,784.845813,-9820.143950
84165.194145,287.138712,937.986459,-9992.427178
84165.196700,-95.712904,823.130974,-9705.288466
84165.199256,-382.851616,440.279358,-10068.997501
84165.201811,-306.281293,306.281293,-10126.425243
84165.204367,248.853550,344.566454,-9954.142016
84165.206922,727.418070,153.140646,-9839.286531
84165.209478,555.134843,267.996131,-9858.429112
84165.212033,516.849682,1339.980656,-9858.429112
84165.214589,363.709035,267.996131,-10298.708470
84165.217144,478.564520,957.129040,-9724.431046
84165.219700,957.129040,937.986459,-10030.712339
84165.222255,-229.710970,-478.564520,-10241.280728
84165.224811,478.564520,2029.113565,-9360.722011
84165.227366,574.277424,19.142581,-9973.284597
84165.229922,535.992262,765.703232,-10088.140082
84165.232477,-153.140646,325.423874,-9858.429112
84165.235033,-153.140646,478.564520,-9934.999435
84165.237588,708.275490,593.420005,-9839.286531
84165.240144,-210.568389,-344.566454,-10030.712339
84165.242703,38.285162,1550.549045,-9724.431046
84165.245260,344.566454,-306.281293,-9954.142016
84165.247817,-421.136778,1244.267752,-9934.999435
84165.250375,-287.138712,38.285162,-9934.999435
84165.252932,133.998066,153.140646,-9954.142016
84165.255489,918.843878,631.705166,-9858.429112
84165.258047,1837.687757,-133.998066,-10011.569758
84165.260604,2201.396792,535.992262,-10049.854920
84165.263162,1856.830338,1186.840010,-9801.001370
84165.265719,-38.285162,976.271621,-9934.999435
84165.268276,440.279358,2277.967115,-9954.142016
84165.270834,746.560651,2316.252277,-9609.575562
84165.273391,497.707101,1416.550979,-9896.714274
84165.275948,612.562586,172.283227,-10107.282662
84165.278506,574.277424,1320.838075,-9513.862658
84165.281063,497.707101,382.851616,-10528.419440
84165.283621,689.132909,689.132909,-10049.854920
84165.286178,516.849682,1244.267752,-9494.720077
84165.288735,478.564520,-76.570323,-10222.138147
84165.291293,497.707101,803.988394,-10030.712339
84165.293850,612.562586,1359.123237,-9934.999435
84165.296408,363.709035,38.285162,-10356.136213
84165.298965,708.275490,1091.127106,-9647.860723
84165.301522,803.988394,497.707101,-9973.284597
84165.304080,535.992262,535.992262,-10222.138147
84165.306637,1167.697429,1665.404530,-9781.858789
84165.309194,497.707101,459.421939,-10049.854920
84165.311752,1091.127106,1416.550979,-9743.573627
84165.314309,535.992262,650.847747,-9820.143950
84165.316867,-38.285162,1320.838075,-9992.427178
84165.319424,650.847747,650.847747,-9954.142016
84165.321981,-133.998066,631.705166,-10068.997501
84165.324539,38.285162,899.701298,-10107.282662
84165.327096,612.562586,593.420005,-9609.575562
84165.329653,421.136778,555.134843,-9973.284597
84165.332211,382.851616,669.990328,-10088.140082
84165.334768,976.271621,918.843878,-9992.427178
84165.337326,555.134843,765.703232,-9820.143950
84165.339883,650.847747,1071.984525,-9839.286531
84165.342440,937.986459,631.705166,-10030.712339
84165.345000,708.275490,1186.840010,-9781.858789
84165.347559,287.138712,1052.841944,-9896.714274
84165.350118,191.425808,784.845813,-9877.571693
84165.352677,-344.566454,325.423874,-9954.142016
84165.355237,-440.279358,401.994197,-9915.856854
84165.357796,95.712904,267.996131,-10049.854920
84165.360355,631.705166,57.427742,-10049.854920
84165.362914,-38.285162,76.570323,-10011.569758
84165.365473,765.703232,650.847747,-9973.284597
84165.368033,421.136778,1397.408398,-9877.571693
84165.370592,306.281293,38.285162,-10011.569758
84165.373151,784.845813,957.129040,-9858.429112
84165.375710,76.570323,516.849682,-9934.999435
84165.378270,153.140646,803.988394,-10298.708470
84165.380829,497.707101,344.566454,-9877.571693
84165.383388,880.558717,1033.699363,-9609.575562
84165.385947,-248.853550,-516.849682,-10241.280728
84165.388507,153.140646,1148.554848,-9954.142016
84165.391066,440.279358,555.134843,-9762.716208
84165.393625,-248.853550,-1129.412267,-10432.706536
84165.396184,-459.421939,1761.117434,-9705.288466
84165.398743,344.566454,57.427742,-9839.286531
84165.401303,-421.136778,631.705166,-10336.993632
84165.403862,-191.425808,421.136778,-10126.425243
84165.406421,803.988394,-133.998066,-9801.001370
84165.408980,1129.412267,459.421939,-10049.854920
84165.411540,2086.541307,-306.281293,-10202.995566
84165.414099,1875.972918,382.851616,-10088.140082
84165.416658,1205.982590,1416.550979,-9858.429112
84165.419217,76.570323,1588.834206,-9762.716208
84165.421777,421.136778,1875.972918,-9954.142016
84165.424336,382.851616,1550.549045,-9801.001370
84165.426895,440.279358,1550.549045,-9954.142016
84165.429454,574.277424,-57.427742,-10088.140082
84165.432014,765.703232,842.273555,-9724.431046
84165.434573,229.710970,1186.840010,-10088.140082
84165.437132,593.420005,153.140646,-10145.567824
84165.439691,995.414202,957.129040,-9533.005238
84165.442250,574.277424,937.986459,-10030.712339
84165.444810,229.710970,765.703232,-10183.852986
84165.447371,459.421939,689.132909,-9954.142016
84165.449932,478.564520,803.988394,-9647.860723
84165.452492,440.279358,344.566454,-9896.714274
84165.455053,1263.410333,1205.982590,-10088.140082
84165.457614,765.703232,1052.841944,-9858.429112
84165.460175,535.992262,1071.984525,-9877.571693
84165.462736,1148.554848,823.130974,-9934.999435
84165.465297,803.988394,803.988394,-9877.571693
84165.467858,401.994197,1205.982590,-10126.425243
84165.470419,497.707101,-76.570323,-10011.569758
84165.472980,-76.570323,1301.695494,-9877.571693
84165.475541,765.703232,593.420005,-9954.142016
84165.478102,689.132909,191.425808,-10030.712339
84165.480663,-669.990328,1014.556782,-9724.431046
84165.483223,957.129040,899.701298,-9820.143950
84165.485784,995.414202,708.275490,-10222.138147
84165.488345,516.849682,880.558717,-9686.145885
84165.490906,459.421939,918.843878,-9762.716208
84165.493467,880.558717,669.990328,-10088.140082
84165.496028,708.275490,1014.556782,-9820.143950
84165.498589,229.710970,708.275490,-9954.142016
84165.501150,497.707101,746.560651,-10107.282662
84165.503711,229.710970,535.992262,-9628.718142
84165.506272,-344.566454,516.849682,-9915.856854
84165.508833,-401.994197,612.562586,-10049.854920
84165.511394,325.423874,382.851616,-9896.714274
84165.513954,172.283227,38.285162,-10107.282662
84165.516515,516.849682,1071.984525,-9839.286531
84165.519076,765.703232,937.986459,-9839.286531
84165.521637,229.710970,114.855485,-10030.712339
84165.524198,95.712904,1473.978722,-9571.290400
84165.526759,650.847747,421.136778,-10107.282662
84165.529321,267.996131,459.421939,-10222.138147
84165.531883,267.996131,1531.406464,-9418.149754
84165.534446,344.566454,363.709035,-9973.284597
84165.537008,-38.285162,459.421939,-9954.142016
84165.539570,-421.136778,861.416136,-9820.143950
84165.542132,555.134843,1416.550979,-10049.854920
84165.544694,0.000000,-708.275490,-10088.140082
84165.547256,-976.271621,1014.556782,-9686.145885
84165.549818,382.851616,784.845813,-9896.714274
84165.552381,861.416136,-38.285162,-10394.421374
84165.554943,842.273555,1186.840010,-9781.858789
84165.557505,1339.980656,-133.998066,-9877.571693
84165.560067,1435.693560,-19.142581,-9992.427178
84165.562629,918.843878,765.703232,-9820.143950
84165.565191,937.986459,937.986459,-9896.714274
84165.567753,1014.556782,1531.406464,-9954.142016
84165.570316,574.277424,1780.260014,-9743.573627
84165.572878,210.568389,1493.121302,-9858.429112
84165.575440,899.701298,1454.836141,-9743.573627
84165.578002,842.273555,440.279358,-9820.143950
84165.580564,191.425808,1052.841944,-9973.284597
84165.583126,689.132909,746.560651,-10298.708470
84165.585689,689.132909,689.132909,-9820.143950
84165.588251,191.425808,497.707101,-9743.573627
84165.590813,1014.556782,574.277424,-9973.284597
84165.593375,421.136778,1071.984525,-10049.854920
84165.595937,344.566454,574.277424,-10164.710405
84165.598499,689.132909,535.992262,-9820.143950
84165.601061,765.703232,344.566454,-9762.716208
84165.603624,516.849682,823.130974,-10183.852986
84165.606186,1244.267752,1071.984525,-10049.854920
84165.608748,555.134843,976.271621,-9954.142016
84165.611310,861.416136,535.992262,-9858.429112
84165.613872,612.562586,880.558717,-9839.286531
84165.616434,612.562586,1416.550979,-9705.288466
84165.618997,153.140646,-650.847747,-10872.985894
84165.621559,497.707101,1186.840010,-10470.991698
84165.624121,880.558717,1378.265818,-9801.001370
84165.626683,593.420005,-153.140646,-10049.854920
84165.629245,-899.701298,574.277424,-9686.145885
84165.631808,1186.840010,1282.552914,-9934.999435
84165.634371,1339.980656,248.853550,-10298.708470
84165.636935,133.998066,669.990328,-10030.712339
84165.639498,555.134843,612.562586,-9743.573627
84165.642061,1186.840010,516.849682,-10011.569758
84165.644624,421.136778,1512.263883,-10068.997501
84165.647187,325.423874,612.562586,-9801.001370
84165.649751,937.986459,746.560651,-9705.288466
84165.652314,-133.998066,1339.980656,-9513.862658
84165.654877,172.283227,880.558717,-9590.432981
84165.657440,363.709035,248.853550,-10049.854920
84165.660003,172.283227,669.990328,-9552.147819
84165.662567,267.996131,401.994197,-9705.288466
84165.665130,842.273555,842.273555,-10068.997501
84165.667693,497.707101,1014.556782,-9609.575562
84165.670256,76.570323,861.416136,-9820.143950
84165.672819,325.423874,248.853550,-10011.569758
84165.675383,669.990328,1129.412267,-9781.858789
84165.677946,650.847747,191.425808,-10068.997501
84165.680509,1071.984525,689.132909,-9820.143950
84165.683072,-133.998066,421.136778,-9686.145885
84165.685635,-535.992262,325.423874,-9992.427178
84165.688199,612.562586,1301.695494,-10088.140082
84165.690762,-382.851616,-669.990328,-10049.854920
84165.693325,-555.134843,1244.267752,-9705.288466
84165.695888,727.418070,612.562586,-9858.429112
84165.698451,1033.699363,689.132909,-10317.851051
84165.701015,708.275490,516.849682,-9973.284597
84165.703578,1397.408398,401.994197,-10222.138147
84165.706141,1129.412267,861.416136,-9992.427178
84165.708704,574.277424,1091.127106,-9973.284597
84165.711267,535.992262,1454.836141,-9915.856854
84165.713830,746.560651,1397.408398,-9820.143950
84165.716394,727.418070,1493.121302,-9992.427178
84165.718957,267.996131,1167.697429,-9934.999435
84165.721520,574.277424,153.140646,-9647.860723
84165.724083,574.277424,899.701298,-9820.143950
84165.726646,421.136778,1014.556782,-10222.138147
84165.729210,382.851616,535.992262,-9973.284597
84165.731773,823.130974,382.851616,-9533.005238
84165.734337,574.277424,1320.838075,-9724.431046
84165.736901,421.136778,803.988394,-10394.421374
84165.739466,708.275490,593.420005,-9954.142016
84165.742030,535.992262,1167.697429,-9360.722011
84165.744594,593.420005,344.566454,-10068.997501
84165.747159,976.271621,593.420005,-10107.282662
84165.749723,306.281293,1148.554848,-9781.858789
84165.752287,708.275490,823.130974,-10126.425243
84165.754852,612.562586,-114.855485,-9858.429112
84165.757416,995.414202,1990.828403,-9686.145885
84165.759980,861.416136,325.423874,-10088.140082
84165.762545,-267.996131,880.558717,-10049.854920
84165.765109,497.707101,1971.685822,-9686.145885
84165.767673,172.283227,38.285162,-10068.997501
84165.770238,153.140646,957.129040,-9858.429112
84165.772802,555.134843,823.130974,-9705.288466
84165.775366,612.562586,421.136778,-10030.712339
84165.777930,248.853550,669.990328,-10279.565890
84165.780495,727.418070,957.129040,-9724.431046
84165.783059,555.134843,746.560651,-9877.571693
84165.785623,574.277424,574.277424,-9992.427178
84165.788188,516.849682,478.564520,-9973.284597
84165.790752,210.568389,708.275490,-10088.140082
84165.793316,459.421939,574.277424,-9858.429112
84165.795881,267.996131,287.138712,-9858.429112
84165.798445,95.712904,401.994197,-10030.712339
84165.801009,95.712904,401.994197,-10088.140082
84165.803574,555.134843,516.849682,-10068.997501
84165.806138,363.709035,612.562586,-10030.712339
84165.808702,631.705166,823.130974,-9743.573627
84165.811267,535.992262,899.701298,-9781.858789
84165.813831,516.849682,344.566454,-10241.280728
84165.816395,114.855485,478.564520,-10145.567824
84165.818959,555.134843,1684.547110,-9934.999435
84165.821524,325.423874,38.285162,-9954.142016
84165.824088,593.420005,1454.836141,-9322.436850
84165.826652,-325.423874,-133.998066,-10145.567824
84165.829217,-440.279358,631.705166,-10317.851051
84165.831781,535.992262,1378.265818,-9954.142016
84165.834345,0.000000,-765.703232,-10164.710405
84165.836894,325.423874,1186.840010,-9590.432981
84165.839442,1091.127106,-133.998066,-9724.431046
84165.841990,1301.695494,612.562586,-10145.567824
84165.844538,861.416136,555.134843,-10260.423309
84165.847087,842.273555,478.564520,-9839.286531
84165.849635,497.707101,650.847747,-9762.716208
84165.852183,421.136778,574.277424,-9628.718142
84165.854731,191.425808,1320.838075,-9992.427178
84165.857279,650.847747,1071.984525,-10222.138147
84165.859828,765.703232,1359.123237,-9954.142016
84165.862376,555.134843,1378.265818,-9628.718142
84165.864924,650.847747,612.562586,-9724.431046
84165.867472,861.416136,535.992262,-9954.142016
84165.870021,401.994197,1416.550979,-10183.852986
84165.872569,459.421939,612.562586,-10336.993632
84165.875117,689.132909,287.138712,-9724.431046
84165.877665,210.568389,1378.265818,-9552.147819
84165.880214,267.996131,191.425808,-10375.278794
84165.882762,708.275490,937.986459,-10183.852986
84165.885310,650.847747,1512.263883,-9877.571693
84165.887858,76.570323,-38.285162,-10107.282662
84165.890407,823.130974,1301.695494,-9762.716208
84165.892955,1186.840010,937.986459,-9667.003304
84165.895503,631.705166,727.418070,-10260.423309
84165.898051,784.845813,899.701298,-10164.710405
84165.900599,1014.556782,1397.408398,-9552.147819
84165.903148,612.562586,746.560651,-9877.571693
84165.905696,-229.710970,38.285162,-9877.571693
84165.908244,153.140646,2163.111630,-9743.573627
84165.910792,1033.699363,535.992262,-10279.565890
84165.913341,555.134843,421.136778,-9858.429112
84165.915889,-363.709035,612.562586,-9456.434915
84165.918437,1091.127106,823.130974,-9686.145885
84165.920985,650.847747,344.566454,-10298.708470
84165.923534,306.281293,1167.697429,-9877.571693
84165.926082,669.990328,631.705166,-9762.716208
84165.928630,516.849682,267.996131,-9954.142016
84165.931178,363.709035,440.279358,-9667.003304
84165.933727,-57.427742,516.849682,-9973.284597
84165.936275,248.853550,976.271621,-10088.140082
84165.938826,650.847747,421.136778,-9781.858789
84165.941377,-133.998066,344.566454,-9877.571693
84165.943928,306.281293,880.558717,-9724.431046
84165.946479,880.558717,727.418070,-9858.429112
84165.949030,306.281293,555.134843,-10126.425243
84165.951581,229.710970,1071.984525,-9686.145885
84165.954132,669.990328,976.271621,-9858.429112
84165.956683,57.427742,-382.851616,-10049.854920
84165.959234,172.283227,1493.121302,-9686.145885
84165.961785,344.566454,459.421939,-10336.993632
84165.964337,861.416136,555.134843,-10049.854920
84165.966888,-574.277424,478.564520,-9801.001370
84165.969439,-287.138712,497.707101,-9954.142016
84165.971990,937.986459,497.707101,-10068.997501
84165.974541,-306.281293,57.427742,-10202.995566
84165.977092,612.562586,1282.552914,-9801.001370
84165.979643,1397.408398,-478.564520,-9896.714274
84165.982194,1244.267752,421.136778,-10126.425243
84165.984745,440.279358,401.994197,-10068.997501
84165.987296,918.843878,555.134843,-10126.425243
84165.989847,382.851616,1225.125171,-9839.286531
84165.992398,363.709035,535.992262,-10011.569758
84165.994949,650.847747,1052.841944,-10107.282662
84165.997500,823.130974,976.271621,-9820.143950
84166.000052,689.132909,976.271621,-9954.142016
84166.002603,727.418070,937.986459,-10030.712339
84166.005154,861.416136,1052.841944,-9647.860723
84166.007705,344.566454,669.990328,-10049.854920
84166.010256,421.136778,459.421939,-10145.567824
84166.012807,765.703232,1512.263883,-9762.716208
84166.015358,401.994197,114.855485,-10336.993632
84166.017909,555.134843,842.273555,-9781.858789
84166.020460,631.705166,1110.269686,-9494.720077
84166.023011,401.994197,344.566454,-10356.136213
84166.025562,497.707101,861.416136,-10068.997501
84166.028113,1378.265818,1148.554848,-9590.432981
84166.030664,555.134843,-76.570323,-10241.280728
84166.033215,765.703232,1416.550979,-9801.001370
84166.035766,478.564520,363.709035,-9801.001370
84166.038318,1148.554848,1665.404530,-10011.569758
84166.040871,727.418070,612.562586,-10049.854920
84166.043425,-133.998066,1186.840010,-9609.575562
84166.045979,689.132909,1244.267752,-9705.288466
84166.048532,76.570323,325.423874,-10183.852986
84166.051086,0.000000,1244.267752,-10222.138147
84166.053640,535.992262,727.418070,-9705.288466
84166.056194,401.994197,-38.285162,-9992.427178
84166.058747,19.142581,880.558717,-9820.143950
84166.061301,535.992262,937.986459,-9877.571693
84166.063855,516.849682,650.847747,-10049.854920
84166.066409,153.140646,937.986459,-9992.427178
84166.068962,708.275490,555.134843,-9915.856854
84166.071516,57.427742,344.566454,-9992.427178
84166.074070,133.998066,555.134843,-9954.142016
84166.076624,516.849682,497.707101,-10068.997501
84166.079177,363.709035,842.273555,-10145.567824
84166.081731,516.849682,555.134843,-9896.714274
84166.084285,612.562586,401.994197,-9934.999435
84166.086838,421.136778,1091.127106,-9781.858789
84166.089392,650.847747,401.994197,-10126.425243
84166.091946,153.140646,267.996131,-10164.710405
84166.094500,650.847747,1339.980656,-9628.718142
84166.097053,76.570323,133.998066,-10241.280728
84166.099607,363.709035,593.420005,-9934.999435
84166.102161,746.560651,1282.552914,-9571.290400
84166.104715,-516.849682,-95.712904,-10336.993632
84166.107268,-574.277424,689.132909,-10011.569758
84166.109822,1091.127106,1627.119368,-9590.432981
84166.112376,267.996131,-995.414202,-10202.995566
84166.114930,114.855485,1071.984525,-9858.429112
84166.117483,1225.125171,746.560651,-9628.718142
84166.120037,1110.269686,267.996131,-10375.278794
84166.122591,306.281293,689.132909,-10145.567824
84166.125144,803.988394,689.132909,-9628.718142
84166.127698,287.138712,995.414202,-9820.143950
84166.130252,229.710970,861.416136,-9992.427178
84166.132806,631.705166,1282.552914,-9877.571693
84166.135359,880.558717,937.986459,-9877.571693
84166.137913,574.277424,803.988394,-9839.286531
84166.140467,880.558717,1301.695494,-9590.432981
84166.143023,746.560651,440.279358,-9915.856854
84166.145579,248.853550,880.558717,-10049.854920
84166.148135,784.845813,1186.840010,-9934.999435
84166.150691,612.562586,133.998066,-10030.712339
84166.153248,401.994197,1339.980656,-9820.143950
84166.155804,363.709035,650.847747,-10145.567824
84166.158360,669.990328,478.564520,-9992.427178
84166.160916,516.849682,1225.125171,-9934.999435
84166.163472,727.418070,440.279358,-9954.142016
84166.166028,823.130974,574.277424,-9858.429112
84166.168585,918.843878,1071.984525,-9781.858789
84166.171141,631.705166,689.132909,-10107.282662
84166.173697,1205.982590,746.560651,-9992.427178
84166.176253,880.558717,535.992262,-9973.284597
84166.178809,-153.140646,1205.982590,-9839.286531
84166.181365,957.129040,516.849682,-10030.712339
84166.183921,-153.140646,689.132909,-10164.710405
84166.186478,267.996131,1225.125171,-10107.282662
84166.189034,842.273555,267.996131,-9992.427178
84166.191590,-478.564520,535.992262,-9954.142016
84166.194146,784.845813,803.988394,-9781.858789
84166.196702,976.271621,-95.712904,-10317.851051
84166.199258,-57.427742,842.273555,-9858.429112
84166.201814,38.285162,516.849682,-9915.856854
84166.204371,459.421939,478.564520,-10011.569758
84166.206927,478.564520,784.845813,-9743.573627
84166.209483,38.285162,574.277424,-9973.284597
84166.212039,382.851616,555.134843,-10336.993632
84166.214595,612.562586,784.845813,-9781.858789
84166.217151,0.000000,574.277424,-9915.856854
84166.219707,631.705166,555.134843,-10011.569758
84166.222264,765.703232,899.701298,-9628.718142
84166.224820,555.134843,669.990328,-9992.427178
84166.227376,-382.851616,421.136778,-10088.140082
84166.229932,899.701298,1225.125171,-9571.290400
84166.232488,191.425808,172.283227,-10049.854920
84166.235044,153.140646,1033.699363,-9973.284597
84166.237600,708.275490,1071.984525,-9781.858789
84166.240157,-306.281293,153.140646,-10126.425243
84166.242713,-497.707101,727.418070,-9973.284597
84166.245262,937.986459,1473.978722,-9762.716208
84166.247803,650.847747,-574.277424,-10030.712339
84166.250345,-153.140646,842.273555,-9801.001370
84166.252886,1129.412267,957.129040,-9839.286531
84166.255427,1263.410333,459.421939,-10222.138147
84166.257969,153.140646,880.558717,-9858.429112
84166.260510,689.132909,650.847747,-9801.001370
84166.263051,669.990328,957.129040,-9934.999435
84166.265593,325.423874,937.986459,-10030.712339
84166.268134,382.851616,1033.699363,-9934.999435
84166.270675,918.843878,976.271621,-9877.571693
84166.273216,861.416136,937.986459,-9781.858789
84166.275758,478.564520,727.418070,-9934.999435
84166.278299,784.845813,555.134843,-9973.284597
84166.280840,459.421939,1148.554848,-9820.143950
84166.283382,401.994197,899.701298,-9973.284597
84166.285923,650.847747,344.566454,-9915.856854
84166.288464,593.420005,1186.840010,-9628.718142
84166.291006,306.281293,459.421939,-10202.995566
84166.293547,708.275490,535.992262,-10068.997501
84166.296088,325.423874,746.560651,-9820.143950
84166.298630,899.701298,1071.984525,-9896.714274
84166.301171,1052.841944,401.994197,-10030.712339
84166.303712,784.845813,1186.840010,-9762.716208
84166.306253,325.423874,172.283227,-10011.569758
84166.308795,1550.549045,1607.976787,-9896.714274
84166.311336,937.986459,555.134843,-9934.999435
84166.313877,-344.566454,38.285162,-9915.856854
84166.316419,57.427742,1895.115499,-9877.571693
84166.318960,1014.556782,478.564520,-9877.571693
84166.321501,-38.285162,784.845813,-10088.140082
84166.324043,133.998066,765.703232,-9896.714274
84166.326584,937.986459,0.000000,-9801.001370
84166.329125,-210.568389,708.275490,-9973.284597
84166.331667,708.275490,746.560651,-10049.854920
84166.334208,669.990328,593.420005,-9896.714274
84166.336749,-19.142581,593.420005,-9973.284597
84166.339290,172.283227,880.558717,-9839.286531
84166.341832,631.705166,535.992262,-9973.284597
84166.344373,191.425808,650.847747,-9954.142016
84166.346918,210.568389,937.986459,-9839.286531
84166.349464,899.701298,478.564520,-9992.427178
84166.352009,191.425808,401.994197,-9858.429112
84166.354555,382.851616,918.843878,-9839.286531
84166.357100,937.986459,918.843878,-10030.712339
84166.359645,-95.712904,229.710970,-9973.284597
84166.362191,306.281293,1703.689691,-9647.860723
84166.364736,344.566454,76.570323,-10088.140082
84166.367282,497.707101,899.701298,-9820.143950
84166.369827,114.855485,1263.410333,-9667.003304
84166.372372,0.000000,363.709035,-10011.569758
84166.374918,-287.138712,478.564520,-10030.712339
84166.377463,842.273555,1416.550979,-9877.571693
84166.380009,401.994197,-669.990328,-10222.138147
84166.382554,344.566454,1110.269686,-9743.573627
84166.385099,803.988394,1205.982590,-9801.001370
84166.387645,1014.556782,669.990328,-10126.425243
84166.390190,574.277424,842.273555,-9954.142016
84166.392736,478.564520,765.703232,-9839.286531
84166.395281,344.566454,957.129040,-10030.712339
84166.397826,803.988394,765.703232,-9973.284597
84166.400372,478.564520,1014.556782,-10030.712339
84166.402917,650.847747,784.845813,-9896.714274
84166.405463,784.845813,497.707101,-9858.429112
84166.408008,593.420005,1301.695494,-9743.573627
84166.410553,401.994197,555.134843,-9954.142016
84166.413099,689.132909,899.701298,-10088.140082
84166.415644,497.707101,1033.699363,-9992.427178
84166.418190,133.998066,306.281293,-9973.284597
84166.420735,899.701298,842.273555,-9915.856854
84166.423280,631.705166,880.558717,-9992.427178
84166.425826,248.853550,555.134843,-10107.282662
84166.428371,861.416136,1014.556782,-9762.716208
84166.430917,689.132909,459.421939,-9954.142016
84166.433462,765.703232,803.988394,-10145.567824
84166.436007,497.707101,708.275490,-9934.999435
84166.438553,1282.552914,1244.267752,-9820.143950
84166.441098,727.418070,287.138712,-10241.280728
84166.443643,421.136778,1359.123237,-10011.569758
84166.446189,555.134843,248.853550,-9724.431046
84166.448738,-535.992262,880.558717,-10107.282662
84166.451286,19.142581,1493.121302,-10107.282662
84166.453835,899.701298,555.134843,-9801.001370
84166.456384,-363.709035,401.994197,-9992.427178
84166.458933,440.279358,1052.841944,-9762.716208
84166.461481,957.129040,57.427742,-9954.142016
84166.464030,0.000000,803.988394,-10030.712339
84166.466579,325.423874,823.130974,-9801.001370
84166.469128,191.425808,459.421939,-9915.856854
84166.471676,516.849682,631.705166,-9877.571693
84166.474225,363.709035,861.416136,-9839.286531
84166.476774,172.283227,937.986459,-10068.997501
84166.479323,497.707101,421.136778,-9858.429112
84166.481871,459.421939,1282.552914,-9743.573627
84166.484420,401.994197,478.564520,-9915.856854
84166.486969,918.843878,478.564520,-9820.143950
84166.489518,-153.140646,669.990328,-9801.001370
84166.492066,306.281293,784.845813,-9954.142016
84166.494615,497.707101,114.855485,-9954.142016
84166.497164,306.281293,1454.836141,-9743.573627
84166.499713,248.853550,669.990328,-9973.284597
84166.502261,191.425808,401.994197,-10030.712339
84166.504810,-344.566454,861.416136,-9954.142016
84166.507359,803.988394,1148.554848,-9973.284597
84166.509908,803.988394,114.855485,-10068.997501
84166.512456,248.853550,689.132909,-9743.573627
84166.515005,708.275490,803.988394,-9858.429112
84166.517554,1320.838075,708.275490,-10241.280728
84166.520103,287.138712,823.130974,-9934.999435
84166.522651,344.566454,459.421939,-9915.856854
84166.525200,746.560651,918.843878,-10222.138147
84166.527749,593.420005,899.701298,-9896.714274
84166.530298,287.138712,937.986459,-10030.712339
84166.532846,516.849682,727.418070,-9915.856854
84166.535395,1033.699363,995.414202,-9801.001370
84166.537944,440.279358,574.277424,-10030.712339
84166.540493,306.281293,689.132909,-9877.571693
84166.543041,1071.984525,1205.982590,-9839.286531
84166.545590,76.570323,19.142581,-10394.421374
84166.548139,248.853550,1129.412267,-9705.288466
84166.550691,918.843878,823.130974,-9801.001370
84166.553242,248.853550,229.710970,-10279.565890
84166.555794,19.142581,1052.841944,-9628.718142
84166.558346,1148.554848,1301.695494,-9896.714274
84166.560898,842.273555,210.568389,-10145.567824
84166.563450,421.136778,1339.980656,-9533.005238
84166.566002,593.420005,267.996131,-9839.286531
84166.568553,1512.263883,1512.263883,-9896.714274
84166.571105,746.560651,765.703232,-9877.571693
84166.573657,-287.138712,1071.984525,-9762.716208
84166.576209,555.134843,1550.549045,-9628.718142
84166.578761,574.277424,267.996131,-9934.999435
84166.581313,-133.998066,1129.412267,-9973.284597
84166.583864,593.420005,746.560651,-9686.145885
84166.586416,516.849682,-76.570323,-10049.854920
84166.588968,-38.285162,1167.697429,-9801.001370
84166.591520,1052.841944,497.707101,-9743.573627
84166.594072,363.709035,669.990328,-10011.569758
84166.596624,-38.285162,957.129040,-9781.858789
84166.599175,803.988394,612.562586,-9762.716208
84166.601727,535.992262,631.705166,-9954.142016
84166.604279,0.000000,612.562586,-9954.142016
84166.606831,459.421939,574.277424,-9934.999435
84166.609383,669.990328,899.701298,-9858.429112
84166.611935,133.998066,593.420005,-9954.142016
84166.614486,842.273555,459.421939,-10011.569758
84166.617038,229.710970,1320.838075,-9705.288466
84166.619590,210.568389,478.564520,-10107.282662
84166.622142,612.562586,440.279358,-10049.854920
84166.624694,555.134843,1378.265818,-9686.145885
84166.627246,382.851616,555.134843,-10164.710405
84166.629797,-401.994197,459.421939,-9992.427178
84166.632349,57.427742,1033.699363,-9801.001370
84166.634901,937.986459,535.992262,-10222.138147
84166.637453,114.855485,-153.140646,-10317.851051
84166.640005,708.275490,1512.263883,-9590.432981
84166.642557,976.271621,-478.564520,-10126.425243
84166.645108,1014.556782,842.273555,-10260.423309
84166.647660,861.416136,669.990328,-9954.142016
84166.650212,478.564520,708.275490,-10011.569758
84166.652767,363.709035,1129.412267,-9973.284597
84166.655321,650.847747,765.703232,-9877.571693
84166.657876,459.421939,957.129040,-10011.569758
84166.660431,727.418070,803.988394,-9858.429112
84166.662985,669.990328,823.130974,-9781.858789
84166.665540,574.277424,823.130974,-9877.571693
84166.668095,421.136778,842.273555,-9801.001370
84166.670649,631.705166,1052.841944,-9896.714274
84166.673204,555.134843,229.710970,-9934.999435
84166.675759,401.994197,1167.697429,-9647.860723
84166.678313,612.562586,899.701298,-9934.999435
84166.680868,459.421939,191.425808,-9934.999435
84166.683423,153.140646,1148.554848,-9571.290400
84166.685977,1052.841944,1148.554848,-9896.714274
84166.688532,823.130974,153.140646,-9934.999435
84166.691087,363.709035,1493.121302,-9533.005238
84166.693641,631.705166,287.138712,-9877.571693
84166.696196,1301.695494,1052.841944,-10030.712339
84166.698751,861.416136,1129.412267,-9954.142016
84166.701305,-382.851616,248.853550,-9801.001370
84166.703860,287.138712,1588.834206,-9705.288466
84166.706415,593.420005,421.136778,-9915.856854
84166.708969,-95.712904,995.414202,-9934.999435
84166.711524,535.992262,861.416136,-9877.571693
84166.714078,555.134843,19.142581,-9973.284597
84166.716633,-57.427742,382.851616,-9973.284597
84166.719188,708.275490,823.130974,-10088.140082
84166.721742,650.847747,631.705166,-9877.571693
84166.724297,19.142581,880.558717,-9973.284597
84166.726852,823.130974,478.564520,-9954.142016
84166.729406,440.279358,555.134843,-9896.714274
84166.731961,38.285162,727.418070,-9934.999435
84166.734518,535.992262,516.849682,-10088.140082
84166.737075,535.992262,1110.269686,-9877.571693
84166.739632,210.568389,478.564520,-10030.712339
84166.742188,229.710970,861.416136,-9839.286531
84166.744745,555.134843,708.275490,-9858.429112
84166.747302,287.138712,612.562586,-10183.852986
84166.749859,325.423874,459.421939,-10145.567824
84166.752416,1052.841944,995.414202,-9571.290400
84166.754972,-76.570323,153.140646,-10088.140082
84166.757529,-19.142581,765.703232,-9896.714274
84166.760086,153.140646,669.990328,-9801.001370
84166.762643,38.285162,382.851616,-10126.425243
84166.765200,535.992262,1416.550979,-9552.147819
84166.767757,918.843878,-19.142581,-9705.288466
84166.770313,401.994197,1263.410333,-9858.429112
84166.772870,899.701298,1167.697429,-9781.858789
84166.775427,861.416136,1014.556782,-9801.001370
84166.777984,95.712904,727.418070,-9762.716208
84166.780541,306.281293,784.845813,-9839.286531
84166.783097,842.273555,899.701298,-9820.143950
84166.785654,823.130974,1014.556782,-9743.573627
84166.788211,363.709035,995.414202,-9858.429112
84166.790768,669.990328,937.986459,-9839.286531
84166.793325,784.845813,535.992262,-9762.716208
84166.795881,421.136778,1167.697429,-9724.431046
84166.798438,478.564520,918.843878,-9973.284597
84166.800995,708.275490,344.566454,-9973.284597
84166.803552,229.710970,1052.841944,-9724.431046
84166.806109,555.134843,1052.841944,-9915.856854
84166.808666,440.279358,153.140646,-10030.712339
84166.811222,784.845813,1569.691626,-9628.718142
84166.813779,669.990328,497.707101,-9992.427178
84166.816336,784.845813,650.847747,-10049.854920
84166.818893,401.994197,650.847747,-9705.288466
84166.821450,1110.269686,1416.550979,-9743.573627
84166.824006,1301.695494,363.709035,-10049.854920
84166.826563,-574.277424,899.701298,-9705.288466
84166.829120,229.710970,1665.404530,-9743.573627
84166.831677,708.275490,-38.285162,-10088.140082
84166.834234,210.568389,1014.556782,-9915.856854
84166.836793,-76.570323,937.986459,-9781.858789
84166.839351,784.845813,-153.140646,-10030.712339
84166.841910,191.425808,1186.840010,-9858.429112
84166.844469,421.136778,497.707101,-9992.427178
84166.847028,937.986459,478.564520,-10202.995566
84166.849587,210.568389,823.130974,-9820.143950
84166.852146,133.998066,574.277424,-9839.286531
84166.854704,784.845813,478.564520,-10241.280728
84166.857263,861.416136,918.843878,-9858.429112
84166.859822,76.570323,593.420005,-10011.569758
84166.862381,382.851616,497.707101,-10068.997501
84166.864940,1014.556782,918.843878,-9705.288466
84166.867499,-306.281293,306.281293,-10126.425243
84166.870058,440.279358,861.416136,-9896.714274
84166.872616,669.990328,1091.127106,-9801.001370
84166.875175,114.855485,401.994197,-10336.993632
84166.877734,440.279358,1244.267752,-9590.432981
84166.880293,95.712904,325.423874,-9858.429112
84166.882852,-344.566454,574.277424,-10011.569758
84166.885411,803.988394,1205.982590,-9915.856854
84166.887969,421.136778,-76.570323,-10088.140082
84166.890528,421.136778,880.558717,-9762.716208
84166.893087,784.845813,497.707101,-9877.571693
84166.895646,1244.267752,593.420005,-10049.854920
84166.898205,344.566454,440.279358,-10107.282662
84166.900764,382.851616,1129.412267,-9820.143950
84166.903322,650.847747,842.273555,-9801.001370
84166.905881,382.851616,516.849682,-9896.714274
84166.908440,287.138712,1129.412267,-9992.427178
84166.910999,880.558717,1129.412267,-9858.429112
84166.913558,918.843878,191.425808,-10088.140082
84166.916117,382.851616,1148.554848,-9877.571693
84166.918676,612.562586,401.994197,-9839.286531
84166.921234,899.701298,574.277424,-10049.854920
84166.923793,325.423874,727.418070,-10107.282662
84166.926352,344.566454,669.990328,-9858.429112
84166.928911,765.703232,382.851616,-10068.997501
84166.931470,133.998066,708.275490,-9973.284597
84166.934029,976.271621,1282.552914,-9877.571693
84166.936587,918.843878,401.994197,-10260.423309
84166.939148,555.134843,1129.412267,-9705.288466
84166.941709,57.427742,363.709035,-9877.571693
84166.944270,1588.834206,1397.408398,-10030.712339
84166.946830,1014.556782,574.277424,-9820.143950
84166.949391,-535.992262,765.703232,-9820.143950
84166.951952,689.132909,1493.121302,-9954.142016
84166.954512,267.996131,114.855485,-10011.569758
84166.957073,-248.853550,1186.840010,-9877.571693
84166.959634,363.709035,937.986459,-9743.573627
84166.962194,459.421939,153.140646,-9877.571693
84166.964755,-76.570323,1167.697429,-9915.856854
84166.967316,689.132909,497.707101,-9954.142016
84166.969877,478.564520,880.558717,-9801.001370
84166.972437,38.285162,784.845813,-9858.429112
84166.974998,555.134843,708.275490,-9877.571693
84166.977559,650.847747,899.701298,-9839.286531
84166.980119,401.994197,708.275490,-9877.571693
84166.982680,210.568389,880.558717,-9705.288466
84166.985241,535.992262,899.701298,-9839.286531
84166.987801,650.847747,612.562586,-9839.286531
84166.990362,19.142581,516.849682,-9877.571693
84166.992923,650.847747,1454.836141,-9781.858789
84166.995484,325.423874,248.853550,-10068.997501
84166.998044,153.140646,1320.838075,-9743.573627
84167.000605,976.271621,1091.127106,-9801.001370
84167.003166,229.710970,401.994197,-9915.856854
84167.005726,-516.849682,937.986459,-10088.140082
84167.008287,1091.127106,1359.123237,-9820.143950
84167.010848,574.277424,-593.420005,-10183.852986
84167.013409,114.855485,1320.838075,-9877.571693
84167.015969,1148.554848,382.851616,-9820.143950
84167.018530,1473.978722,325.423874,-10145.567824
84167.021091,76.570323,708.275490,-10049.854920
84167.023651,708.275490,957.129040,-9686.145885
84167.026212,650.847747,478.564520,-10222.138147
84167.028773,516.849682,918.843878,-9992.427178
84167.031333,229.710970,937.986459,-9915.856854
84167.033894,1091.127106,440.279358,-10126.425243
84167.036455,574.277424,957.129040,-9858.429112
84167.039016,248.853550,612.562586,-9858.429112
84167.041578,1186.840010,344.566454,-10030.712339
84167.044140,325.423874,1071.984525,-9954.142016
84167.046702,440.279358,574.277424,-10011.569758
84167.049264,650.847747,440.279358,-9839.286531
84167.051826,574.277424,937.986459,-9954.142016
84167.054388,574.277424,516.849682,-10183.852986
84167.056950,669.990328,631.705166,-10030.712339
84167.059512,1167.697429,957.129040,-9781.858789
84167.062074,401.994197,267.996131,-10049.854920
84167.064636,861.416136,765.703232,-10030.712339
84167.067198,1052.841944,1033.699363,-9781.858789
84167.069760,631.705166,689.132909,-10107.282662
84167.072322,114.855485,76.570323,-9973.284597
84167.074884,-229.710970,995.414202,-9934.999435
84167.077446,382.851616,727.418070,-10068.997501
84167.080008,401.994197,650.847747,-9954.142016
84167.082570,210.568389,1129.412267,-9743.573627
84167.085132,612.562586,133.998066,-10088.140082
84167.087694,153.140646,842.273555,-9992.427178
84167.090256,689.132909,823.130974,-9801.001370
84167.092818,555.134843,421.136778,-9973.284597
84167.095380,172.283227,1033.699363,-9877.571693
84167.097942,516.849682,861.416136,-9915.856854
84167.100504,765.703232,325.423874,-9934.999435
84167.103066,114.855485,957.129040,-9934.999435
84167.105628,459.421939,880.558717,-9934.999435
84167.108190,918.843878,440.279358,-9781.858789
84167.110752,-172.283227,880.558717,-9705.288466
84167.113315,593.420005,1129.412267,-9896.714274
84167.115877,363.709035,267.996131,-9934.999435
84167.118439,172.283227,1512.263883,-9705.288466
84167.121001,459.421939,650.847747,-9915.856854
84167.123563,76.570323,38.285162,-9896.714274
84167.126125,-306.281293,1320.838075,-9839.286531
84167.128687,842.273555,669.990328,-10164.710405
84167.131249,229.710970,-133.998066,-10222.138147
84167.133811,459.421939,1722.832272,-9647.860723
84167.136373,976.271621,-421.136778,-10049.854920
84167.138935,899.701298,727.418070,-9915.856854
84167.141497,803.988394,1071.984525,-9820.143950
84167.144060,535.992262,765.703232,-9858.429112
84167.146624,784.845813,669.990328,-10049.854920
84167.149187,382.851616,765.703232,-9934.999435
84167.151751,325.423874,708.275490,-9896.714274
84167.154314,1071.984525,1091.127106,-10011.569758
84167.156877,459.421939,593.420005,-10030.712339
84167.159441,210.568389,1014.556782,-9839.286531
84167.162004,1129.412267,421.136778,-9954.142016
84167.164568,727.418070,1339.980656,-9743.573627
84167.167131,267.996131,421.136778,-10202.995566
84167.169694,497.707101,976.271621,-9839.286531
84167.172258,555.134843,918.843878,-9801.001370
84167.174821,803.988394,497.707101,-10068.997501
84167.177385,267.996131,708.275490,-10068.997501
84167.179948,1148.554848,1071.984525,-9781.858789
84167.182511,344.566454,57.427742,-10107.282662
84167.185075,803.988394,1110.269686,-9992.427178
84167.187638,1033.699363,229.710970,-9973.284597
84167.190202,287.138712,957.129040,-10011.569758
84167.192765,382.851616,823.130974,-9877.571693
84167.195328,-76.570323,842.273555,-9934.999435
84167.197892,421.136778,976.271621,-10088.140082
84167.200455,421.136778,612.562586,-9915.856854
84167.203019,76.570323,1129.412267,-9839.286531
84167.205582,382.851616,229.710970,-9954.142016
84167.208145,248.853550,803.988394,-10068.997501
84167.210709,593.420005,861.416136,-10011.569758
84167.213272,555.134843,440.279358,-9781.858789
84167.215836,306.281293,918.843878,-9743.573627
84167.218399,344.566454,842.273555,-9877.571693
84167.220962,650.847747,478.564520,-9877.571693
84167.223526,191.425808,1014.556782,-9839.286531
84167.226089,478.564520,1052.841944,-9858.429112
84167.228653,440.279358,344.566454,-9781.858789
84167.231216,267.996131,1186.840010,-9552.147819
84167.233779,535.992262,1014.556782,-10049.854920
84167.236343,708.275490,382.851616,-9973.284597
84167.238906,535.992262,1339.980656,-9647.860723
84167.241470,-114.855485,172.283227,-10011.569758
84167.244033,382.851616,689.132909,-9877.571693
84167.246600,-306.281293,937.986459,-9743.573627
84167.249165,727.418070,1129.412267,-9973.284597
84167.251729,1014.556782,-19.142581,-10030.712339
84167.254293,19.142581,995.414202,-9801.001370
84167.256858,612.562586,650.847747,-9743.573627
84167.259422,1493.121302,918.843878,-10049.854920
84167.261986,516.849682,631.705166,-10068.997501
84167.264551,114.855485,784.845813,-9781.858789
84167.267115,899.701298,535.992262,-10088.140082
84167.269679,669.990328,765.703232,-9915.856854
84167.272243,172.283227,1014.556782,-9973.284597
84167.274808,1282.552914,784.845813,-10088.140082
84167.277372,669.990328,631.705166,-9915.856854
84167.279936,57.427742,478.564520,-9915.856854
84167.282501,401.994197,937.986459,-10068.997501
84167.285065,957.129040,937.986459,-9896.714274
84167.287629,19.142581,325.423874,-10183.852986
84167.290194,382.851616,899.701298,-9762.716208
84167.292758,1167.697429,957.129040,-9781.858789
84167.295322,153.140646,172.283227,-10356.136213
84167.297887,689.132909,1110.269686,-9762.716208
84167.300451,918.843878,823.130974,-9801.001370
84167.303015,937.986459,535.992262,-10088.140082
84167.305579,363.709035,1110.269686,-9781.858789
84167.308144,1052.841944,937.986459,-9973.284597
84167.310708,287.138712,-287.138712,-10068.997501
84167.313272,-497.707101,1588.834206,-9686.145885
84167.315837,421.136778,899.701298,-10145.567824
84167.318401,823.130974,306.281293,-9934.999435
84167.320965,-191.425808,1186.840010,-9915.856854
84167.323530,478.564520,344.566454,-9954.142016
84167.326094,631.705166,459.421939,-10030.712339
84167.328658,267.996131,937.986459,-9934.999435
84167.331222,765.703232,689.132909,-9992.427178
84167.333787,248.853550,421.136778,-9877.571693
84167.336351,267.996131,1033.699363,-9781.858789
84167.338915,229.710970,535.992262,-9992.427178
84167.341480,937.986459,574.277424,-10126.425243
84167.344044,727.418070,1282.552914,-9801.001370
84167.346608,-248.853550,153.140646,-10068.997501
84167.349173,1033.699363,708.275490,-9877.571693
84167.351738,497.707101,1033.699363,-9801.001370
84167.354304,229.710970,478.564520,-10202.995566
84167.356869,995.414202,555.134843,-9877.571693
84167.359434,57.427742,689.132909,-9705.288466
84167.361999,-172.283227,842.273555,-10049.854920
84167.364564,727.418070,516.849682,-10126.425243
84167.367129,114.855485,746.560651,-10011.569758
84167.369694,555.134843,880.558717,-9647.860723
84167.372259,516.849682,-38.285162,-10068.997501
84167.374824,440.279358,1627.119368,-9743.573627
84167.377389,1091.127106,1014.556782,-9915.856854
84167.379955,708.275490,421.136778,-10183.852986
84167.382520,382.851616,861.416136,-9762.716208
84167.385085,267.996131,535.992262,-9877.571693
84167.387650,535.992262,823.130974,-10011.569758
84167.390215,842.273555,995.414202,-9801.001370
84167.392780,535.992262,727.418070,-9973.284597
84167.395345,440.279358,803.988394,-10030.712339
84167.397910,842.273555,1091.127106,-9686.145885
84167.400475,287.138712,382.851616,-10183.852986
84167.403040,267.996131,937.986459,-9992.427178
84167.405606,708.275490,1320.838075,-9839.286531
84167.408171,440.279358,-133.998066,-9934.999435
84167.410736,650.847747,1684.547110,-9494.720077
84167.413301,823.130974,516.849682,-9858.429112
84167.415866,612.562586,746.560651,-10049.854920
84167.418431,-306.281293,689.132909,-9705.288466
84167.420996,1646.261949,1607.976787,-9743.573627
84167.423561,976.271621,-114.855485,-10049.854920
84167.426126,-267.996131,1512.263883,-9647.860723
84167.428691,861.416136,976.271621,-9667.003304
84167.431257,650.847747,-76.570323,-10126.425243
84167.433822,-57.427742,1665.404530,-9839.286531
84167.436387,574.277424,497.707101,-9724.431046
84167.438952,401.994197,287.138712,-9896.714274
84167.441517,248.853550,995.414202,-9762.716208
84167.444082,401.994197,344.566454,-9839.286531
84167.446647,535.992262,708.275490,-9973.284597
84167.449212,650.847747,631.705166,-9896.714274
84167.451778,-57.427742,555.134843,-9858.429112
84167.454344,421.136778,593.420005,-10049.854920
84167.456910,727.418070,937.986459,-9820.143950
84167.459476,95.712904,593.420005,-10068.997501
84167.462042,555.134843,440.279358,-10107.282662
84167.464608,708.275490,1052.841944,-9801.001370
84167.467174,172.283227,440.279358,-10222.138147
84167.469740,593.420005,95.712904,-10145.567824
84167.472306,478.564520,1359.123237,-9801.001370
84167.474872,153.140646,459.421939,-10202.995566
84167.477438,38.285162,1167.697429,-9743.573627
84167.480004,76.570323,765.703232,-9628.718142
84167.482570,593.420005,995.414202,-10164.710405
84167.485136,689.132909,382.851616,-10030.712339
84167.487702,210.568389,861.416136,-9858.429112
84167.490268,497.707101,861.416136,-9934.999435
84167.492834,1531.406464,555.134843,-10260.423309
84167.495400,153.140646,593.420005,-9896.714274
84167.497966,497.707101,1071.984525,-9896.714274
84167.500532,516.849682,976.271621,-9877.571693
84167.503098,746.560651,1052.841944,-9915.856854
84167.505664,459.421939,880.558717,-9820.143950
84167.508230,497.707101,631.705166,-9858.429112
84167.510797,803.988394,918.843878,-9801.001370
84167.513363,478.564520,574.277424,-10088.140082
84167.515929,287.138712,631.705166,-10011.569758
84167.518495,1110.269686,1282.552914,-9609.575562
84167.521061,57.427742,153.140646,-10088.140082
84167.523627,191.425808,880.558717,-9647.860723
84167.526193,1129.412267,1378.265818,-9705.288466
84167.528759,823.130974,95.712904,-10145.567824
84167.531325,248.853550,1435.693560,-9628.718142
84167.533891,172.283227,401.994197,-9590.432981
84167.536457,1550.549045,1148.554848,-9820.143950
84167.539023,574.277424,765.703232,-9858.429112
84167.541589,0.000000,1225.125171,-9781.858789
84167.544155,689.132909,708.275490,-9877.571693
84167.546721,574.277424,306.281293,-9934.999435
84167.549287,-325.423874,1301.695494,-9820.143950
84167.551853,823.130974,497.707101,-9781.858789
84167.554419,76.570323,746.560651,-10107.282662
84167.556985,133.998066,880.558717,-9877.571693
84167.559552,765.703232,267.996131,-9877.571693
84167.562118,382.851616,823.130974,-10011.569758
84167.564684,325.423874,516.849682,-10049.854920
84167.567251,555.134843,574.277424,-9992.427178
84167.569817,555.134843,803.988394,-10030.712339
84167.572383,478.564520,440.279358,-10049.854920
84167.574950,689.132909,555.134843,-10068.997501
84167.577516,0.000000,976.271621,-9781.858789
84167.580082,344.566454,689.132909,-10107.282662
84167.582649,574.277424,114.855485,-10298.708470
84167.585215,650.847747,1454.836141,-9552.147819
84167.587781,382.851616,382.851616,-10068.997501
84167.590348,248.853550,133.998066,-10164.710405
84167.592914,172.283227,1473.978722,-9571.290400
84167.595480,650.847747,114.855485,-10298.708470
84167.598047,-306.281293,382.851616,-10222.138147
84167.600613,842.273555,1646.261949,-9188.438784
84167.603179,516.849682,-325.423874,-10088.140082
84167.605746,344.566454,1569.691626,-9973.284597
84167.608312,1454.836141,1339.980656,-9628.718142
84167.610878,421.136778,191.425808,-10011.569758
84167.613445,287.138712,976.271621,-9858.429112
84167.616011,555.134843,937.986459,-9686.145885
84167.618577,535.992262,823.130974,-9973.284597
84167.621144,555.134843,1071.984525,-9896.714274
84167.623710,689.132909,1052.841944,-9743.573627
84167.626276,631.705166,727.418070,-9839.286531
84167.628842,631.705166,1091.127106,-9705.288466
84167.631409,459.421939,899.701298,-9973.284597
84167.633975,516.849682,689.132909,-10011.569758
84167.636541,172.283227,976.271621,-9820.143950
84167.639108,1148.554848,1301.695494,-9762.716208
84167.641674,478.564520,-95.712904,-10049.854920
84167.644240,555.134843,1550.549045,-9724.431046
84167.646807,593.420005,516.849682,-10068.997501
84167.649373,1148.554848,784.845813,-10107.282662
84167.651939,421.136778,631.705166,-9781.858789
84167.654506,803.988394,957.129040,-9743.573627
84167.657072,459.421939,-210.568389,-10049.854920
84167.659639,-382.851616,1588.834206,-9992.427178
84167.662206,344.566454,918.843878,-10107.282662
84167.664772,803.988394,19.142581,-9973.284597
84167.667339,38.285162,976.271621,-9820.143950
84167.669906,153.140646,114.855485,-9992.427178
84167.672472,689.132909,574.277424,-10260.423309
84167.675039,114.855485,880.558717,-9973.284597
84167.677606,574.277424,727.418070,-9820.143950
84167.680172,708.275490,38.285162,-9896.714274
84167.682739,153.140646,957.129040,-9858.429112
84167.685306,267.996131,631.705166,-10145.567824
84167.687872,823.130974,478.564520,-10375.278794
84167.690439,172.283227,669.990328,-9781.858789
84167.693006,267.996131,746.560651,-9877.571693
84167.695572,574.277424,344.566454,-10107.282662
84167.698139,650.847747,1205.982590,-9762.716208
84167.700705,267.996131,535.992262,-10107.282662
84167.703272,306.281293,459.421939,-10088.140082
84167.705839,153.140646,1110.269686,-9533.005238
84167.708405,478.564520,57.427742,-10107.282662
84167.710972,-133.998066,842.273555,-10011.569758
84167.713539,765.703232,1397.408398,-9475.577496
84167.716105,306.281293,153.140646,-10222.138147
84167.718672,267.996131,1588.834206,-9801.001370
84167.721239,1225.125171,1052.841944,-9571.290400
84167.723805,899.701298,287.138712,-9954.142016
84167.726372,-76.570323,918.843878,-9781.858789
84167.728939,842.273555,918.843878,-9877.571693
84167.731505,689.132909,497.707101,-9934.999435
84167.734072,153.140646,899.701298,-9647.860723
84167.736639,957.129040,1148.554848,-9667.003304
84167.739205,325.423874,478.564520,-10030.712339
84167.741772,555.134843,1359.123237,-9801.001370
84167.744339,421.136778,746.560651,-9896.714274
84167.746905,708.275490,363.709035,-9820.143950
84167.749472,19.142581,995.414202,-9628.718142
84167.752039,1052.841944,1263.410333,-9839.286531
84167.754605,689.132909,133.998066,-10183.852986
84167.757172,555.134843,1569.691626,-9686.145885
84167.759739,76.570323,421.136778,-9839.286531
84167.762306,1454.836141,1148.554848,-9858.429112
84167.764873,459.421939,669.990328,-9973.284597
84167.767440,-401.994197,1052.841944,-9858.429112
84167.770007,861.416136,1052.841944,-9858.429112
84167.772574,287.138712,401.994197,-9992.427178
84167.775142,-76.570323,1263.410333,-9877.571693
84167.777709,995.414202,153.140646,-9973.284597
84167.780276,210.568389,1014.556782,-10088.140082
84167.782843,-133.998066,650.847747,-9858.429112
84167.785410,784.845813,306.281293,-9915.856854
84167.787977,344.566454,842.273555,-9973.284597
84167.790544,421.136778,612.562586,-9839.286531
84167.793111,574.277424,593.420005,-10068.997501
84167.795678,516.849682,823.130974,-9915.856854
84167.798245,516.849682,267.996131,-9934.999435
84167.800812,325.423874,727.418070,-10011.569758
84167.803380,612.562586,861.416136,-9820.143950
84167.805947,191.425808,401.994197,-10049.854920
84167.808514,363.709035,650.847747,-10088.140082
84167.811081,842.273555,1052.841944,-9724.431046
84167.813648,172.283227,516.849682,-10049.854920
84167.816215,-114.855485,708.275490,-9762.716208
84167.818782,153.140646,899.701298,-9781.858789
84167.821349,957.129040,1014.556782,-10164.710405
84167.823916,133.998066,-229.710970,-10068.997501
84167.826483,382.851616,1301.695494,-9686.145885
84167.829051,784.845813,-210.568389,-9954.142016
84167.831618,803.988394,459.421939,-10088.140082
84167.834185,708.275490,1033.699363,-9915.856854
84167.836752,765.703232,1033.699363,-9724.431046
84167.839319,535.992262,631.705166,-10049.854920
84167.841886,363.709035,1110.269686,-9781.858789
84167.844453,842.273555,612.562586,-9858.429112
84167.847020,478.564520,746.560651,-10145.567824
84167.849587,497.707101,995.414202,-9781.858789
84167.852154,957.129040,459.421939,-9858.429112
84167.854722,210.568389,689.132909,-10049.854920
84167.857289,784.845813,1091.127106,-9781.858789
84167.859856,574.277424,210.568389,-10107.282662
84167.862423,1091.127106,1416.550979,-9915.856854
84167.864991,229.710970,287.138712,-10011.569758
84167.867558,1014.556782,669.990328,-9896.714274
84167.870126,401.994197,765.703232,-9877.571693
84167.872694,823.130974,880.558717,-9954.142016
84167.875261,937.986459,306.281293,-10088.140082
84167.877829,842.273555,1205.982590,-9915.856854
84167.880396,153.140646,19.142581,-9973.284597
84167.882964,57.427742,459.421939,-10183.852986
84167.885531,593.420005,1014.556782,-10011.569758
84167.888099,574.277424,401.994197,-10049.854920
84167.890667,382.851616,765.703232,-10107.282662
84167.893234,287.138712,478.564520,-9820.143950
84167.895802,114.855485,555.134843,-9973.284597
84167.898369,803.988394,612.562586,-9954.142016
84167.900937,344.566454,976.271621,-9896.714274
84167.903504,191.425808,574.277424,-9934.999435
84167.906072,593.420005,823.130974,-9839.286531
84167.908639,1091.127106,823.130974,-9877.571693
84167.911207,19.142581,325.423874,-10279.565890
84167.913775,631.705166,823.130974,-9858.429112
84167.916342,746.560651,957.129040,-9743.573627
84167.918910,38.285162,306.281293,-10202.995566
84167.921477,555.134843,880.558717,-9877.571693
84167.924045,1014.556782,1186.840010,-9762.716208
84167.926612,-478.564520,-210.568389,-10202.995566
84167.929180,-459.421939,918.843878,-9801.001370
84167.931748,1320.838075,1244.267752,-9839.286531
84167.934315,344.566454,-650.847747,-10260.423309
84167.936883,-38.285162,1205.982590,-9915.856854
84167.939450,1167.697429,516.849682,-9781.858789
84167.942018,995.414202,248.853550,-10317.851051
84167.944585,38.285162,1052.841944,-9954.142016
84167.947153,1263.410333,995.414202,-9533.005238
84167.949721,344.566454,363.709035,-10222.138147
84167.952288,57.427742,1205.982590,-9858.429112
84167.954856,535.992262,669.990328,-9934.999435
84167.957424,784.845813,593.420005,-9934.999435
84167.959991,382.851616,1129.412267,-9724.431046
84167.962559,363.709035,727.418070,-9934.999435
84167.965127,784.845813,363.709035,-9934.999435
84167.967694,516.849682,1320.838075,-9801.001370
84167.970262,76.570323,344.566454,-10241.280728
84167.972829,1244.267752,880.558717,-9590.432981
84167.975397,880.558717,937.986459,-9801.001370
84167.977965,267.996131,631.705166,-10088.140082
84167.980532,191.425808,593.420005,-9801.001370
84167.983100,1263.410333,1761.117434,-9571.290400
84167.985668,631.705166,-153.140646,-10183.852986
84167.988235,344.566454,1091.127106,-9858.429112
84167.990803,631.705166,995.414202,-9839.286531
84167.993371,-38.285162,363.709035,-10183.852986
84167.995938,708.275490,957.129040,-9915.856854
84167.998506,784.845813,478.564520,-9781.858789
84168.001073,76.570323,823.130974,-10011.569758
84168.003641,191.425808,669.990328,-9973.284597
84168.006209,535.992262,669.990328,-9992.427178
84168.008776,248.853550,593.420005,-10107.282662
84168.011344,516.849682,593.420005,-10049.854920
84168.013912,555.134843,746.560651,-9954.142016
84168.016479,210.568389,593.420005,-9973.284597
84168.019047,746.560651,555.134843,-10088.140082
84168.021615,421.136778,861.416136,-9858.429112
84168.024182,421.136778,459.421939,-10049.854920
84168.026750,267.996131,784.845813,-9934.999435
84168.029317,669.990328,1148.554848,-9839.286531
84168.031885,574.277424,229.710970,-10126.425243
84168.034453,-133.998066,612.562586,-9954.142016
84168.037020,440.279358,1282.552914,-9667.003304
84168.039588,153.140646,-95.712904,-10183.852986
84168.042156,325.423874,1263.410333,-9896.714274
84168.044723,746.560651,1378.265818,-9609.575562
84168.047291,631.705166,-38.285162,-10145.567824
84168.049858,-76.570323,1627.119368,-9820.143950
84168.052426,1588.834206,1148.554848,-9705.288466
84168.054994,650.847747,-19.142581,-10164.710405
84168.057561,114.855485,1205.982590,-9724.431046
84168.060129,1014.556782,765.703232,-9839.286531
84168.062696,497.707101,593.420005,-10107.282662
84168.065264,38.285162,976.271621,-9781.858789
84168.067832,-38.285162,593.420005,-9973.284597
84168.070399,842.273555,382.851616,-9801.001370
84168.072967,631.705166,1435.693560,-9647.860723
84168.075535,229.710970,631.705166,-10183.852986
84168.078102,478.564520,210.568389,-9801.001370
84168.080670,976.271621,1741.974853,-9590.432981
84168.083237,306.281293,0.000000,-10241.280728
84168.085805,784.845813,650.847747,-9820.143950
84168.088373,555.134843,1071.984525,-9647.860723
84168.090940,918.843878,803.988394,-10183.852986
84168.093508,899.701298,133.998066,-10202.995566
84168.096075,555.134843,1225.125171,-9628.718142
84168.098643,516.849682,-153.140646,-9954.142016
84168.101211,-95.712904,823.130974,-10164.710405
84168.103778,631.705166,1244.267752,-9858.429112
84168.106346,593.420005,478.564520,-9934.999435
84168.108913,440.279358,708.275490,-9934.999435
84168.111481,191.425808,516.849682,-9762.716208
84168.114049,306.281293,401.994197,-10088.140082
84168.116616,401.994197,689.132909,-10107.282662
84168.119184,727.418070,937.986459,-9820.143950
84168.121751,267.996131,325.423874,-10011.569758
84168.124319,440.279358,612.562586,-9992.427178
84168.126887,746.560651,1148.554848,-9839.286531
84168.129454,0.000000,-38.285162,-10298.708470
84168.132022,650.847747,1148.554848,-9839.286531
84168.134589,382.851616,861.416136,-9820.143950
84168.137157,287.138712,440.279358,-10088.140082
84168.139725,880.558717,1205.982590,-9724.431046
84168.142292,76.570323,267.996131,-9992.427178
84168.144860,38.285162,823.130974,-10011.569758
84168.147427,267.996131,669.990328,-9705.288466
84168.149995,-76.570323,191.425808,-10145.567824
84168.152563,421.136778,1186.840010,-9724.431046
84168.155131,612.562586,574.277424,-9839.286531
84168.157698,287.138712,1148.554848,-9934.999435
84168.160266,1282.552914,1129.412267,-9781.858789
84168.162834,765.703232,440.279358,-9743.573627
84168.165401,363.709035,823.130974,-9724.431046
84168.167969,746.560651,401.994197,-9934.999435
84168.170537,918.843878,995.414202,-9973.284597
84168.173104,306.281293,612.562586,-10107.282662
84168.175672,669.990328,593.420005,-9781.858789
84168.178240,861.416136,1244.267752,-9667.003304
84168.180807,172.283227,516.849682,-10068.997501
84168.183375,803.988394,574.277424,-10011.569758
84168.185943,708.275490,1167.697429,-9724.431046
84168.188510,459.421939,842.273555,-9915.856854
84168.191078,612.562586,76.570323,-9973.284597
84168.193646,612.562586,1167.697429,-9743.573627
84168.196213,-19.142581,344.566454,-10107.282662
84168.198781,1454.836141,1454.836141,-9934.999435
84168.201349,1071.984525,593.420005,-9820.143950
84168.203916,-306.281293,842.273555,-9781.858789
84168.206484,746.560651,803.988394,-9858.429112
84168.209052,248.853550,631.705166,-10145.567824
84168.211619,95.712904,1052.841944,-10068.997501
84168.214187,842.273555,114.855485,-9973.284597
84168.216755,459.421939,823.130974,-9801.001370
84168.219322,-210.568389,555.134843,-9973.284597
84168.221890,535.992262,650.847747,-10011.569758
84168.224458,516.849682,976.271621,-9839.286531
84168.227025,153.140646,478.564520,-10011.569758
84168.229593,708.275490,535.992262,-10030.712339
84168.232161,593.420005,1052.841944,-9667.003304
84168.234728,-114.855485,344.566454,-10202.995566
84168.237296,689.132909,669.990328,-10145.567824
84168.239864,784.845813,937.986459,-9762.716208
84168.242432,172.283227,344.566454,-9973.284597
84168.244999,325.423874,1129.412267,-9628.718142
84168.247567,708.275490,1320.838075,-9781.858789
84168.250135,57.427742,153.140646,-10241.280728
84168.252695,-229.710970,1052.841944,-9724.431046
84168.255262,1512.263883,1435.693560,-9762.716208
84168.257830,-57.427742,-937.986459,-10432.706536
84168.260397,19.142581,1301.695494,-9896.714274
84168.262965,689.132909,1071.984525,-9743.573627
84168.265533,1339.980656,191.425808,-10202.995566
84168.268100,-191.425808,995.414202,-9820.143950
84168.270668,1014.556782,1282.552914,-9494.720077
84168.273235,708.275490,57.427742,-10183.852986
84168.275803,38.285162,1416.550979,-9915.856854
84168.278370,1110.269686,861.416136,-9820.143950
84168.280938,516.849682,363.709035,-9992.427178
84168.283505,153.140646,1148.554848,-9609.575562
84168.286073,669.990328,746.560651,-9801.001370
84168.288641,880.558717,-19.142581,-10222.138147
84168.291208,114.855485,1493.121302,-9724.431046
84168.293776,727.418070,842.273555,-10030.712339
84168.296343,708.275490,-76.570323,-9973.284597
84168.298911,478.564520,1665.404530,-9609.575562
84168.301478,440.279358,287.138712,-10126.425243
84168.304046,1167.697429,861.416136,-10049.854920
84168.306614,593.420005,995.414202,-9934.999435
84168.309181,861.416136,555.134843,-9858.429112
84168.311749,976.271621,516.849682,-10088.140082
84168.314316,-133.998066,1052.841944,-10030.712339
84168.316884,287.138712,497.707101,-10260.423309
84168.319451,861.416136,325.423874,-10088.140082
84168.322019,95.712904,976.271621,-9762.716208
84168.324586,133.998066,287.138712,-9896.714274
84168.327154,478.564520,382.851616,-10279.565890
84168.329722,363.709035,1071.984525,-9877.571693
84168.332289,344.566454,497.707101,-10068.997501
84168.334857,440.279358,574.277424,-9934.999435
84168.337424,727.418070,1129.412267,-9609.575562
84168.339992,-19.142581,344.566454,-10336.993632
84168.342559,535.992262,823.130974,-10088.140082
84168.345127,765.703232,1091.127106,-9628.718142
84168.347695,114.855485,344.566454,-10049.854920
84168.350262,306.281293,516.849682,-9915.856854
84168.352830,1014.556782,1665.404530,-9705.288466
84168.355397,38.285162,153.140646,-10336.993632
84168.357965,-133.998066,1052.841944,-9877.571693
84168.360532,1282.552914,1282.552914,-9667.003304
84168.363099,19.142581,-861.416136,-10260.423309
84168.365667,19.142581,1320.838075,-9992.427178
84168.368234,1071.984525,516.849682,-9781.858789
84168.370802,708.275490,325.423874,-10260.423309
84168.373369,287.138712,1263.410333,-9839.286531
84168.375937,1320.838075,918.843878,-9418.149754
84168.378504,842.273555,287.138712,-10164.710405
84168.381072,133.998066,1416.550979,-9934.999435
84168.383639,612.562586,631.705166,-9954.142016
84168.386207,842.273555,574.277424,-9992.427178
84168.388774,287.138712,937.986459,-9628.718142
84168.391341,306.281293,1014.556782,-9896.714274
84168.393909,784.845813,306.281293,-10068.997501
84168.396476,172.283227,1071.984525,-9801.001370
84168.399044,918.843878,1091.127106,-10011.569758
84168.401611,937.986459,267.996131,-9877.571693
84168.404179,440.279358,1512.263883,-9667.003304
84168.406746,-191.425808,478.564520,-10164.710405
84168.409314,1665.404530,1244.267752,-9954.142016
84168.411881,650.847747,669.990328,-9992.427178
84168.414449,267.996131,746.560651,-9973.284597
84168.417016,1052.841944,287.138712,-9896.714274
84168.419583,-344.566454,957.129040,-10088.140082
84168.422151,440.279358,746.560651,-10145.567824
84168.424718,823.130974,401.994197,-9954.142016
84168.427286,363.709035,957.129040,-9705.288466
84168.429853,-76.570323,459.421939,-10011.569758
84168.432421,478.564520,401.994197,-10222.138147
84168.434988,440.279358,1129.412267,-9915.856854
84168.437556,344.566454,535.992262,-10088.140082
84168.440123,650.847747,325.423874,-10030.712339
84168.442691,459.421939,1186.840010,-9571.290400
84168.445258,114.855485,344.566454,-10145.567824
84168.447825,555.134843,708.275490,-10260.423309
84168.450393,899.701298,1071.984525,-9667.003304
84168.452960,57.427742,344.566454,-9934.999435
84168.455528,669.990328,765.703232,-9915.856854
84168.458095,267.996131,727.418070,-9743.573627
84168.460663,95.712904,765.703232,-10011.569758
84168.463230,172.283227,574.277424,-10049.854920
84168.465798,1014.556782,1512.263883,-9552.147819
84168.468365,191.425808,0.000000,-9896.714274
84168.470933,-382.851616,784.845813,-9896.714274
84168.473500,382.851616,1722.832272,-9896.714274
84168.476068,1569.691626,823.130974,-9934.999435
84168.478635,325.423874,440.279358,-9877.571693
84168.481203,593.420005,1320.838075,-9533.005238
84168.483770,765.703232,172.283227,-10011.569758
84168.486338,325.423874,1071.984525,-10011.569758
84168.488905,574.277424,803.988394,-9820.143950
84168.491473,535.992262,306.281293,-10011.569758
84168.494040,631.705166,1091.127106,-9647.860723
84168.496608,382.851616,363.709035,-9992.427178
84168.499175,363.709035,478.564520,-9973.284597
84168.501743,1244.267752,1607.976787,-9628.718142
84168.504310,153.140646,267.996131,-10145.567824
84168.506878,669.990328,842.273555,-9839.286531
84168.509445,727.418070,861.416136,-9628.718142
84168.512013,555.134843,497.707101,-10107.282662
84168.514580,957.129040,842.273555,-10030.712339
84168.517148,899.701298,937.986459,-9628.718142
84168.519715,153.140646,19.142581,-9992.427178
84168.522283,267.996131,1033.699363,-9896.714274
84168.524850,689.132909,976.271621,-9954.142016
84168.527418,440.279358,899.701298,-9877.571693
84168.529985,421.136778,612.562586,-9858.429112
84168.532553,421.136778,497.707101,-9877.571693
84168.535120,-325.423874,708.275490,-9877.571693
84168.537688,535.992262,765.703232,-9858.429112
84168.540255,727.418070,861.416136,-9877.571693
84168.542823,267.996131,593.420005,-9915.856854
84168.545390,459.421939,689.132909,-9934.999435
84168.547958,535.992262,842.273555,-9839.286531
84168.550525,210.568389,727.418070,-10030.712339
84168.553092,497.707101,727.418070,-10011.569758
84168.555660,650.847747,1014.556782,-9705.288466
84168.558227,555.134843,516.849682,-9858.429112
84168.560795,0.000000,823.130974,-9858.429112
84168.563362,459.421939,1071.984525,-9801.001370
84168.565929,114.855485,344.566454,-10030.712339
84168.568496,784.845813,1378.265818,-9992.427178
84168.571063,689.132909,153.140646,-9667.003304
84168.573631,-287.138712,593.420005,-10145.567824
84168.576198,76.570323,1780.260014,-9801.001370
84168.578765,1741.974853,823.130974,-9781.858789
84168.581332,267.996131,172.283227,-10049.854920
84168.583899,555.134843,1473.978722,-9571.290400
84168.586467,1091.127106,401.994197,-9858.429112
84168.589034,114.855485,612.562586,-10088.140082
84168.591601,382.851616,1301.695494,-9705.288466
84168.594168,1071.984525,612.562586,-9858.429112
84168.596735,210.568389,535.992262,-9896.714274
84168.599303,287.138712,1186.840010,-9724.431046
84168.601870,229.710970,516.849682,-10107.282662
84168.604437,1339.980656,937.986459,-9877.571693
84168.607004,267.996131,650.847747,-9801.001370
84168.609571,401.994197,1014.556782,-9839.286531
84168.612139,727.418070,267.996131,-9896.714274
84168.614706,689.132909,1091.127106,-9896.714274
84168.617273,708.275490,727.418070,-10126.425243
84168.619840,1244.267752,459.421939,-9858.429112
84168.622407,574.277424,478.564520,-9724.431046
84168.624975,-325.423874,957.129040,-9992.427178
84168.627542,823.130974,669.990328,-10107.282662
84168.630109,631.705166,727.418070,-9973.284597
84168.632676,114.855485,823.130974,-9877.571693
84168.635243,669.990328,95.712904,-9896.714274
84168.637811,-19.142581,861.416136,-9954.142016
84168.640378,114.855485,918.843878,-9858.429112
84168.642945,746.560651,689.132909,-10049.854920
84168.645512,555.134843,880.558717,-9801.001370
84168.648079,-19.142581,344.566454,-9992.427178
84168.650647,669.990328,765.703232,-9954.142016
84168.653214,535.992262,1091.127106,-9915.856854
84168.655781,210.568389,153.140646,-10145.567824
84168.658348,459.421939,842.273555,-9858.429112
84168.660915,1033.699363,976.271621,-9781.858789
84168.663482,-363.709035,-153.140646,-10298.708470
84168.666049,191.425808,1684.547110,-9647.860723
84168.668616,1148.554848,459.421939,-9992.427178
84168.671183,-153.140646,248.853550,-10183.852986
84168.673750,191.425808,1646.261949,-9418.149754
84168.676317,612.562586,153.140646,-9877.571693
84168.678884,0.000000,1282.552914,-10030.712339
84168.681451,1473.978722,1263.410333,-9705.288466
84168.684018,823.130974,153.140646,-9973.284597
84168.686585,267.996131,995.414202,-9724.431046
84168.689152,995.414202,1282.552914,-9724.431046
84168.691719,535.992262,382.851616,-10164.710405
84168.694286,421.136778,1033.699363,-9954.142016
84168.696853,842.273555,1129.412267,-9705.288466
84168.699420,306.281293,555.134843,-9934.999435
84168.701987,382.851616,689.132909,-9667.003304
84168.704554,746.560651,1014.556782,-9820.143950
84168.707121,516.849682,957.129040,-10107.282662
84168.709688,459.421939,555.134843,-9801.001370
84168.712255,306.281293,1225.125171,-9705.288466
84168.714822,38.285162,306.281293,-10126.425243
84168.717389,1473.978722,1454.836141,-9705.288466
84168.719956,918.843878,612.562586,-9858.429112
84168.722523,-172.283227,689.132909,-9973.284597
84168.725090,861.416136,918.843878,-9705.288466
84168.727656,153.140646,401.994197,-10030.712339
84168.730223,229.710970,976.271621,-10107.282662
84168.732790,803.988394,172.283227,-9820.143950
84168.735357,114.855485,1263.410333,-9954.142016
84168.737924,-38.285162,669.990328,-10011.569758
84168.740491,555.134843,478.564520,-9954.142016
84168.743058,363.709035,1167.697429,-9934.999435
84168.745625,248.853550,421.136778,-9992.427178
84168.748192,727.418070,612.562586,-9820.143950
84168.750759,516.849682,1071.984525,-9820.143950
84168.753326,306.281293,344.566454,-10241.280728
84168.755893,459.421939,650.847747,-9992.427178
84168.758460,727.418070,1263.410333,-9724.431046
84168.761027,287.138712,229.710970,-10145.567824
84168.763594,57.427742,957.129040,-9954.142016
84168.766161,459.421939,995.414202,-9686.145885
84168.768727,57.427742,363.709035,-10241.280728
84168.771294,1263.410333,1225.125171,-10049.854920
84168.773861,516.849682,153.140646,-9781.858789
84168.776428,-248.853550,631.705166,-10049.854920
84168.778994,669.990328,497.707101,-10030.712339
84168.781561,937.986459,765.703232,-10030.712339
84168.784128,95.712904,497.707101,-10068.997501
84168.786694,842.273555,1339.980656,-9571.290400
84168.789261,880.558717,535.992262,-9934.999435
84168.791828,172.283227,957.129040,-9973.284597
84168.794394,899.701298,1071.984525,-9896.714274
84168.796961,784.845813,459.421939,-9915.856854
84168.799528,172.283227,631.705166,-9762.716208
84168.802095,516.849682,823.130974,-9839.286531
84168.804661,478.564520,689.132909,-10049.854920
84168.807228,574.277424,823.130974,-9858.429112
84168.809795,555.134843,1071.984525,-9647.860723
84168.812361,440.279358,746.560651,-9915.856854
84168.814928,95.712904,516.849682,-9839.286531
84168.817495,1091.127106,1684.547110,-9667.003304
84168.820061,842.273555,153.140646,-10202.995566
84168.822628,497.707101,727.418070,-9915.856854
84168.825195,478.564520,803.988394,-9590.432981
84168.827762,153.140646,-114.855485,-10260.423309
84168.830328,593.420005,1225.125171,-10011.569758
84168.832895,708.275490,574.277424,-9858.429112
84168.835462,133.998066,765.703232,-10049.854920
84168.838028,306.281293,535.992262,-9858.429112
84168.840595,248.853550,880.558717,-9781.858789
84168.843162,76.570323,784.845813,-10030.712339
84168.845728,823.130974,344.566454,-10049.854920
84168.848295,421.136778,1129.412267,-9839.286531
84168.850862,421.136778,325.423874,-10049.854920
84168.853429,574.277424,478.564520,-9934.999435
84168.855995,401.994197,1320.838075,-9801.001370
84168.858562,401.994197,153.140646,-10336.993632
84168.861129,574.277424,516.849682,-10011.569758
84168.863695,363.709035,1339.980656,-9686.145885
84168.866262,133.998066,-19.142581,-10183.852986
84168.868829,248.853550,861.416136,-9973.284597
84168.871395,1435.693560,1531.406464,-9781.858789
84168.873962,574.277424,-19.142581,-10011.569758
84168.876528,-382.851616,899.701298,-9973.284597
84168.879095,574.277424,1071.984525,-9647.860723
84168.881661,1033.699363,344.566454,-10241.280728
84168.884228,229.710970,1033.699363,-10107.282662
84168.886794,1071.984525,1186.840010,-9399.007173
84168.889361,440.279358,248.853550,-10260.423309
84168.891927,382.851616,1129.412267,-10049.854920
84168.894494,1014.556782,842.273555,-9820.143950
84168.897060,191.425808,76.570323,-10145.567824
84168.899627,191.425808,1435.693560,-9743.573627
84168.902193,727.418070,555.134843,-9934.999435
84168.904760,631.705166,38.285162,-10145.567824
84168.907326,287.138712,1359.123237,-9628.718142
84168.909893,937.986459,593.420005,-10068.997501
84168.912459,114.855485,287.138712,-10107.282662
84168.915026,-191.425808,1225.125171,-9552.147819
84168.917592,1780.260014,1320.838075,-9820.143950
84168.920159,765.703232,-57.427742,-10030.712339
84168.922725,-516.849682,1378.265818,-9456.434915
84168.925292,535.992262,842.273555,-9954.142016
84168.927858,708.275490,-229.710970,-10241.280728
84168.930425,-114.855485,1799.402595,-9724.431046
84168.932991,880.558717,267.996131,-9973.284597
84168.935558,440.279358,708.275490,-9973.284597
84168.938125,-76.570323,1091.127106,-9877.571693
84168.940691,401.994197,631.705166,-10107.282662
84168.943258,574.277424,574.277424,-10088.140082
84168.945824,440.279358,1186.840010,-9609.575562
84168.948391,-38.285162,287.138712,-10068.997501
84168.950957,784.845813,535.992262,-9877.571693
84168.953524,574.277424,1359.123237,-9820.143950
84168.956090,114.855485,478.564520,-10279.565890
84168.958657,631.705166,363.709035,-9820.143950
84168.961223,823.130974,1359.123237,-9513.862658
84168.963790,-421.136778,38.285162,-10356.136213
84168.966356,535.992262,861.416136,-9820.143950
84168.968923,1014.556782,880.558717,-9781.858789
84168.971489,-440.279358,114.855485,-10260.423309
84168.974055,459.421939,1473.978722,-9533.005238
84168.976621,574.277424,516.849682,-9781.858789
84168.979186,95.712904,459.421939,-10279.565890
84168.981752,1225.125171,1512.263883,-9801.001370
84168.984318,1148.554848,248.853550,-9839.286531
84168.986884,-306.281293,593.420005,-9954.142016
84168.989450,650.847747,976.271621,-9839.286531
84168.992016,1052.841944,1052.841944,-9858.429112
84168.994582,153.140646,555.134843,-10011.569758
84168.997148,765.703232,1014.556782,-9801.001370
84168.999714,516.849682,1091.127106,-9781.858789
84169.002280,631.705166,-19.142581,-10068.997501
84169.004846,344.566454,1856.830338,-9571.290400
84169.007412,899.701298,440.279358,-10049.854920
84169.009978,153.140646,363.709035,-9973.284597
84169.012544,-57.427742,1378.265818,-9475.577496
84169.015110,1531.406464,1091.127106,-9896.714274
84169.017676,497.707101,19.142581,-10279.565890
84169.020242,440.279358,1263.410333,-9724.431046
84169.022807,803.988394,114.855485,-9801.001370
84169.025373,382.851616,76.570323,-10298.708470
84169.027939,401.994197,1378.265818,-9896.714274
84169.030505,899.701298,306.281293,-9954.142016
84169.033071,459.421939,650.847747,-9954.142016
84169.035637,133.998066,937.986459,-9705.288466
84169.038203,440.279358,497.707101,-10145.567824
84169.040769,516.849682,555.134843,-9877.571693
84169.043335,363.709035,1205.982590,-9762.716208
84169.045901,287.138712,555.134843,-9954.142016
84169.048467,765.703232,555.134843,-9954.142016
84169.051033,535.992262,1263.410333,-9762.716208
84169.053599,133.998066,363.709035,-10126.425243
84169.056165,669.990328,574.277424,-9858.429112
84169.058731,803.988394,1225.125171,-9609.575562
84169.061297,-229.710970,-95.712904,-10126.425243
84169.063863,478.564520,1014.556782,-9820.143950
84169.066428,421.136778,1052.841944,-9667.003304
84169.068994,363.709035,689.132909,-9973.284597
84169.071560,689.132909,1320.838075,-9686.145885
84169.074126,440.279358,459.421939,-9858.429112
84169.076691,-76.570323,1052.841944,-10049.854920
84169.079257,1531.406464,861.416136,-9896.714274
84169.081822,574.277424,344.566454,-9858.429112
84169.084388,248.853550,976.271621,-9801.001370
84169.086953,995.414202,478.564520,-10030.712339
84169.089519,248.853550,842.273555,-9954.142016
84169.092084,344.566454,803.988394,-10107.282662
84169.094650,803.988394,976.271621,-9820.143950
84169.097215,708.275490,1014.556782,-9820.143950
84169.099781,57.427742,114.855485,-10068.997501
84169.102346,784.845813,1320.838075,-9954.142016
84169.104912,823.130974,957.129040,-9858.429112
84169.107477,114.855485,555.134843,-10222.138147
84169.110043,172.283227,765.703232,-9954.142016
84169.112608,1493.121302,1301.695494,-9628.718142
84169.115174,267.996131,-19.142581,-10451.849117
84169.117739,-38.285162,1569.691626,-9762.716208
84169.120305,1014.556782,516.849682,-9839.286531
84169.122870,191.425808,344.566454,-10317.851051
84169.125436,325.423874,1110.269686,-9896.714274
84169.128001,1091.127106,497.707101,-9801.001370
84169.130566,210.568389,555.134843,-9973.284597
84169.133132,76.570323,899.701298,-9762.716208
84169.135697,363.709035,976.271621,-9992.427178
84169.138263,421.136778,784.845813,-9915.856854
84169.140828,631.705166,1071.984525,-9705.288466
84169.143394,153.140646,535.992262,-9896.714274
84169.145959,535.992262,459.421939,-9839.286531
84169.148525,593.420005,1244.267752,-9667.003304
84169.151090,287.138712,535.992262,-10107.282662
84169.153656,478.564520,478.564520,-9781.858789
84169.156221,765.703232,1435.693560,-9494.720077
84169.158787,-95.712904,-57.427742,-10088.140082
84169.161352,344.566454,899.701298,-9839.286531
84169.163918,976.271621,1014.556782,-9858.429112
84169.166483,-114.855485,57.427742,-10222.138147
84169.169049,555.134843,1244.267752,-9494.720077
84169.171614,306.281293,535.992262,-9801.001370
84169.174180,-57.427742,880.558717,-10126.425243
84169.176745,1473.978722,842.273555,-9762.716208
84169.179310,516.849682,478.564520,-9934.999435
84169.181875,287.138712,880.558717,-9801.001370
84169.184441,1186.840010,267.996131,-9934.999435
84169.187006,899.701298,976.271621,-9896.714274
84169.189571,-248.853550,612.562586,-10088.140082
84169.192136,1186.840010,727.418070,-9915.856854
84169.194702,363.709035,899.701298,-9724.431046
84169.197267,287.138712,478.564520,-10107.282662
84169.199832,765.703232,574.277424,-10049.854920
84169.202397,918.843878,1282.552914,-9762.716208
84169.204963,-133.998066,344.566454,-9992.427178
84169.207528,-19.142581,516.849682,-10049.854920
84169.210093,1646.261949,1550.549045,-9705.288466
84169.212658,650.847747,114.855485,-10183.852986
84169.215224,-631.705166,1167.697429,-9858.429112
84169.217789,899.701298,1071.984525,-9628.718142
84169.220354,535.992262,-229.710970,-10183.852986
84169.222919,191.425808,1148.554848,-10049.854920
84169.225484,1167.697429,669.990328,-9762.716208
84169.228050,57.427742,765.703232,-9973.284597
84169.230615,114.855485,708.275490,-10030.712339
84169.233180,631.705166,497.707101,-9801.001370
84169.235745,555.134843,593.420005,-9934.999435
84169.238311,516.849682,1052.841944,-9743.573627
84169.240876,306.281293,574.277424,-9781.858789
84169.243441,440.279358,669.990328,-9839.286531
84169.246006,440.279358,1148.554848,-9724.431046
84169.248572,516.849682,937.986459,-9973.284597
84169.251137,421.136778,344.566454,-9858.429112
84169.253702,363.709035,1550.549045,-9571.290400
84169.256267,95.712904,459.421939,-10126.425243
84169.258822,478.564520,593.420005,-9973.284597
84169.261387,1167.697429,1741.974853,-9667.003304
84169.263951,401.994197,-478.564520,-10126.425243
84169.266516,172.283227,765.703232,-9915.856854
84169.269081,459.421939,842.273555,-9839.286531
84169.271646,516.849682,401.994197,-10298.708470
84169.274210,1014.556782,1071.984525,-9877.571693
84169.276775,937.986459,861.416136,-9705.288466
84169.279340,306.281293,229.710970,-10107.282662
84169.281905,421.136778,784.845813,-10183.852986
84169.284470,1148.554848,1301.695494,-9801.001370
84169.287034,459.421939,114.855485,-10222.138147
84169.289599,57.427742,708.275490,-9954.142016
84169.292164,918.843878,1071.984525,-9628.718142
84169.294729,287.138712,727.418070,-10126.425243
84169.297293,344.566454,363.709035,-10107.282662
84169.299858,727.418070,1359.123237,-9820.143950
84169.302423,153.140646,382.851616,-10126.425243
84169.304988,1052.841944,1186.840010,-9858.429112
84169.307552,689.132909,459.421939,-9877.571693
84169.310117,344.566454,612.562586,-10068.997501
84169.312682,689.132909,325.423874,-10011.569758
84169.315247,38.285162,1167.697429,-9858.429112
84169.317811,574.277424,555.134843,-9954.142016
84169.320376,650.847747,363.709035,-10126.425243
84169.322941,114.855485,823.130974,-9858.429112
84169.325506,172.283227,555.134843,-9915.856854
84169.328070,287.138712,937.986459,-9954.142016
84169.330635,535.992262,899.701298,-9628.718142
84169.333200,535.992262,267.996131,-9992.427178
84169.335765,-95.712904,880.558717,-10049.854920
84169.338329,669.990328,1052.841944,-9724.431046
84169.340894,421.136778,-76.570323,-10107.282662
84169.343459,516.849682,995.414202,-9877.571693
84169.346024,708.275490,784.845813,-9762.716208
84169.348588,363.709035,535.992262,-9973.284597
84169.351153,114.855485,1052.841944,-9609.575562
84169.353718,593.420005,803.988394,-10088.140082
84169.356283,1186.840010,612.562586,-10126.425243
84169.358847,-344.566454,478.564520,-9762.716208
84169.361412,363.709035,1282.552914,-9839.286531
84169.363977,727.418070,-191.425808,-10049.854920
84169.366542,38.285162,1110.269686,-10030.712339
84169.369106,1282.552914,1301.695494,-9762.716208
84169.371671,1244.267752,287.138712,-9915.856854
84169.374236,95.712904,1167.697429,-10030.712339
84169.376801,363.709035,918.843878,-10011.569758
84169.379365,899.701298,401.994197,-10145.567824
84169.381930,38.285162,1129.412267,-10107.282662
84169.384494,612.562586,708.275490,-9762.716208
84169.387058,823.130974,153.140646,-9820.143950
84169.389622,401.994197,1607.976787,-9839.286531
84169.392186,344.566454,229.710970,-10049.854920
84169.394751,899.701298,842.273555,-10107.282662
84169.397315,344.566454,918.843878,-9839.286531
84169.399879,746.560651,784.845813,-10011.569758
84169.402443,708.275490,325.423874,-10279.565890
84169.405007,210.568389,976.271621,-9877.571693
84169.407571,669.990328,631.705166,-9915.856854
84169.410136,344.566454,421.136778,-10126.425243
84169.412700,574.277424,899.701298,-9858.429112
84169.415264,497.707101,248.853550,-10049.854920
84169.417828,57.427742,861.416136,-10049.854920
84169.420392,363.709035,746.560651,-9954.142016
84169.422957,382.851616,478.564520,-10145.567824
84169.425521,535.992262,708.275490,-9839.286531
84169.428085,631.705166,516.849682,-9781.858789
84169.430649,344.566454,287.138712,-10030.712339
84169.433213,459.421939,1359.123237,-9820.143950
84169.435777,535.992262,574.277424,-10049.854920
84169.438342,210.568389,76.570323,-10049.854920
84169.440906,478.564520,1282.552914,-9686.145885
84169.443470,133.998066,708.275490,-9934.999435
84169.446034,287.138712,267.996131,-10088.140082
84169.448598,267.996131,1263.410333,-9762.716208
84169.451163,708.275490,957.129040,-10088.140082
84169.453727,689.132909,0.000000,-9877.571693
84169.456291,-306.281293,1225.125171,-9705.288466
84169.458855,325.423874,899.701298,-9954.142016
84169.461419,976.271621,382.851616,-10088.140082
84169.463983,421.136778,1301.695494,-9820.143950
84169.466547,1033.699363,689.132909,-9724.431046
84169.469111,555.134843,401.994197,-10030.712339
84169.471675,191.425808,1320.838075,-9839.286531
84169.474239,784.845813,478.564520,-9896.714274
84169.476803,823.130974,440.279358,-10068.997501
84169.479366,114.855485,1225.125171,-9743.573627
84169.481930,727.418070,516.849682,-10030.712339
84169.484494,631.705166,440.279358,-10183.852986
84169.487058,784.845813,1550.549045,-9801.001370
84169.489622,421.136778,38.285162,-10145.567824
84169.492186,153.140646,459.421939,-9781.858789
84169.494750,1282.552914,1895.115499,-9647.860723
84169.497314,459.421939,-382.851616,-10126.425243
84169.499878,-325.423874,1091.127106,-9934.999435
84169.502441,669.990328,1301.695494,-9762.716208
84169.505005,765.703232,-114.855485,-10222.138147
84169.507569,363.709035,1416.550979,-9858.429112
84169.510133,689.132909,535.992262,-9705.288466
84169.512697,306.281293,784.845813,-10126.425243
84169.515261,172.283227,784.845813,-9934.999435
84169.517825,650.847747,976.271621,-9705.288466
84169.520389,267.996131,344.566454,-9992.427178
84169.522952,459.421939,995.414202,-9839.286531
84169.525516,401.994197,1014.556782,-9839.286531
84169.528080,440.279358,191.425808,-10145.567824
84169.530644,650.847747,1071.984525,-9743.573627
84169.533208,516.849682,995.414202,-9743.573627
84169.535772,612.562586,363.709035,-10126.425243
84169.538336,-153.140646,669.990328,-9896.714274
84169.540900,593.420005,1435.693560,-9724.431046
84169.543463,727.418070,-19.142581,-10145.567824
84169.546027,-440.279358,631.705166,-9820.143950
84169.548591,535.992262,1205.982590,-9647.860723
84169.551155,555.134843,-306.281293,-10222.138147
84169.553719,-19.142581,1244.267752,-9934.999435
84169.556283,1397.408398,746.560651,-9628.718142
84169.558847,593.420005,114.855485,-10107.282662
84169.561411,210.568389,1186.840010,-9839.286531
84169.563975,842.273555,574.277424,-9915.856854
84169.566521,957.129040,823.130974,-9992.427178
84169.569068,306.281293,1091.127106,-9877.571693
84169.571614,210.568389,555.134843,-10068.997501
84169.574161,1014.556782,516.849682,-9801.001370
84169.576707,382.851616,1493.121302,-9667.003304
84169.579254,363.709035,229.710970,-10375.278794
84169.581800,631.705166,612.562586,-9724.431046
84169.584347,248.853550,1301.695494,-9571.290400
84169.586893,861.416136,459.421939,-10183.852986
84169.589440,612.562586,76.570323,-10088.140082
84169.591986,229.710970,1588.834206,-9705.288466
84169.594533,765.703232,-114.855485,-10241.280728
84169.597079,287.138712,555.134843,-10088.140082
84169.599626,555.134843,1244.267752,-9667.003304
84169.602172,765.703232,57.427742,-10107.282662
84169.604719,229.710970,612.562586,-9934.999435
84169.607265,325.423874,1148.554848,-9743.573627
84169.609812,153.140646,95.712904,-10260.423309
84169.612358,650.847747,937.986459,-9896.714274
84169.614905,516.849682,1014.556782,-9839.286531
84169.617451,0.000000,-172.283227,-10279.565890
84169.619998,746.560651,1263.410333,-9781.858789
84169.622544,650.847747,957.129040,-9781.858789
84169.625091,210.568389,382.851616,-10260.423309
84169.627637,861.416136,727.418070,-9820.143950
84169.630184,210.568389,765.703232,-9762.716208
84169.632730,114.855485,650.847747,-10011.569758
84169.635277,555.134843,899.701298,-9915.856854
84169.637823,267.996131,746.560651,-9781.858789
84169.640370,210.568389,861.416136,-9724.431046
84169.642916,76.570323,880.558717,-9954.142016
84169.645463,363.709035,1435.693560,-9877.571693
84169.648009,1091.127106,459.421939,-10068.997501
84169.650556,516.849682,746.560651,-9973.284597
84169.653102,746.560651,995.414202,-9533.005238
84169.655649,669.990328,440.279358,-10049.854920
84169.658195,133.998066,842.273555,-9858.429112
84169.660742,210.568389,823.130974,-9915.856854
84169.663288,976.271621,535.992262,-9954.142016
84169.665835,689.132909,1129.412267,-9705.288466
84169.668383,-114.855485,593.420005,-10049.854920
84169.670932,823.130974,191.425808,-10088.140082
84169.673480,631.705166,1646.261949,-9743.573627
84169.676029,153.140646,363.709035,-10202.995566
84169.678577,899.701298,382.851616,-9954.142016
84169.681126,401.994197,1225.125171,-9801.001370
84169.683674,191.425808,669.990328,-10260.423309
84169.686223,937.986459,325.423874,-9820.143950
84169.688771,57.427742,1301.695494,-9820.143950
84169.691320,650.847747,306.281293,-10088.140082
84169.693868,937.986459,210.568389,-9934.999435
84169.696417,-57.427742,1205.982590,-9667.003304
84169.698965,363.709035,440.279358,-10030.712339
84169.701513,248.853550,535.992262,-10068.997501
84169.704062,363.709035,1512.263883,-9571.290400
84169.706610,497.707101,153.140646,-10049.854920
84169.709159,459.421939,267.996131,-9934.999435
84169.711707,459.421939,1703.689691,-9590.432981
84169.714256,248.853550,-229.710970,-10260.423309
84169.716804,574.277424,1052.841944,-9781.858789
84169.719353,899.701298,1225.125171,-9628.718142
84169.721901,-440.279358,-287.138712,-10260.423309
84169.724450,650.847747,1339.980656,-9724.431046
84169.726998,803.988394,1014.556782,-9705.288466
84169.729547,-344.566454,38.285162,-10260.423309
84169.732095,344.566454,1378.265818,-9628.718142
84169.734644,746.560651,344.566454,-9839.286531
84169.737192,19.142581,918.843878,-10068.997501
84169.739740,1301.695494,861.416136,-9839.286531
84169.742289,803.988394,669.990328,-9858.429112
84169.744837,0.000000,689.132909,-9915.856854
84169.747386,1091.127106,727.418070,-9915.856854
84169.749934,918.843878,612.562586,-10088.140082
84169.752483,-133.998066,535.992262,-10107.282662
84169.755031,440.279358,1320.838075,-9743.573627
84169.757580,1244.267752,899.701298,-9858.429112
84169.760128,-248.853550,19.142581,-10088.140082
84169.762677,535.992262,1378.265818,-9743.573627
84169.765225,995.414202,765.703232,-9954.142016
84169.767774,-287.138712,-19.142581,-10279.565890
84169.770324,1091.127106,1741.974853,-9609.575562
84169.772874,861.416136,-133.998066,-10145.567824
84169.775424,-287.138712,803.988394,-10068.997501
84169.777975,535.992262,1493.121302,-9571.290400
84169.780525,669.990328,-76.570323,-10202.995566
84169.783075,593.420005,765.703232,-10049.854920
84169.785626,612.562586,861.416136,-9571.290400
84169.788176,325.423874,842.273555,-9992.427178
84169.790726,401.994197,382.851616,-10088.140082
84169.793277,-38.285162,1110.269686,-9820.143950
84169.795827,535.992262,784.845813,-10088.140082
84169.798377,497.707101,172.283227,-9954.142016
84169.800927,497.707101,1359.123237,-9686.145885
84169.803478,325.423874,440.279358,-10241.280728
84169.806028,689.132909,133.998066,-10030.712339
84169.808578,363.709035,1512.263883,-9609.575562
84169.811129,-172.283227,153.140646,-10241.280728
84169.813679,497.707101,631.705166,-9915.856854
84169.816229,631.705166,1244.267752,-9762.716208
84169.818780,842.273555,535.992262,-10183.852986
84169.821330,95.712904,-95.712904,-10088.140082
84169.823880,344.566454,1435.693560,-9705.288466
84169.826430,497.707101,-248.853550,-10164.710405
84169.828981,421.136778,784.845813,-10260.423309
84169.831531,937.986459,1129.412267,-9762.716208
84169.834081,708.275490,76.570323,-9934.999435
84169.836632,248.853550,669.990328,-10030.712339
84169.839182,631.705166,1301.695494,-9724.431046
84169.841732,861.416136,191.425808,-10222.138147
84169.844283,325.423874,803.988394,-10068.997501
84169.846833,631.705166,937.986459,-9628.718142
84169.849383,459.421939,248.853550,-10183.852986
84169.851933,669.990328,650.847747,-10030.712339
84169.854484,593.420005,1091.127106,-9820.143950
84169.857034,-76.570323,-19.142581,-10260.423309
84169.859584,1186.840010,1473.978722,-9571.290400
84169.862135,516.849682,516.849682,-9915.856854
84169.864685,287.138712,421.136778,-10298.708470
84169.867235,401.994197,861.416136,-9705.288466
84169.869785,497.707101,1378.265818,-9820.143950
84169.872338,708.275490,95.712904,-10164.710405
84169.874890,478.564520,1205.982590,-9571.290400
84169.877442,172.283227,842.273555,-9992.427178
84169.879994,267.996131,459.421939,-9896.714274
84169.882546,306.281293,1493.121302,-9743.573627
84169.885098,497.707101,650.847747,-9973.284597
84169.887650,478.564520,172.283227,-9858.429112
84169.890202,287.138712,1416.550979,-9724.431046
84169.892754,401.994197,746.560651,-10068.997501
84169.895306,612.562586,287.138712,-10011.569758
84169.897858,421.136778,1397.408398,-9724.431046
84169.900410,535.992262,555.134843,-10088.140082
84169.902963,0.000000,-172.283227,-10088.140082
84169.905515,689.132909,1818.545176,-9647.860723
84169.908067,1014.556782,287.138712,-10375.278794
84169.910619,-229.710970,-38.285162,-10222.138147
84169.913171,287.138712,1952.543242,-9399.007173
84169.915723,325.423874,-267.996131,-10222.138147
84169.918275,287.138712,823.130974,-10222.138147
84169.920827,1129.412267,1301.695494,-9647.860723
84169.923379,631.705166,0.000000,-10126.425243
84169.925931,267.996131,727.418070,-10088.140082
84169.928483,937.986459,1148.554848,-9667.003304
84169.931035,191.425808,95.712904,-10298.708470
84169.933587,593.420005,746.560651,-10049.854920
84169.936140,937.986459,1052.841944,-9647.860723
84169.938692,38.285162,153.140646,-10183.852986
84169.941244,612.562586,612.562586,-9858.429112
84169.943796,784.845813,1435.693560,-9705.288466
84169.946348,172.283227,267.996131,-10394.421374
84169.948900,823.130974,861.416136,-9705.288466
84169.951452,669.990328,1110.269686,-9743.573627
84169.954004,306.281293,-133.998066,-10260.423309
84169.956556,-133.998066,593.420005,-10030.712339
84169.959108,574.277424,1569.691626,-9743.573627
84169.961660,880.558717,172.283227,-10049.854920
84169.964212,248.853550,1129.412267,-9915.856854
84169.966764,631.705166,708.275490,-9590.432981
84169.969317,440.279358,344.566454,-10107.282662
84169.971869,363.709035,1110.269686,-9934.999435
84169.974422,325.423874,803.988394,-9820.143950
84169.976975,535.992262,382.851616,-10011.569758
84169.979529,267.996131,957.129040,-9724.431046
84169.982082,516.849682,1033.699363,-9820.143950
84169.984635,401.994197,114.855485,-10260.423309
84169.987189,497.707101,1071.984525,-9762.716208
84169.989742,861.416136,842.273555,-9820.143950
84169.992295,-306.281293,-287.138712,-10126.425243
84169.994848,382.851616,1646.261949,-9628.718142
84169.997402,1282.552914,440.279358,-10222.138147
84169.999955,-191.425808,-191.425808,-10183.852986
84170.002508,287.138712,1875.972918,-9437.292334
84170.005062,708.275490,-306.281293,-10107.282662
84170.007615,229.710970,593.420005,-10107.282662
