#time,accel_x,accel_y,accel_z
5469.372556,325.423874,114.855485,-9839.286531
5469.375108,1435.693560,-669.990328,-9877.571693
5469.377660,1895.115499,765.703232,-9456.434915
5469.380212,3311.666478,-210.568389,-10068.997501
5469.382764,2833.101958,-1646.261949,-9915.856854
5469.385316,363.709035,-2660.818731,-8920.442653
5469.387868,-957.129040,-5532.205851,-10126.425243
5469.390420,-363.709035,6049.055533,-10107.282662
5469.392991,1971.685822,4957.928427,-10413.563955
5469.395562,1014.556782,3828.516160,-8786.444587
5469.398132,3254.238736,-2431.107762,-9456.434915
5469.400703,-4153.940034,995.414202,-8729.016845
5469.403273,-746.560651,-1014.556782,-10949.556218
5469.405844,1646.261949,1320.838075,-10107.282662
5469.408415,-803.988394,6814.758765,-8212.167163
5469.410985,2143.969050,-3637.090352,-10145.567824
5469.413556,-114.855485,2584.248408,-8939.585234
5469.416126,-2163.111630,2775.674216,-9954.142016
5469.418697,-1359.123237,2718.246474,-10662.417506
5469.421268,708.275490,306.281293,-10030.712339
5469.423838,1837.687757,-267.996131,-8690.731683
5469.426409,1071.984525,-306.281293,-9533.005238
5469.428979,-918.843878,823.130974,-9934.999435
5469.431550,-1282.552914,2009.970984,-10566.704602
5469.434121,842.273555,1071.984525,-9973.284597
5469.436691,1014.556782,478.564520,-9054.440718
5469.439262,19.142581,325.423874,-9073.583299
5469.441833,-287.138712,918.843878,-9915.856854
5469.444403,76.570323,803.988394,-10470.991698
5469.446974,1607.976787,574.277424,-9858.429112
5469.449544,-2526.820666,1588.834206,-9245.866526
5469.452115,-2086.541307,-497.707101,-9533.005238
5469.454686,0.000000,2947.957443,-9341.579430
5469.457256,2679.961312,2699.103893,-10317.851051
5469.459827,-516.849682,5647.061336,-9934.999435
5469.462397,287.138712,5264.209720,-8767.302006
5469.464968,-1761.117434,-784.845813,-8805.587168
5469.467539,-76.570323,-3656.232933,-10202.995566
5469.470109,-19.142581,-2909.672282,-11102.696864
5469.472680,1569.691626,1454.836141,-9973.284597
5469.475251,497.707101,3751.945837,-9111.868461
5469.477821,937.986459,-1895.115499,-9743.573627
5469.480392,-727.418070,10164.710405,-7867.600709
5469.482962,823.130974,-133.998066,-11006.983960
5469.485533,4134.797453,-7216.752962,-11121.839445
5469.488104,-3349.951640,6604.190376,-8039.883936
5469.490674,1148.554848,-9820.143950,-11140.982026
5469.493245,880.558717,3407.379382,-8575.876198
5469.495823,2048.256146,172.283227,-10758.130410
5469.498401,229.710970,3158.525832,-9552.147819
5469.500980,4173.082614,2813.959378,-9303.294269
5469.503558,-1397.408398,2143.969050,-9054.440718
5469.506136,-1014.556782,-1091.127106,-9628.718142
5469.508715,1550.549045,-3120.240670,-10681.560086
5469.511293,1780.260014,-191.425808,-10528.419440
5469.513871,497.707101,3675.375514,-9111.868461
5469.516450,3330.809059,-650.847747,-9169.296203
5469.519028,535.992262,899.701298,-8920.442653
5469.521606,-76.570323,-2201.396792,-11026.126541
5469.524185,-612.562586,1780.260014,-9820.143950
5469.526763,1301.695494,1244.267752,-9475.577496
5469.529341,1780.260014,-1301.695494,-9552.147819
5469.531920,1110.269686,1454.836141,-9092.725880
5469.534498,95.712904,631.705166,-10107.282662
5469.537076,689.132909,708.275490,-10107.282662
5469.539655,555.134843,1225.125171,-9801.001370
5469.542233,918.843878,-229.710970,-9647.860723
5469.544811,1071.984525,287.138712,-9073.583299
5469.547390,-746.560651,1531.406464,-9705.288466
5469.549968,3713.660675,-1761.117434,-10585.847182
5469.552546,3847.658741,440.279358,-9667.003304
5469.555124,114.855485,-842.273555,-9839.286531
5469.557703,-880.558717,-459.421939,-9399.007173
5469.560281,535.992262,574.277424,-9379.864592
5469.562859,-995.414202,-2182.254211,-10470.991698
5469.565438,3905.086483,-2775.674216,-10892.128475
5469.568016,708.275490,2909.672282,-9073.583299
5469.570594,3560.520029,-899.701298,-9571.290400
5469.573173,-3235.096155,4862.215523,-8843.872330
5469.575751,1933.400661,-3139.383251,-10892.128475
5469.578329,3024.527766,2354.537438,-9437.292334
5469.580908,-746.560651,1378.265818,-9992.427178
5469.583486,2297.109696,-8633.303941,-11026.126541
5469.586064,-1531.406464,9513.862658,-7063.612315
5469.588643,-2277.967115,-3407.379382,-11006.983960
5469.591221,1818.545176,1895.115499,-10356.136213
5469.593799,765.703232,7465.606512,-8997.012976
5469.596378,-1378.265818,-325.423874,-9533.005238
5469.598962,-248.853550,2507.678085,-8920.442653
5469.601546,-2373.680019,3407.379382,-9322.436850
5469.604130,2277.967115,-4479.363907,-11102.696864
5469.606714,1320.838075,-248.853550,-10011.569758
5469.609298,-1722.832272,5111.069074,-8499.305875
5469.611882,-574.277424,937.986459,-9647.860723
5469.614466,535.992262,2660.818731,-9341.579430
5469.617050,0.000000,440.279358,-10298.708470
5469.619634,-1875.972918,-76.570323,-10470.991698
5469.622218,708.275490,2584.248408,-9131.011042
5469.624802,1895.115499,1569.691626,-9341.579430
5469.627387,344.566454,191.425808,-9896.714274
5469.629971,-267.996131,1799.402595,-9628.718142
5469.632555,248.853550,669.990328,-10088.140082
5469.635139,-363.709035,612.562586,-9724.431046
5469.637723,1186.840010,631.705166,-9188.438784
5469.640307,459.421939,861.416136,-9762.716208
5469.642891,-1033.699363,880.558717,-10011.569758
5469.645475,-210.568389,516.849682,-9896.714274
5469.648059,-1799.402595,2660.818731,-9379.864592
5469.650643,95.712904,2699.103893,-9667.003304
5469.653227,-19.142581,1301.695494,-9762.716208
5469.655811,-210.568389,2737.389054,-9762.716208
5469.658396,1741.974853,3483.949706,-9628.718142
5469.660980,-2354.537438,459.421939,-9054.440718
5469.663564,-38.285162,-2469.392923,-10279.565890
5469.666148,593.420005,-1627.119368,-10509.276859
5469.668732,153.140646,2833.101958,-9456.434915
5469.671316,401.994197,3177.668413,-9399.007173
5469.673900,1722.832272,-2603.390989,-10222.138147
5469.676484,-1799.402595,9628.718142,-7925.028451
5469.679068,-95.712904,-2411.965181,-10872.985894
5469.681652,4498.506488,-6259.623922,-10834.700733
5469.684236,-2526.820666,8173.882002,-8173.882002
5469.686820,1971.685822,-9571.290400,-11619.546546
5469.689405,38.285162,4019.941968,-8556.733618
5469.691989,1741.974853,-937.986459,-10336.993632
5469.694573,153.140646,2507.678085,-9284.151688
5469.697157,5264.209720,2469.392923,-9341.579430
5469.699741,-1244.267752,2775.674216,-9073.583299
5469.702329,-2258.824534,-1722.832272,-9973.284597
5469.704916,3062.812928,-4441.078746,-10758.130410
5469.707503,918.843878,3426.521963,-9265.009107
5469.710091,1014.556782,1339.980656,-9781.858789
5469.712678,2029.113565,459.421939,-9245.866526
5469.715265,2431.107762,153.140646,-9188.438784
5469.717853,-727.418070,-478.564520,-10107.282662
5469.720440,210.568389,-957.129040,-10394.421374
5469.723027,937.986459,1263.410333,-9705.288466
5469.725615,1722.832272,248.853550,-9609.575562
5469.728202,899.701298,478.564520,-9188.438784
5469.730789,325.423874,669.990328,-9858.429112
5469.733377,555.134843,899.701298,-10107.282662
5469.735964,823.130974,1320.838075,-9743.573627
5469.738551,19.142581,401.994197,-9877.571693
5469.741139,2220.539373,-957.129040,-9341.579430
5469.743726,2967.100024,861.416136,-9418.149754
5469.746313,1971.685822,38.285162,-10164.710405
5469.748901,-1741.974853,1933.400661,-9839.286531
5469.751488,1914.258080,-2928.814862,-10222.138147
5469.754075,2297.109696,-574.277424,-8997.012976
5469.756663,-1378.265818,2469.392923,-8977.870395
5469.759250,3139.383251,-4709.074877,-10987.841379
5469.761837,382.851616,2641.676150,-9686.145885
5469.764425,2909.672282,-3885.943902,-10872.985894
5469.767012,-1129.412267,6106.483275,-8212.167163
5469.769599,401.994197,-363.709035,-9552.147819
5469.772187,5340.780043,-6259.623922,-11370.692995
5469.774774,-3235.096155,7599.604578,-8135.596840
5469.777362,-2354.537438,-4211.367776,-10413.563955
5469.779949,3254.238736,-3617.947771,-10662.417506
5469.782536,-3062.812928,10202.995566,-7982.456194
5469.785124,2201.396792,-4555.934230,-10968.698798
5469.787711,-2316.252277,8020.741355,-8786.444587
5469.790298,1512.263883,-344.566454,-10241.280728
5469.792886,-459.421939,631.705166,-9035.298138
5469.795473,957.129040,2852.244539,-9418.149754
5469.798060,1952.543242,440.279358,-10011.569758
5469.800648,-784.845813,-937.986459,-9762.716208
5469.803235,-976.271621,3215.953574,-9954.142016
5469.805823,-1148.554848,2756.531635,-9226.723946
5469.808411,823.130974,1818.545176,-9111.868461
5469.810999,746.560651,1627.119368,-9858.429112
5469.813587,-497.707101,-1435.693560,-10298.708470
5469.816175,-1301.695494,2622.533570,-9379.864592
5469.818763,784.845813,957.129040,-9934.999435
5469.821350,708.275490,708.275490,-9571.290400
5469.823938,708.275490,937.986459,-9226.723946
5469.826526,172.283227,899.701298,-10107.282662
5469.829114,114.855485,746.560651,-9915.856854
5469.831702,842.273555,555.134843,-9494.720077
5469.834290,-382.851616,1263.410333,-9533.005238
5469.836878,-1033.699363,1148.554848,-9896.714274
5469.839466,-1627.119368,3349.951640,-9609.575562
5469.842054,401.994197,-459.421939,-10049.854920
5469.844642,-1205.982590,4402.793584,-9322.436850
5469.847230,1569.691626,5321.637462,-9073.583299
5469.849818,-727.418070,-937.986459,-9915.856854
5469.852406,-574.277424,-1205.982590,-9877.571693
5469.854993,1167.697429,-478.564520,-10126.425243
5469.857581,-2124.826469,4670.789715,-8997.012976
5469.860169,1703.689691,-2220.539373,-10585.847182
5469.862757,1148.554848,4096.512291,-8863.014910
5469.865345,-4230.510357,2565.105827,-9513.862658
5469.867933,3637.090352,-7542.176835,-12251.251712
5469.870521,3828.516160,5340.780043,-8786.444587
5469.873109,-1301.695494,2737.389054,-8729.016845
5469.875697,3790.230998,-10356.136213,-11389.835576
5469.878285,-2277.967115,8097.311678,-7925.028451
5469.880873,3062.812928,-5111.069074,-11140.982026
5469.883461,-421.136778,3483.949706,-9169.296203
5469.886049,3483.949706,1320.838075,-10011.569758
5469.888636,995.414202,-2986.242605,-9973.284597
5469.891224,-1569.691626,1397.408398,-9188.438784
5469.893812,2526.820666,287.138712,-10164.710405
5469.896400,689.132909,2220.539373,-8977.870395
5469.898988,2565.105827,-2086.541307,-10700.702667
5469.901576,497.707101,1588.834206,-9494.720077
5469.904164,689.132909,-191.425808,-9226.723946
5469.906752,2277.967115,-153.140646,-9992.427178
5469.909341,1339.980656,114.855485,-9915.856854
5469.911929,172.283227,-76.570323,-9839.286531
5469.914518,401.994197,1014.556782,-9934.999435
5469.917107,287.138712,-210.568389,-9877.571693
5469.919695,861.416136,363.709035,-9322.436850
5469.922284,612.562586,1148.554848,-10490.134278
5469.924872,382.851616,421.136778,-10126.425243
5469.927461,1493.121302,516.849682,-9418.149754
5469.930050,2220.539373,-612.562586,-9647.860723
5469.932638,2909.672282,-803.988394,-9590.432981
5469.935227,-516.849682,3426.521963,-9628.718142
5469.937816,1799.402595,-3158.525832,-10892.128475
5469.940404,1990.828403,-248.853550,-9054.440718
5469.942993,-1914.258080,2297.109696,-8901.300072
5469.945582,1837.687757,-2411.965181,-9992.427178
5469.948170,689.132909,1607.976787,-9533.005238
5469.950759,3215.953574,-3560.520029,-11351.550414
5469.953347,-516.849682,4977.071008,-8671.589102
5469.955936,-746.560651,765.703232,-9341.579430
5469.958525,5111.069074,-1895.115499,-10068.997501
5469.961113,-4441.078746,6604.190376,-8595.018779
5469.963702,593.420005,-10107.282662,-11791.829773
5469.966291,3388.236802,3598.805190,-9379.864592
5469.968879,-3828.516160,11160.124606,-7561.319416
5469.971468,1703.689691,-4307.080680,-10872.985894
5469.974057,-2277.967115,6470.192310,-8824.729749
5469.976645,1933.400661,842.273555,-10222.138147
5469.979234,-248.853550,172.283227,-9494.720077
5469.981822,-1359.123237,4192.225195,-9092.725880
5469.984411,1684.547110,-3943.371645,-10509.276859
5469.987000,1588.834206,-784.845813,-9858.429112
5469.989588,-3981.656806,6125.625856,-9265.009107
5469.992177,-689.132909,229.710970,-10126.425243
5469.994766,842.273555,2718.246474,-9054.440718
5469.997354,765.703232,842.273555,-9705.288466
5469.999943,325.423874,-1397.408398,-10030.712339
5470.002532,-976.271621,3388.236802,-9284.151688
5470.005120,-574.277424,-306.281293,-10202.995566
5470.007709,459.421939,689.132909,-9781.858789
5470.010297,1818.545176,1990.828403,-9265.009107
5470.012884,-1033.699363,-287.138712,-9858.429112
5470.015471,325.423874,1186.840010,-9781.858789
5470.018058,306.281293,1818.545176,-9743.573627
5470.020645,-842.273555,1205.982590,-9820.143950
5470.023232,995.414202,478.564520,-9667.003304
5470.025819,-2469.392923,4709.074877,-8843.872330
5470.028406,-1091.127106,153.140646,-10317.851051
5470.030993,2450.250342,3139.383251,-9954.142016
5470.033580,-1282.552914,3522.234867,-8939.585234
5470.036167,0.000000,-3675.375514,-10241.280728
5470.038753,1339.980656,-497.707101,-9839.286531
5470.041340,574.277424,1646.261949,-9820.143950
5470.043927,-1110.269686,1569.691626,-10030.712339
5470.046514,1378.265818,-191.425808,-9934.999435
5470.049101,-4077.369710,9245.866526,-7714.460062
5470.051688,2431.107762,-6719.045861,-11734.402030
5470.054275,3751.945837,2603.390989,-9379.864592
5470.056862,-1837.687757,4326.223261,-8709.874264
5470.059449,4000.799387,-11045.269122,-11887.542677
5470.062036,-1435.693560,7484.749093,-7791.030386
5470.064623,3005.385186,-4211.367776,-10624.132344
5470.067209,-210.568389,2526.820666,-9303.294269
5470.069796,4709.074877,2737.389054,-9705.288466
5470.072383,-765.703232,-1052.841944,-9705.288466
5470.074970,-1416.550979,-2086.541307,-10030.712339
5470.077557,1933.400661,1033.699363,-9724.431046
5470.080144,1703.689691,-574.277424,-9513.862658
5470.082731,2813.959378,-1205.982590,-10490.134278
5470.085318,172.283227,2201.396792,-9379.864592
5470.087905,593.420005,-440.279358,-9513.862658
5470.090492,1378.265818,-57.427742,-9858.429112
5470.093078,1875.972918,1320.838075,-9743.573627
5470.095665,440.279358,-1071.984525,-9801.001370
5470.098252,1071.984525,823.130974,-9743.573627
5470.100839,191.425808,421.136778,-9877.571693
5470.103426,823.130974,325.423874,-9456.434915
5470.106013,1052.841944,612.562586,-9724.431046
5470.108600,1339.980656,-287.138712,-10088.140082
5470.111187,2411.965181,-114.855485,-9896.714274
5470.113774,516.849682,727.418070,-9418.149754
5470.116360,2775.674216,-1933.400661,-10356.136213
5470.118946,1818.545176,1837.687757,-9169.296203
5470.121531,-1722.832272,-2411.965181,-10107.282662
5470.124117,2603.390989,-4039.084549,-10796.415571
5470.126703,1148.554848,3522.234867,-8461.020714
5470.129289,1205.982590,823.130974,-9513.862658
5470.131875,1512.263883,-440.279358,-10164.710405
5470.134461,1186.840010,1435.693560,-9647.860723
5470.137047,-803.988394,3120.240670,-9111.868461
5470.139633,229.710970,-8039.883936,-11523.833642
5470.142218,1722.832272,1856.830338,-8824.729749
5470.144804,-1148.554848,5627.918755,-8939.585234
5470.147390,4364.508422,-8020.741355,-11485.548480
5470.149976,-2871.387120,11198.409768,-7714.460062
5470.152562,-325.423874,-1282.552914,-10777.272990
5470.155148,-2258.824534,3158.525832,-9188.438784
5470.157734,2316.252277,669.990328,-10068.997501
5470.160320,-650.847747,-669.990328,-9379.864592
5470.162905,-306.281293,4345.365842,-9590.432981
5470.165491,861.416136,3675.375514,-9399.007173
5470.168077,650.847747,-1339.980656,-9820.143950
5470.170663,-3101.098090,5225.924558,-9418.149754
5470.173249,-803.988394,-153.140646,-10470.991698
5470.175835,1263.410333,2545.963246,-9169.296203
5470.178421,497.707101,363.709035,-9781.858789
5470.181007,-76.570323,-995.414202,-10145.567824
5470.183592,-1301.695494,2277.967115,-9437.292334
5470.186178,-76.570323,1167.697429,-9934.999435
5470.188764,1110.269686,861.416136,-9647.860723
5470.191350,95.712904,650.847747,-9379.864592
5470.193936,-172.283227,574.277424,-9743.573627
5470.196522,-306.281293,1531.406464,-9858.429112
5470.199107,95.712904,1914.258080,-9647.860723
5470.201693,-1033.699363,267.996131,-9724.431046
5470.204278,-1416.550979,1933.400661,-9762.716208
5470.206864,-2526.820666,5761.916821,-9016.155557
5470.209449,3541.377448,-2871.387120,-10643.274925
5470.212035,-459.421939,5876.772306,-8786.444587
5470.214620,1282.552914,2201.396792,-9265.009107
5470.217206,-3273.381317,2124.826469,-8843.872330
5470.219791,2947.957443,-4364.508422,-11140.982026
5470.222377,-2220.539373,5513.063270,-8958.727814
5470.224962,1397.408398,-3464.807125,-10738.987829
5470.227548,1454.836141,6508.477472,-8939.585234
5470.230133,-229.710970,4689.932296,-8537.591037
5470.232719,4785.645200,-7695.317482,-11006.983960
5470.235304,-1244.267752,6355.336826,-9111.868461
5470.237890,-459.421939,861.416136,-9226.723946
5470.240475,765.703232,-6125.625856,-10777.272990
5470.243061,3043.670347,2565.105827,-9762.716208
5470.245646,880.558717,1339.980656,-9533.005238
5470.248232,3541.377448,1607.976787,-9418.149754
5470.250818,-1110.269686,3943.371645,-9054.440718
5470.253403,-1473.978722,-3369.094221,-10241.280728
5470.255989,3024.527766,-995.414202,-10413.563955
5470.258574,1378.265818,191.425808,-9571.290400
5470.261160,1263.410333,-3445.664544,-10432.706536
5470.263745,287.138712,3349.951640,-9016.155557
5470.266331,631.705166,612.562586,-9590.432981
5470.268916,1416.550979,-248.853550,-10011.569758
5470.271502,1225.125171,1722.832272,-9781.858789
5470.274087,727.418070,-1971.685822,-10049.854920
5470.276673,1148.554848,1033.699363,-9494.720077
5470.279258,-401.994197,535.992262,-10183.852986
5470.281844,1722.832272,114.855485,-9628.718142
5470.284429,2009.970984,669.990328,-9762.716208
5470.287015,1665.404530,-842.273555,-10030.712339
5470.289600,765.703232,1607.976787,-9494.720077
5470.292186,2182.254211,114.855485,-9667.003304
5470.294771,2909.672282,-3426.521963,-10164.710405
5470.297357,-1435.693560,4192.225195,-8863.014910
5470.299942,1052.841944,-4843.072942,-10604.989763
5470.302527,-248.853550,-1665.404530,-9781.858789
5470.305112,4230.510357,-535.992262,-10470.991698
5470.307697,-1761.117434,5436.492947,-8901.300072
5470.310282,612.562586,-2526.820666,-10145.567824
5470.312867,3541.377448,2507.678085,-9245.866526
5470.315452,-2373.680019,3579.662610,-9245.866526
5470.318037,2450.250342,-10796.415571,-12078.968485
5470.320622,1129.412267,7580.461997,-8212.167163
5470.323207,-1722.832272,-267.996131,-10126.425243
5470.325792,746.560651,1301.695494,-9743.573627
5470.328377,-248.853550,7867.600709,-8480.163294
5470.330962,-2048.256146,325.423874,-10011.569758
5470.333547,995.414202,95.712904,-10298.708470
5470.336132,-2143.969050,1741.974853,-9647.860723
5470.338717,2182.254211,-5972.485210,-11160.124606
5470.341302,382.851616,4211.367776,-8748.159426
5470.343887,-306.281293,2316.252277,-9341.579430
5470.346472,-2584.248408,4441.078746,-9724.431046
5470.349057,-440.279358,1627.119368,-10126.425243
5470.351642,1282.552914,306.281293,-9456.434915
5470.354227,1148.554848,382.851616,-9781.858789
5470.356812,-976.271621,210.568389,-10068.997501
5470.359397,-593.420005,727.418070,-10107.282662
5470.361982,937.986459,1397.408398,-9571.290400
5470.364567,842.273555,612.562586,-9399.007173
5470.367152,248.853550,478.564520,-9934.999435
5470.369737,-612.562586,1684.547110,-9781.858789
5470.372322,-191.425808,172.283227,-9877.571693
5470.374907,-2871.387120,3158.525832,-9494.720077
5470.377492,-2545.963246,2699.103893,-9494.720077
5470.380077,2679.961312,1837.687757,-9667.003304
5470.382662,-57.427742,4421.936165,-9341.579430
5470.385247,-1110.269686,-1225.125171,-10336.993632
5470.387832,76.570323,-2584.248408,-10202.995566
5470.390417,-1703.689691,4077.369710,-9016.155557
5470.393002,708.275490,-2258.824534,-10298.708470
5470.395587,2067.398726,3656.232933,-9188.438784
5470.398172,-3407.379382,5455.635528,-9341.579430
5470.400757,4000.799387,-7599.604578,-11294.122672
5470.403342,1473.978722,10432.706536,-7848.458128
5470.405925,-1607.976787,-2067.398726,-10260.423309
5470.408508,4670.789715,-10681.560086,-11887.542677
5470.411091,-995.414202,7006.184573,-8039.883936
5470.413674,2545.963246,-4345.365842,-10681.560086
5470.416257,-631.705166,937.986459,-9628.718142
5470.418839,2009.970984,2469.392923,-9934.999435
5470.421422,2297.109696,-3464.807125,-10279.565890
5470.424005,-669.990328,4364.508422,-8690.731683
5470.426588,-784.845813,1186.840010,-9839.286531
5470.429171,3828.516160,-3292.523898,-10126.425243
5470.431754,1818.545176,2967.100024,-9188.438784
5470.434337,-172.283227,-2392.822600,-10279.565890
5470.436920,57.427742,1339.980656,-9379.864592
5470.439503,421.136778,1799.402595,-9839.286531
5470.442085,1837.687757,-1339.980656,-10088.140082
5470.444668,1473.978722,1741.974853,-9322.436850
5470.447251,19.142581,-440.279358,-9915.856854
5470.449834,784.845813,478.564520,-9686.145885
5470.452417,191.425808,1091.127106,-9839.286531
5470.455000,2258.824534,-880.558717,-9954.142016
5470.457583,535.992262,1895.115499,-9226.723946
5470.460166,3560.520029,-2201.396792,-10432.706536
5470.462749,2641.676150,612.562586,-9303.294269
5470.465331,-2641.676150,516.849682,-9724.431046
5470.467914,2201.396792,-5053.641331,-11083.554283
5470.470497,1416.550979,3024.527766,-8327.022648
5470.473080,-57.427742,784.845813,-9609.575562
5470.475663,3924.229064,-4498.506488,-11045.269122
5470.478246,287.138712,4919.643266,-8977.870395
5470.480829,-1512.263883,-1071.984525,-9092.725880
5470.483412,3388.236802,-6948.756830,-10987.841379
5470.485995,-937.986459,8499.305875,-7503.891674
5470.488577,-1263.410333,-995.414202,-10336.993632
5470.491160,3101.098090,-4613.361973,-11294.122672
5470.493743,-3407.379382,9724.431046,-7848.458128
5470.496326,1339.980656,-5436.492947,-11045.269122
5470.498909,-1761.117434,6623.332957,-8652.446522
5470.501492,1416.550979,3005.385186,-9437.292334
5470.504075,555.134843,19.142581,-9724.431046
5470.506658,-1761.117434,5551.348432,-8671.589102
5470.509239,899.701298,-3617.947771,-10853.843314
5470.511820,1091.127106,-995.414202,-9954.142016
5470.514402,-1320.838075,3254.238736,-9399.007173
5470.516983,-2431.107762,3254.238736,-9494.720077
5470.519564,459.421939,2737.389054,-9801.001370
5470.522146,1493.121302,-593.420005,-9762.716208
5470.524727,1359.123237,861.416136,-9073.583299
5470.527308,-574.277424,1110.269686,-10260.423309
5470.529890,-899.701298,803.988394,-9954.142016
5470.532471,612.562586,861.416136,-9245.866526
5470.535053,1569.691626,708.275490,-9571.290400
5470.537634,535.992262,440.279358,-10011.569758
5470.540215,-2450.250342,2833.101958,-9628.718142
5470.542797,-2220.539373,1550.549045,-9973.284597
5470.545378,-1531.406464,2909.672282,-9226.723946
5470.547959,2967.100024,306.281293,-9877.571693
5470.550541,191.425808,5091.926493,-9169.296203
5470.553122,-880.558717,937.986459,-10183.852986
5470.555703,-3790.230998,1454.836141,-9226.723946
5470.558285,2718.246474,-2431.107762,-10356.136213
5470.560866,-1320.838075,2967.100024,-9533.005238
5470.563447,2316.252277,-3732.803256,-10547.562021
5470.566029,-3254.238736,9609.575562,-8193.024582
5470.568610,57.427742,-2890.529701,-10834.700733
5470.571191,3235.096155,-1225.125171,-9724.431046
5470.573773,-1895.115499,6642.475538,-8633.303941
5470.576354,4747.360038,-10662.417506,-11887.542677
5470.578935,784.845813,-325.423874,-9265.009107
5470.581517,2201.396792,976.271621,-10126.425243
5470.584098,-153.140646,1416.550979,-9169.296203
5470.586680,3388.236802,2603.390989,-9590.432981
5470.589261,631.705166,-2718.246474,-10356.136213
5470.591842,-306.281293,-995.414202,-9475.577496
5470.594424,-1052.841944,3483.949706,-9399.007173
5470.597005,4019.941968,-2182.254211,-10222.138147
5470.599586,2507.678085,1186.840010,-9245.866526
5470.602168,1110.269686,-2392.822600,-10164.710405
5470.604749,-421.136778,1033.699363,-9839.286531
5470.607330,-478.564520,1225.125171,-9781.858789
5470.609912,2182.254211,-1033.699363,-10298.708470
5470.612492,1684.547110,1569.691626,-9360.722011
5470.615073,727.418070,0.000000,-9743.573627
5470.617653,-76.570323,363.709035,-9877.571693
5470.620234,880.558717,555.134843,-9762.716208
5470.622814,2009.970984,899.701298,-9571.290400
5470.625395,3771.088418,-765.703232,-9896.714274
5470.627976,3235.096155,-1473.978722,-10088.140082
5470.630556,-2928.814862,3254.238736,-9035.298138
5470.633137,344.566454,-5111.069074,-11045.269122
5470.635717,1684.547110,-440.279358,-9188.438784
5470.638298,3790.230998,2335.394858,-9303.294269
5470.640878,535.992262,-1665.404530,-10470.991698
5470.643459,1646.261949,612.562586,-9533.005238
5470.646039,-1550.549045,3866.801322,-9284.151688
5470.648620,3598.805190,-6680.760699,-11236.694930
5470.651200,-1014.556782,9016.155557,-7350.751027
5470.653781,-880.558717,7580.461997,-8863.014910
5470.656362,3751.945837,-7714.460062,-11083.554283
5470.658942,-3694.518094,9954.142016,-7810.172966
5470.661523,-497.707101,-2163.111630,-11102.696864
5470.664103,-2086.541307,2086.541307,-9303.294269
5470.666684,2813.959378,3024.527766,-9379.864592
5470.669264,593.420005,19.142581,-9705.288466
5470.671845,-2679.961312,4881.358104,-8863.014910
5470.674425,478.564520,-4766.502619,-11294.122672
5470.677006,1684.547110,-2201.396792,-10030.712339
5470.679586,-803.988394,2756.531635,-9341.579430
5470.682167,-2335.394858,1703.689691,-10145.567824
5470.684748,-382.851616,3196.810994,-9494.720077
5470.687328,1167.697429,-593.420005,-9647.860723
5470.689909,631.705166,1320.838075,-9399.007173
5470.692489,191.425808,421.136778,-10241.280728
5470.695070,-153.140646,1282.552914,-9934.999435
5470.697650,306.281293,803.988394,-8997.012976
5470.700231,440.279358,535.992262,-9609.575562
5470.702811,-555.134843,1990.828403,-10375.278794
5470.705392,-2469.392923,3120.240670,-9322.436850
5470.707973,-2411.965181,1646.261949,-9571.290400
5470.710553,1914.258080,-746.560651,-9877.571693
5470.713134,38.285162,5091.926493,-10145.567824
5470.715711,1473.978722,3235.096155,-9743.573627
5470.718290,-3541.377448,4345.365842,-8365.307810
5470.720869,2986.242605,-4421.936165,-10643.274925
5470.723447,-2277.967115,3828.516160,-9226.723946
5470.726026,1569.691626,-4823.930362,-10930.413637
5470.728605,-1339.980656,8709.874264,-8480.163294
5470.731184,-95.712904,-153.140646,-10164.710405
5470.733763,3732.803256,-3809.373579,-9954.142016
5470.736342,-2775.674216,6049.055533,-8997.012976
5470.738920,-1435.693560,-4441.078746,-10509.276859
5470.741499,574.277424,-2431.107762,-9762.716208
5470.744078,3101.098090,1454.836141,-9992.427178
5470.746657,114.855485,1550.549045,-8997.012976
5470.749236,2545.963246,2392.822600,-9571.290400
5470.751815,823.130974,-2105.683888,-10356.136213
5470.754393,-210.568389,-1473.978722,-9801.001370
5470.756972,-1282.552914,3407.379382,-9513.862658
5470.759551,3043.670347,-1741.974853,-10088.140082
5470.762130,2775.674216,-1091.127106,-9150.153622
5470.764709,1129.412267,1320.838075,-9762.716208
5470.767288,-823.130974,382.851616,-10011.569758
5470.769866,-497.707101,1263.410333,-9647.860723
5470.772445,2029.113565,-267.996131,-9954.142016
5470.775024,1684.547110,612.562586,-9418.149754
5470.777603,708.275490,1014.556782,-9724.431046
5470.780182,-1014.556782,-38.285162,-9973.284597
5470.782761,3235.096155,708.275490,-9360.722011
5470.785339,3043.670347,-497.707101,-9801.001370
5470.787918,3158.525832,-1914.258080,-10356.136213
5470.790497,-2373.680019,2584.248408,-9360.722011
5470.793076,612.562586,-2986.242605,-10107.282662
5470.795655,1416.550979,-1569.691626,-9284.151688
5470.798234,2507.678085,2239.681954,-9188.438784
5470.800812,2009.970984,-2967.100024,-10834.700733
5470.803391,1033.699363,957.129040,-9667.003304
5470.805970,-1301.695494,2354.537438,-9341.579430
5470.808549,3981.656806,-4613.361973,-10719.845248
5470.811128,1837.687757,3943.371645,-8901.300072
5470.813707,-1033.699363,5589.633594,-9379.864592
5470.816285,3943.371645,-7676.174901,-11236.694930
5470.818863,-4268.795518,9131.011042,-7791.030386
5470.821441,76.570323,-3503.092286,-11198.409768
5470.824019,-1837.687757,4115.654872,-9073.583299
5470.826596,2526.820666,3943.371645,-9169.296203
5470.829174,631.705166,38.285162,-9667.003304
5470.831752,-2679.961312,1933.400661,-9533.005238
5470.834330,957.129040,-4192.225195,-11026.126541
5470.836907,1014.556782,708.275490,-9513.862658
5470.839485,57.427742,2660.818731,-9207.581365
5470.842063,-57.427742,363.709035,-10068.997501
5470.844640,-1990.828403,5379.065205,-9092.725880
5470.847218,229.710970,-746.560651,-10030.712339
5470.849796,1397.408398,95.712904,-9379.864592
5470.852374,574.277424,2067.398726,-9647.860723
5470.854951,114.855485,-880.558717,-10298.708470
5470.857529,-516.849682,1550.549045,-9303.294269
5470.860107,650.847747,708.275490,-9360.722011
5470.862685,-1225.125171,2201.396792,-10011.569758
5470.865262,-2239.681954,2163.111630,-9820.143950
5470.867840,1684.547110,-784.845813,-9820.143950
5470.870418,-1990.828403,6987.041992,-8518.448456
5470.872996,-1416.550979,1512.263883,-10222.138147
5470.875573,2105.683888,-2660.818731,-10241.280728
5470.878151,-1416.550979,4632.504554,-8958.727814
5470.880729,1225.125171,-3637.090352,-10719.845248
5470.883307,689.132909,-708.275490,-9724.431046
5470.885884,-4402.793584,7484.749093,-8748.159426
5470.888462,4938.785846,-6699.903280,-11562.118803
5470.891040,3598.805190,7637.889739,-8307.880067
5470.893617,-1129.412267,421.136778,-9781.858789
5470.896195,2737.389054,-7121.040058,-10719.845248
5470.898773,-2105.683888,6967.899411,-8116.454259
5470.901351,957.129040,-7408.178770,-11600.403965
5470.903928,2545.963246,210.568389,-9762.716208
5470.906506,1167.697429,2813.959378,-9571.290400
5470.909084,2526.820666,-3790.230998,-10528.419440
5470.911662,-727.418070,6049.055533,-8135.596840
5470.914239,-593.420005,-669.990328,-10317.851051
5470.916817,1665.404530,-1933.400661,-10202.995566
5470.919395,3809.373579,1052.841944,-9552.147819
5470.921971,1435.693560,-3024.527766,-9992.427178
5470.924547,708.275490,2105.683888,-9226.723946
5470.927123,-746.560651,957.129040,-10241.280728
5470.929699,976.271621,-306.281293,-9705.288466
5470.932275,1263.410333,689.132909,-9705.288466
5470.934851,842.273555,823.130974,-10068.997501
5470.937427,957.129040,306.281293,-9571.290400
5470.940003,1282.552914,95.712904,-9418.149754
5470.942580,3790.230998,-1722.832272,-10126.425243
5470.945156,2641.676150,1588.834206,-9456.434915
5470.947732,-669.990328,2584.248408,-9781.858789
5470.950308,937.986459,-3215.953574,-9762.716208
5470.952884,-191.425808,-2699.103893,-9245.866526
5470.955460,3981.656806,-2297.109696,-10509.276859
5470.958036,-1933.400661,4689.932296,-9092.725880
5470.960612,3713.660675,-2335.394858,-10681.560086
5470.963188,57.427742,7465.606512,-8039.883936
5470.965764,-1837.687757,-3235.096155,-10164.710405
5470.968340,1665.404530,-3579.662610,-10738.987829
5470.970916,-3120.240670,9820.143950,-8499.305875
5470.973493,2794.816797,-7350.751027,-11255.837510
5470.976069,-880.558717,7484.749093,-8346.165229
5470.978645,-57.427742,-574.277424,-10490.134278
5470.981221,-2584.248408,248.853550,-9207.581365
5470.983797,880.558717,325.423874,-10662.417506
5470.986373,1339.980656,1014.556782,-9513.862658
5470.988949,-2852.244539,4823.930362,-8824.729749
5470.991525,248.853550,-1588.834206,-10624.132344
5470.994101,1646.261949,-440.279358,-9360.722011
5470.996677,-57.427742,1837.687757,-9724.431046
5470.999253,-401.994197,803.988394,-10451.849117
5471.001829,-1627.119368,3694.518094,-9092.725880
5471.004405,248.853550,440.279358,-9915.856854
5471.006982,746.560651,669.990328,-9399.007173
5471.009558,746.560651,1435.693560,-9705.288466
5471.012134,-746.560651,363.709035,-10566.704602
5471.014710,-478.564520,1799.402595,-9265.009107
5471.017286,-1263.410333,2124.826469,-9379.864592
5471.019862,-1416.550979,1148.554848,-10126.425243
5471.022438,1684.547110,-248.853550,-9781.858789
5471.025013,-1895.115499,6221.338760,-8824.729749
5471.027589,-2277.967115,2737.389054,-10068.997501
5471.030164,-1148.554848,669.990328,-9379.864592
5471.032739,1818.545176,287.138712,-9954.142016
5471.035315,555.134843,-1320.838075,-10183.852986
5471.037890,440.279358,-19.142581,-9609.575562
5471.040465,-4785.645200,6010.770371,-9188.438784
5471.043041,4594.219392,-6565.905214,-11389.835576
5471.045616,3369.094221,9628.718142,-7580.461997
5471.048192,-689.132909,-937.986459,-10107.282662
5471.050767,2641.676150,-6163.911018,-10566.704602
5471.053342,-1282.552914,6431.907149,-8173.882002
5471.055918,1971.685822,-3656.232933,-10834.700733
5471.058493,-19.142581,-689.132909,-9743.573627
5471.061068,2469.392923,2622.533570,-9437.292334
5471.063644,3866.801322,-2335.394858,-10164.710405
5471.066219,-1301.695494,5800.201982,-8231.309744
5471.068794,-555.134843,-2297.109696,-10490.134278
5471.071370,880.558717,-1301.695494,-10279.565890
5471.073945,1856.830338,861.416136,-9877.571693
5471.076520,3522.234867,-2947.957443,-9954.142016
5471.079096,459.421939,1856.830338,-9226.723946
5471.081671,382.851616,1167.697429,-10336.993632
5471.084246,267.996131,210.568389,-9801.001370
5471.086822,363.709035,1186.840010,-9533.005238
5471.089397,2163.111630,133.998066,-9839.286531
5471.091972,631.705166,153.140646,-9590.432981
5471.094548,2411.965181,-861.416136,-9705.288466
5471.097123,2488.535504,899.701298,-9667.003304
5471.099698,-765.703232,2392.822600,-9839.286531
5471.102274,2794.816797,-3866.801322,-10413.563955
5471.104849,459.421939,-3617.947771,-9590.432981
5471.107424,2029.113565,-995.414202,-9954.142016
5471.110000,-1148.554848,516.849682,-9973.284597
5471.112575,2986.242605,-708.275490,-10164.710405
5471.115151,19.142581,5570.491013,-9016.155557
5471.117726,-1014.556782,-5072.783912,-10356.136213
5471.120301,937.986459,-727.418070,-9839.286531
5471.122877,-2737.389054,8556.733618,-8882.157491
5471.125452,3771.088418,-7561.319416,-11313.265253
5471.128027,-2143.969050,8346.165229,-8307.880067
5471.130601,440.279358,-2526.820666,-10700.702667
5471.133176,-2488.535504,1875.972918,-8882.157491
5471.135751,1952.543242,4039.084549,-9590.432981
5471.138325,210.568389,880.558717,-9992.427178
5471.140900,-2526.820666,3905.086483,-8882.157491
5471.143475,746.560651,-2947.957443,-11370.692995
5471.146049,612.562586,2335.394858,-8671.589102
5471.148624,478.564520,1263.410333,-9341.579430
5471.151199,344.566454,727.418070,-10490.134278
5471.153773,-1741.974853,3637.090352,-9494.720077
5471.156348,-267.996131,-153.140646,-9590.432981
5471.158923,1397.408398,1052.841944,-9590.432981
5471.161497,-229.710970,803.988394,-9801.001370
5471.164072,-287.138712,440.279358,-9858.429112
5471.166647,-765.703232,1971.685822,-9533.005238
5471.169221,-1512.263883,1875.972918,-9647.860723
5471.171796,1512.263883,133.998066,-9801.001370
5471.174371,-1952.543242,5895.914886,-8709.874264
5471.176945,-1684.547110,325.423874,-10547.562021
5471.179520,2067.398726,57.427742,-10049.854920
5471.182095,-3196.810994,7791.030386,-8135.596840
5471.184669,4536.791650,-4211.367776,-10700.702667
5471.187244,-2029.113565,3962.514226,-8709.874264
5471.189819,-1052.841944,-2909.672282,-10911.271056
5471.192393,880.558717,1186.840010,-10068.997501
5471.194968,-631.705166,8059.026517,-8307.880067
5471.197543,6144.768437,-8518.448456,-11389.835576
5471.200117,861.416136,5972.485210,-8652.446522
5471.202692,-842.273555,-3617.947771,-10107.282662
5471.205267,-95.712904,-1990.828403,-9934.999435
5471.207841,2603.390989,842.273555,-10432.706536
5471.210416,593.420005,918.843878,-8939.585234
5471.212991,1741.974853,1091.127106,-9762.716208
5471.215565,1703.689691,-1225.125171,-9954.142016
5471.218140,-38.285162,-650.847747,-9686.145885
5471.220715,-1186.840010,2143.969050,-10088.140082
5471.223289,1741.974853,-1129.412267,-10107.282662
5471.225864,2718.246474,1569.691626,-8748.159426
5471.228439,2201.396792,-1703.689691,-10126.425243
5471.231012,-153.140646,880.558717,-9533.005238
5471.233585,459.421939,842.273555,-9915.856854
5471.236159,1071.984525,612.562586,-10088.140082
5471.238732,1071.984525,1129.412267,-9131.011042
5471.241305,2124.826469,-842.273555,-10030.712339
5471.243878,2258.824534,-555.134843,-9609.575562
5471.246451,574.277424,689.132909,-9590.432981
5471.249025,1014.556782,803.988394,-10260.423309
5471.251598,2182.254211,-76.570323,-9456.434915
5471.254171,535.992262,-4326.223261,-9801.001370
5471.256744,3177.668413,-2220.539373,-9820.143950
5471.259318,-2450.250342,1703.689691,-9456.434915
5471.261891,2909.672282,-1952.543242,-10738.987829
5471.264464,842.273555,7637.889739,-8575.876198
5471.267037,-631.705166,-3215.953574,-10126.425243
5471.269611,1320.838075,-2833.101958,-10107.282662
5471.272184,-3694.518094,9954.142016,-8193.024582
5471.274757,3215.953574,-7561.319416,-11562.118803
5471.277330,-1952.543242,7216.752962,-8824.729749
5471.279903,344.566454,-1129.412267,-10528.419440
5471.282477,-1799.402595,861.416136,-8748.159426
5471.285050,1646.261949,4728.217458,-9341.579430
5471.287623,727.418070,2373.680019,-9207.581365
5471.290196,-3713.660675,2565.105827,-9284.151688
5471.292770,899.701298,-1875.972918,-11179.267187
5471.295343,344.566454,3273.381317,-8499.305875
5471.297916,1397.408398,114.855485,-9360.722011
5471.300489,-306.281293,1741.974853,-10279.565890
5471.303062,-1091.127106,1761.117434,-9858.429112
5471.305636,-803.988394,1799.402595,-9360.722011
5471.308209,1205.982590,-516.849682,-9896.714274
5471.310782,133.998066,1684.547110,-9265.009107
5471.313355,-76.570323,459.421939,-10164.710405
5471.315929,-1473.978722,2392.822600,-9686.145885
5471.318502,516.849682,1473.978722,-9437.292334
5471.321075,-2029.113565,2182.254211,-9762.716208
5471.323648,-1225.125171,1454.836141,-9839.286531
5471.326222,1225.125171,4536.791650,-9437.292334
5471.328795,-2220.539373,3503.092286,-9418.149754
5471.331368,1722.832272,-1569.691626,-10260.423309
5471.333940,1110.269686,133.998066,-9647.860723
5471.336513,382.851616,-4804.787781,-10738.987829
5471.339085,-4096.512291,6412.764568,-9016.155557
5471.341658,1493.121302,-1531.406464,-10777.272990
5471.344230,4709.074877,-516.849682,-9705.288466
5471.346802,-1952.543242,7255.038123,-8135.596840
5471.349375,3713.660675,-9418.149754,-11447.263318
5471.351947,-1129.412267,4613.361973,-8346.165229
5471.354519,1799.402595,-2833.101958,-10872.985894
5471.357092,401.994197,-995.414202,-10011.569758
5471.359664,1684.547110,823.130974,-9686.145885
5471.362237,3924.229064,-2526.820666,-10260.423309
5471.364809,-478.564520,4632.504554,-7963.313613
5471.367381,-421.136778,-1684.547110,-10853.843314
5471.369954,689.132909,-842.273555,-10413.563955
5471.372526,1818.545176,784.845813,-9513.862658
5471.375099,2450.250342,-1607.976787,-9590.432981
5471.377671,172.283227,842.273555,-9475.577496
5471.380243,-38.285162,1741.974853,-9801.001370
5471.382816,784.845813,114.855485,-10049.854920
5471.385388,899.701298,1435.693560,-9418.149754
5471.387960,2584.248408,-995.414202,-9552.147819
5471.390533,2679.961312,-133.998066,-9647.860723
5471.393105,-1186.840010,976.271621,-9743.573627
5471.395678,2411.965181,-2220.539373,-10719.845248
5471.398250,3024.527766,1091.127106,-9475.577496
5471.400822,-574.277424,-19.142581,-9360.722011
5471.403395,3445.664544,-7925.028451,-10853.843314
5471.405967,-3024.527766,4977.071008,-8709.874264
5471.408540,3369.094221,-3330.809059,-11236.694930
5471.411112,3866.801322,2163.111630,-9724.431046
5471.413684,-2239.681954,7178.467800,-8441.878133
5471.416223,2182.254211,-9533.005238,-10987.841379
5471.418763,-669.990328,7829.315547,-7963.313613
5471.421302,-1186.840010,-1033.699363,-10949.556218
5471.423841,-344.566454,1703.689691,-10088.140082
5471.426380,937.986459,4249.652938,-9054.440718
5471.428919,-1263.410333,-727.418070,-9609.575562
5471.431459,784.845813,765.703232,-10202.995566
5471.433998,631.705166,2201.396792,-9781.858789
5471.436537,-3847.658741,3369.094221,-9801.001370
5471.439076,440.279358,-2143.969050,-10451.849117
5471.441615,1244.267752,3809.373579,-8595.018779
5471.444154,746.560651,995.414202,-9552.147819
5471.446694,-95.712904,306.281293,-10145.567824
5471.449233,-803.988394,2622.533570,-9628.718142
5471.451772,-899.701298,-133.998066,-9973.284597
5471.454311,1320.838075,1091.127106,-9303.294269
5471.456850,516.849682,1129.412267,-9781.858789
5471.459389,-784.845813,1052.841944,-9743.573627
5471.461929,172.283227,1761.117434,-9399.007173
5471.464468,-2909.672282,2871.387120,-9877.571693
5471.467007,-1550.549045,0.000000,-10068.997501
5471.469546,1110.269686,6068.198114,-8767.302006
5471.472085,-995.414202,3235.096155,-9647.860723
5471.474624,937.986459,-1301.695494,-10222.138147
5471.477164,1856.830338,-325.423874,-9801.001370
5471.479703,-401.994197,899.701298,-9762.716208
5471.482242,-5474.778109,5915.057467,-8786.444587
5471.484781,3809.373579,-4230.510357,-11389.835576
5471.487320,4881.358104,4498.506488,-8805.587168
5471.489859,-1052.841944,3407.379382,-8958.727814
5471.492399,3503.092286,-8327.022648,-11140.982026
5471.494938,-2163.111630,6336.194245,-8020.741355
5471.497477,593.420005,-5225.924558,-11160.124606
5471.500016,2163.111630,-1186.840010,-10126.425243
5471.502555,1665.404530,3081.955509,-9456.434915
5471.505094,3828.516160,-842.273555,-10049.854920
5471.507634,-669.990328,3292.523898,-8499.305875
5471.510173,38.285162,-3158.525832,-10681.560086
5471.512712,-19.142581,382.851616,-10126.425243
5471.515251,1205.982590,248.853550,-9877.571693
5471.517795,2507.678085,-899.701298,-9284.151688
5471.520339,880.558717,1359.123237,-9437.292334
5471.522884,-478.564520,631.705166,-9915.856854
5471.525428,1129.412267,0.000000,-9801.001370
5471.527972,880.558717,1301.695494,-10011.569758
5471.530516,2871.387120,-937.986459,-9647.860723
5471.533060,1493.121302,-38.285162,-9418.149754
5471.535604,976.271621,1493.121302,-9590.432981
5471.538149,1799.402595,-631.705166,-9896.714274
5471.540693,440.279358,-3139.383251,-10222.138147
5471.543237,3464.807125,-4115.654872,-10413.563955
5471.545781,-2469.392923,2833.101958,-8403.592971
5471.548325,2679.961312,-2622.533570,-10509.276859
5471.550869,516.849682,6699.903280,-9322.436850
5471.553413,3349.951640,-5493.920690,-11121.839445
5471.555958,-612.562586,5570.491013,-8193.024582
5471.558502,-2105.683888,2756.531635,-9245.866526
5471.561046,3158.525832,-5895.914886,-10987.841379
5471.563590,-1837.687757,7178.467800,-9035.298138
5471.566134,287.138712,-995.414202,-10853.843314
5471.568678,-1531.406464,880.558717,-8805.587168
5471.571223,1493.121302,4900.500685,-9111.868461
5471.573767,172.283227,363.709035,-9858.429112
5471.576311,-937.986459,708.275490,-9475.577496
5471.578855,-2411.965181,2986.242605,-10202.995566
5471.581399,133.998066,-842.273555,-10183.852986
5471.583943,1512.263883,1837.687757,-8920.442653
5471.586488,1014.556782,1875.972918,-9456.434915
5471.589032,-1875.972918,1301.695494,-9896.714274
5471.591576,-210.568389,1301.695494,-9456.434915
5471.594120,555.134843,38.285162,-10260.423309
5471.596664,-57.427742,1205.982590,-9533.005238
5471.599208,-325.423874,1225.125171,-9475.577496
5471.601752,918.843878,459.421939,-10030.712339
5471.604297,-3694.518094,4000.799387,-8997.012976
5471.606841,-2660.818731,1320.838075,-10011.569758
5471.609385,1952.543242,3503.092286,-9628.718142
5471.611929,-1531.406464,8709.874264,-7963.313613
5471.614473,2986.242605,-2373.680019,-10700.702667
5471.617017,-2048.256146,899.701298,-9265.009107
5471.619566,-19.142581,-2909.672282,-10413.563955
5471.622115,-4977.071008,5723.631659,-9341.579430
5471.624664,3177.668413,-3426.521963,-10987.841379
5471.627213,5302.494882,2277.967115,-9073.583299
5471.629761,-1493.121302,4919.643266,-8595.018779
5471.632310,3483.949706,-8671.589102,-11389.835576
5471.634859,-2048.256146,5934.200048,-8250.452325
5471.637408,3177.668413,76.570323,-10719.845248
5471.639957,727.418070,-842.273555,-9418.149754
5471.642506,2143.969050,1071.984525,-9475.577496
5471.645054,3349.951640,-784.845813,-10164.710405
5471.647603,-593.420005,2182.254211,-8767.302006
5471.650152,555.134843,-2852.244539,-10700.702667
5471.652701,19.142581,842.273555,-10145.567824
5471.655250,1473.978722,229.710970,-9571.290400
5471.657799,2507.678085,-38.285162,-9169.296203
5471.660347,229.710970,1569.691626,-9839.286531
5471.662896,-459.421939,1110.269686,-9628.718142
5471.665445,1780.260014,-363.709035,-10164.710405
5471.667994,1110.269686,1129.412267,-9686.145885
5471.670543,2297.109696,-1186.840010,-9456.434915
5471.673091,1186.840010,2641.676150,-9265.009107
5471.675640,2967.100024,-2182.254211,-10470.991698
5471.678189,3369.094221,-1627.119368,-9590.432981
5471.680738,-1014.556782,2967.100024,-9150.153622
5471.683287,746.560651,-3349.951640,-10068.997501
5471.685836,-803.988394,727.418070,-9322.436850
5471.688384,1703.689691,-937.986459,-10738.987829
5471.690933,4728.217458,995.414202,-9954.142016
5471.693482,-3694.518094,7925.028451,-8575.876198
5471.696031,1320.838075,-8556.733618,-11217.552349
5471.698580,976.271621,6833.901346,-7867.600709
5471.701129,-1359.123237,-153.140646,-10681.560086
5471.703677,-784.845813,421.136778,-10298.708470
5471.706226,976.271621,5168.496816,-8671.589102
5471.708775,-2124.826469,2833.101958,-9475.577496
5471.711324,363.709035,-3349.951640,-10241.280728
5471.713873,516.849682,2526.820666,-9571.290400
5471.716421,-3043.670347,1665.404530,-10088.140082
5471.718970,-76.570323,344.566454,-10068.997501
5471.721522,708.275490,4996.213589,-8461.020714
5471.724074,1244.267752,-976.271621,-10011.569758
5471.726626,708.275490,1282.552914,-9781.858789
5471.729178,-1378.265818,1378.265818,-9724.431046
5471.731731,-248.853550,-574.277424,-9992.427178
5471.734283,287.138712,918.843878,-9494.720077
5471.736835,0.000000,1933.400661,-9475.577496
5471.739388,-153.140646,-937.986459,-10068.997501
5471.741940,-3062.812928,3924.229064,-9437.292334
5471.744492,-3809.373579,3522.234867,-9877.571693
5471.747044,3177.668413,-153.140646,-10107.282662
5471.749597,-1569.691626,8729.016845,-8135.596840
5471.752149,2392.822600,-2105.683888,-10470.991698
5471.754701,-1014.556782,-344.566454,-9647.860723
5471.757253,401.994197,-4421.936165,-11236.694930
5471.759806,-3062.812928,6125.625856,-9188.438784
5471.762358,1091.127106,-306.281293,-10049.854920
5471.764910,5436.492947,-2526.820666,-10088.140082
5471.767462,-2431.107762,7676.174901,-7867.600709
5471.770015,2947.957443,-9169.296203,-11408.978157
5471.772567,-1244.267752,3905.086483,-8958.727814
5471.775119,1607.976787,-1129.412267,-10796.415571
5471.777671,1550.549045,-1722.832272,-9839.286531
5471.780224,1818.545176,2411.965181,-9016.155557
5471.782776,3464.807125,-689.132909,-10145.567824
5471.785328,-344.566454,957.129040,-8997.012976
5471.787880,459.421939,-2622.533570,-11006.983960
5471.790433,306.281293,1512.263883,-9915.856854
5471.792985,1473.978722,-306.281293,-9379.864592
5471.795537,2163.111630,823.130974,-9092.725880
5471.798089,248.853550,0.000000,-9973.284597
5471.800642,976.271621,1244.267752,-9705.288466
5471.803194,1110.269686,535.992262,-10241.280728
5471.805746,1627.119368,-708.275490,-9839.286531
5471.808298,459.421939,1684.547110,-8805.587168
5471.810851,4153.940034,-2086.541307,-10509.276859
5471.813403,2813.959378,153.140646,-9820.143950
5471.815955,-1703.689691,287.138712,-9571.290400
5471.818507,3445.664544,-6910.471669,-11064.411702
5471.821060,-2143.969050,2967.100024,-8422.735552
5471.823615,3081.955509,-1761.117434,-10088.140082
5471.826171,899.701298,5091.926493,-9494.720077
5471.828726,-650.847747,-2105.683888,-10298.708470
5471.831281,1129.412267,-2067.398726,-10183.852986
5471.833837,-4670.789715,9820.143950,-7791.030386
5471.836392,3235.096155,-7465.606512,-11045.269122
5471.838948,-1588.834206,7044.469734,-9092.725880
5471.841503,631.705166,-1186.840010,-11026.126541
5471.844059,-1320.838075,861.416136,-8748.159426
5471.846614,650.847747,5876.772306,-8729.016845
5471.849170,229.710970,-421.136778,-10164.710405
5471.851725,-172.283227,535.992262,-9494.720077
5471.854280,-2852.244539,3713.660675,-10432.706536
5471.856836,0.000000,-1129.412267,-10030.712339
5471.859391,2048.256146,1875.972918,-8882.157491
5471.861947,689.132909,957.129040,-10107.282662
5471.864502,-995.414202,995.414202,-9915.856854
5471.867058,95.712904,1359.123237,-9494.720077
5471.869613,-191.425808,1071.984525,-10068.997501
5471.872169,689.132909,172.283227,-9667.003304
5471.874724,76.570323,995.414202,-9207.581365
5471.877280,-2526.820666,2277.967115,-9954.142016
5471.879835,-3541.377448,3981.656806,-9494.720077
5471.882390,2258.824534,-306.281293,-10298.708470
5471.884946,-535.992262,7427.321350,-8614.161360
5471.887501,3330.809059,-478.564520,-10011.569758
5471.890057,-2986.242605,1416.550979,-8843.872330
5471.892612,516.849682,-4364.508422,-10872.985894
5471.895168,-4211.367776,6565.905214,-9188.438784
5471.897723,1684.547110,-1914.258080,-10547.562021
5471.900279,5302.494882,-267.996131,-9628.718142
5471.902834,-1378.265818,8307.880067,-7905.885870
5471.905390,574.277424,-6221.338760,-10796.415571
5471.907945,-574.277424,669.990328,-9762.716208
5471.910500,3043.670347,1225.125171,-10758.130410
5471.913056,1052.841944,-1129.412267,-9399.007173
5471.915611,1914.258080,1186.840010,-9169.296203
5471.918167,2469.392923,-229.710970,-10068.997501
5471.920722,1205.982590,-1225.125171,-9628.718142
5471.923278,325.423874,-382.851616,-10241.280728
5471.925836,76.570323,1895.115499,-9915.856854
5471.928394,1282.552914,-76.570323,-8939.585234
5471.930953,1588.834206,823.130974,-9284.151688
5471.933511,306.281293,19.142581,-10107.282662
5471.936069,803.988394,1416.550979,-9494.720077
5471.938628,803.988394,478.564520,-10241.280728
5471.941186,401.994197,-1014.556782,-9934.999435
5471.943744,4153.940034,-459.421939,-9188.438784
5471.946302,3464.807125,172.283227,-9934.999435
5471.948861,-382.851616,-2756.531635,-10298.708470
5471.951419,1799.402595,-727.418070,-9839.286531
5471.953977,-172.283227,555.134843,-9437.292334
5471.956536,-976.271621,-784.845813,-9379.864592
5471.959094,2411.965181,-1091.127106,-10260.423309
5471.961652,4881.358104,-4594.219392,-11255.837510
5471.964211,-3560.520029,7389.036189,-7848.458128
5471.966769,-3349.951640,-382.851616,-9896.714274
5471.969327,2890.529701,-2201.396792,-10413.563955
5471.971886,-2048.256146,6585.047795,-8729.016845
5471.974444,1129.412267,-3637.090352,-11045.269122
5471.977002,1225.125171,6010.770371,-8805.587168
5471.979560,-2986.242605,3962.514226,-9169.296203
5471.982119,401.994197,-3885.943902,-10413.563955
5471.984677,153.140646,2852.244539,-9686.145885
5471.987235,-2431.107762,1091.127106,-10126.425243
5471.989794,-516.849682,1416.550979,-9954.142016
5471.992352,555.134843,3943.371645,-8997.012976
5471.994910,995.414202,-1320.838075,-9494.720077
5471.997469,363.709035,1818.545176,-9609.575562
5472.000027,0.000000,1186.840010,-10145.567824
5472.002585,-976.271621,-114.855485,-9820.143950
5472.005144,1282.552914,1148.554848,-9513.862658
5472.007702,-1550.549045,2182.254211,-9341.579430
5472.010260,-2354.537438,1129.412267,-10088.140082
5472.012818,-2450.250342,4421.936165,-9341.579430
5472.015377,918.843878,478.564520,-10107.282662
5472.017935,-535.992262,4383.651003,-9590.432981
5472.020493,3081.955509,1493.121302,-9667.003304
5472.023052,-2297.109696,2928.814862,-8307.880067
5472.025610,880.558717,-5283.352301,-11121.839445
5472.028170,-1378.265818,5876.772306,-9475.577496
5472.030730,38.285162,95.712904,-10011.569758
5472.033290,6068.198114,-9379.864592,-11868.400096
5472.035850,1186.840010,6221.338760,-7944.171032
5472.038410,-401.994197,-3330.809059,-9762.716208
5472.040970,-535.992262,-1052.841944,-10451.849117
5472.043530,2794.816797,2584.248408,-10202.995566
5472.046090,1052.841944,-535.992262,-9207.581365
5472.048650,1952.543242,-210.568389,-9801.001370
5472.051210,2565.105827,-191.425808,-9801.001370
5472.053769,1263.410333,-1837.687757,-9399.007173
5472.056329,995.414202,-2813.959378,-11332.407834
5472.058889,-153.140646,2220.539373,-9705.288466
5472.061449,1282.552914,325.423874,-9111.868461
5472.064009,1512.263883,-19.142581,-9571.290400
5472.066569,133.998066,1282.552914,-9705.288466
5472.069129,765.703232,172.283227,-10088.140082
5472.071689,1531.406464,1148.554848,-10164.710405
5472.074249,746.560651,880.558717,-9437.292334
5472.076809,4326.223261,-2182.254211,-9456.434915
5472.079369,4632.504554,-631.705166,-9705.288466
5472.081929,-1052.841944,3943.371645,-9418.149754
5472.084489,823.130974,-6029.912952,-10968.698798
5472.087049,-1378.265818,95.712904,-9322.436850
5472.089609,4498.506488,-3369.094221,-10853.843314
5472.092169,727.418070,6814.758765,-8307.880067
5472.094729,-669.990328,-2220.539373,-10547.562021
5472.097289,765.703232,-1741.974853,-10470.991698
5472.099849,-4555.934230,9265.009107,-8193.024582
5472.102408,3292.523898,-6853.043926,-11217.552349
5472.104968,-1952.543242,3177.668413,-9647.860723
5472.107528,1607.976787,2718.246474,-9360.722011
5472.110088,-1722.832272,-1512.263883,-9820.143950
5472.112648,-153.140646,2431.107762,-9954.142016
5472.115208,-421.136778,3081.955509,-8977.870395
5472.117768,421.136778,-133.998066,-9590.432981
5472.120328,-2373.680019,2852.244539,-10260.423309
5472.122888,-306.281293,1761.117434,-9552.147819
5472.125448,382.851616,2182.254211,-9150.153622
5472.128008,1110.269686,-1416.550979,-10183.852986
5472.130569,-306.281293,1952.543242,-9437.292334
5472.133131,76.570323,210.568389,-10490.134278
5472.135692,497.707101,650.847747,-9475.577496
5472.138254,-823.130974,2431.107762,-8863.014910
5472.140815,-1225.125171,842.273555,-10451.849117
5472.143377,-2813.959378,3847.658741,-9418.149754
5472.145938,421.136778,957.129040,-9667.003304
5472.148500,-1741.974853,6221.338760,-9322.436850
5472.151061,2909.672282,1339.980656,-9934.999435
5472.153623,-2239.681954,4594.219392,-8403.592971
5472.156184,1148.554848,-5876.772306,-11255.837510
5472.158746,-210.568389,4766.502619,-9245.866526
5472.161307,-344.566454,2009.970984,-9762.716208
5472.163869,5513.063270,-6202.196179,-10815.558152
5472.166430,-1607.976787,8403.592971,-7791.030386
5472.168992,2928.814862,-7657.032320,-10892.128475
5472.171553,-497.707101,2450.250342,-9418.149754
5472.174115,1627.119368,306.281293,-10604.989763
5472.176676,957.129040,-133.998066,-9322.436850
5472.179238,2009.970984,-842.273555,-9973.284597
5472.181799,2297.109696,306.281293,-9915.856854
5472.184361,1493.121302,-2201.396792,-9303.294269
5472.186922,612.562586,535.992262,-10011.569758
5472.189484,-401.994197,287.138712,-10394.421374
5472.192045,1148.554848,1071.984525,-9360.722011
5472.194607,2048.256146,-19.142581,-9418.149754
5472.197168,440.279358,401.994197,-9628.718142
5472.199730,401.994197,727.418070,-9705.288466
5472.202291,229.710970,478.564520,-10509.276859
5472.204853,3445.664544,-861.416136,-9839.286531
5472.207414,4211.367776,-248.853550,-8939.585234
5472.209976,1684.547110,-2411.965181,-10298.708470
5472.212537,1052.841944,421.136778,-9647.860723
5472.215099,114.855485,-133.998066,-9399.007173
5472.217660,-937.986459,-746.560651,-9954.142016
5472.220222,3388.236802,-4096.512291,-10681.560086
5472.222783,4096.512291,3713.660675,-8824.729749
5472.225345,-2220.539373,7791.030386,-8327.022648
5472.227906,-2258.824534,-4345.365842,-10241.280728
5472.230468,2565.105827,4000.799387,-9284.151688
5472.233031,-1014.556782,2813.959378,-10126.425243
5472.235594,-861.416136,-1454.836141,-10011.569758
5472.238157,1014.556782,5895.914886,-8384.450390
5472.240720,-2105.683888,-248.853550,-10336.993632
5472.243283,210.568389,-2297.109696,-10451.849117
5472.245846,-497.707101,4900.500685,-8729.016845
5472.248409,-38.285162,38.285162,-10107.282662
5472.250972,-1952.543242,2775.674216,-9360.722011
5472.253535,823.130974,3464.807125,-9647.860723
5472.256098,899.701298,-1531.406464,-9858.429112
5472.258661,-19.142581,1665.404530,-9207.581365
5472.261224,76.570323,1167.697429,-10222.138147
5472.263787,918.843878,76.570323,-10145.567824
5472.266350,-1225.125171,2143.969050,-9150.153622
5472.268913,-574.277424,1052.841944,-9628.718142
5472.271476,-2220.539373,2545.963246,-10011.569758
5472.274039,593.420005,2009.970984,-9896.714274
5472.276602,-2526.820666,6585.047795,-9035.298138
5472.279165,2163.111630,727.418070,-10126.425243
5472.281728,-937.986459,1359.123237,-8939.585234
5472.284291,1263.410333,-2986.242605,-10202.995566
5472.286854,-4517.649069,5685.346498,-9150.153622
5472.289417,2871.387120,-4900.500685,-11255.837510
5472.291980,4881.358104,3924.229064,-8977.870395
5472.294543,-918.843878,2679.961312,-8939.585234
5472.297106,3349.951640,-7140.182638,-10796.415571
5472.299669,-650.847747,2967.100024,-9188.438784
5472.302232,669.990328,-1033.699363,-10930.413637
5472.304795,1378.265818,-3024.527766,-10088.140082
5472.307358,1569.691626,3464.807125,-8901.300072
5472.309921,1780.260014,-363.709035,-9820.143950
5472.312484,3388.236802,-287.138712,-9360.722011
5472.315047,0.000000,1186.840010,-9513.862658
5472.317610,-344.566454,-2756.531635,-10662.417506
5472.320173,1071.984525,2641.676150,-9360.722011
5472.322737,1473.978722,-229.710970,-9781.858789
5472.325300,899.701298,-95.712904,-9552.147819
5472.327863,689.132909,1550.549045,-9475.577496
5472.330426,1052.841944,746.560651,-10490.134278
5472.332989,2297.109696,-2335.394858,-10317.851051
5472.335552,4345.365842,497.707101,-8863.014910
5472.338116,612.562586,-1320.838075,-10068.997501
5472.340680,2794.816797,-3005.385186,-10413.563955
5472.343244,267.996131,2737.389054,-8863.014910
5472.345807,-1627.119368,-899.701298,-10030.712339
5472.348371,842.273555,76.570323,-10030.712339
5472.350935,5283.352301,-3254.238736,-10470.991698
5472.353499,-3809.373579,7235.895542,-8173.882002
5472.356062,-3101.098090,-2277.967115,-10222.138147
5472.358626,2450.250342,1914.258080,-9667.003304
5472.361190,-3522.234867,8556.733618,-8422.735552
5472.363754,1512.263883,-3043.670347,-10949.556218
5472.366318,1512.263883,2986.242605,-8920.442653
5472.368881,-2373.680019,4919.643266,-9111.868461
5472.371445,0.000000,-3828.516160,-10777.272990
5472.374009,-95.712904,2947.957443,-9322.436850
5472.376573,-784.845813,631.705166,-10088.140082
5472.379136,-1244.267752,1607.976787,-9609.575562
5472.381700,401.994197,3981.656806,-9188.438784
5472.384264,1301.695494,-937.986459,-9915.856854
5472.386828,-555.134843,2833.101958,-9169.296203
5472.389391,612.562586,-57.427742,-10470.991698
5472.391955,-19.142581,1435.693560,-9781.858789
5472.394519,-1225.125171,1780.260014,-9207.581365
5472.397083,-2067.398726,2335.394858,-9552.147819
5472.399646,19.142581,2756.531635,-9896.714274
5472.402210,-2373.680019,3847.658741,-9456.434915
5472.404774,-918.843878,1244.267752,-10375.278794
5472.407338,2603.390989,-861.416136,-10011.569758
5472.409901,593.420005,2718.246474,-8709.874264
5472.412465,-3330.809059,2086.541307,-9667.003304
5472.415029,3790.230998,-4249.652938,-10987.841379
5472.417593,842.273555,9265.009107,-8001.598774
5472.420156,-516.849682,-6240.481341,-11140.982026
5472.422720,2526.820666,-1990.828403,-9533.005238
5472.425284,1359.123237,3139.383251,-8901.300072
5472.427848,-363.709035,-3637.090352,-11140.982026
5472.430412,2718.246474,2297.109696,-9571.290400
5472.432975,1014.556782,5723.631659,-8480.163294
5472.435539,1225.125171,-2373.680019,-10011.569758
5472.438104,2277.967115,574.277424,-9552.147819
5472.440668,976.271621,-1895.115499,-10107.282662
5472.443233,976.271621,-765.703232,-10107.282662
5472.445797,593.420005,1741.974853,-9954.142016
5472.448362,-153.140646,1205.982590,-9265.009107
5472.450926,1148.554848,-765.703232,-9609.575562
5472.453491,689.132909,1205.982590,-9571.290400
5472.456055,344.566454,1684.547110,-9858.429112
5472.458620,1531.406464,-1033.699363,-10049.854920
5472.461184,4575.076811,-1320.838075,-9360.722011
5472.463749,-669.990328,746.560651,-9399.007173
5472.466313,3694.518094,-4996.213589,-10987.841379
5472.468878,95.712904,2201.396792,-8824.729749
5472.471442,421.136778,287.138712,-9705.288466
5472.474007,478.564520,-1627.119368,-10279.565890
5472.476571,4977.071008,-2450.250342,-10356.136213
5472.479136,-4498.506488,8020.741355,-8078.169098
5472.481700,-2239.681954,2756.531635,-9609.575562
5472.484265,2813.959378,-3215.953574,-10681.560086
5472.486829,-3656.232933,8748.159426,-8307.880067
5472.489394,1397.408398,-3503.092286,-10949.556218
5472.491958,1148.554848,4249.652938,-8824.729749
5472.494523,-2431.107762,2986.242605,-9456.434915
5472.497087,478.564520,-4517.649069,-11006.983960
5472.499652,-76.570323,4670.789715,-9054.440718
5472.502216,-516.849682,1014.556782,-9801.001370
5472.504781,-612.562586,1837.687757,-9743.573627
5472.507345,57.427742,3962.514226,-8997.012976
5472.509910,1110.269686,-1914.258080,-10241.280728
5472.512474,-267.996131,1952.543242,-9418.149754
5472.515039,593.420005,1091.127106,-10068.997501
5472.517603,267.996131,325.423874,-9992.427178
5472.520168,-1550.549045,2679.961312,-9111.868461
5472.522732,-2297.109696,2392.822600,-9628.718142
5472.525297,899.701298,-210.568389,-10298.708470
5472.527861,-2718.246474,8614.161360,-8537.591037
5472.530426,2143.969050,2163.111630,-10107.282662
5472.532990,-1895.115499,1761.117434,-8920.442653
5472.535555,1741.974853,-3598.805190,-10202.995566
5472.538119,-3905.086483,5034.498750,-9399.007173
5472.540685,1627.119368,-4192.225195,-11236.694930
5472.543250,4709.074877,2163.111630,-9303.294269
5472.545815,-1129.412267,4938.785846,-8288.737486
5472.548381,3751.945837,-8231.309744,-11140.982026
5472.550946,-880.558717,4728.217458,-8729.016845
5472.553511,-976.271621,-3503.092286,-10987.841379
5472.556077,1531.406464,-3924.229064,-10470.991698
5472.558642,1627.119368,3579.662610,-8709.874264
5472.561207,1493.121302,153.140646,-9724.431046
5472.563773,2431.107762,248.853550,-9399.007173
5472.566338,1397.408398,-1014.556782,-9973.284597
5472.568903,440.279358,-708.275490,-10202.995566
5472.571469,516.849682,1952.543242,-10068.997501
5472.574034,746.560651,248.853550,-9322.436850
5472.576599,-76.570323,-382.851616,-9207.581365
5472.579165,1875.972918,1454.836141,-9628.718142
5472.581730,1493.121302,-1225.125171,-10853.843314
5472.584295,3445.664544,-803.988394,-9762.716208
5472.586861,1435.693560,172.283227,-9073.583299
5472.589426,2488.535504,-1588.834206,-9858.429112
5472.591991,1588.834206,-382.851616,-9437.292334
5472.594557,-1167.697429,555.134843,-9743.573627
5472.597122,2373.680019,-5647.061336,-11294.122672
5472.599687,2603.390989,3656.232933,-9245.866526
5472.602253,-4058.227130,8059.026517,-7982.456194
5472.604818,-440.279358,-5225.924558,-10662.417506
5472.607383,2086.541307,5915.057467,-8882.157491
5472.609949,-1244.267752,2699.103893,-9992.427178
5472.612514,-1914.258080,-382.851616,-10088.140082
5472.615079,1205.982590,3962.514226,-8901.300072
5472.617645,-957.129040,-2143.969050,-10030.712339
5472.620210,267.996131,-114.855485,-10183.852986
5472.622776,-1052.841944,5915.057467,-8748.159426
5472.625341,191.425808,-19.142581,-9934.999435
5472.627907,-459.421939,1895.115499,-9609.575562
5472.630472,-574.277424,2986.242605,-9284.151688
5472.633038,76.570323,-1129.412267,-9858.429112
5472.635603,899.701298,823.130974,-9686.145885
5472.638169,-114.855485,1665.404530,-9973.284597
5472.640734,95.712904,0.000000,-10107.282662
5472.643300,-1435.693560,2507.678085,-9245.866526
5472.645865,-2469.392923,2124.826469,-9437.292334
5472.648431,497.707101,-248.853550,-10202.995566
5472.650997,-1627.119368,6221.338760,-9379.864592
5472.653562,2603.390989,2871.387120,-9820.143950
5472.656128,-2143.969050,3235.096155,-8499.305875
5472.658693,2277.967115,-4536.791650,-10317.851051
5472.661259,-3024.527766,5130.211654,-9341.579430
5472.663824,19.142581,-3139.383251,-10796.415571
5472.666390,4230.510357,-1148.554848,-9973.284597
5472.668955,-1301.695494,7159.325219,-7963.313613
5472.671521,4115.654872,-7791.030386,-10911.271056
5472.674087,-746.560651,3809.373579,-8863.014910
5472.676652,1378.265818,957.129040,-10700.702667
5472.679218,1569.691626,-4211.367776,-10432.706536
5472.681783,1799.402595,2201.396792,-9131.011042
5472.684349,1282.552914,880.558717,-9628.718142
5472.686914,2239.681954,57.427742,-9245.866526
5472.689480,1875.972918,-516.849682,-10030.712339
5472.692045,306.281293,-363.709035,-10107.282662
5472.694611,-459.421939,1339.980656,-9954.142016
5472.697177,1339.980656,267.996131,-9647.860723
5472.699742,363.709035,-76.570323,-9073.583299
5472.702308,1052.841944,344.566454,-9667.003304
5472.704873,2565.105827,-650.847747,-10738.987829
5472.707439,3464.807125,-478.564520,-9839.286531
5472.710004,-248.853550,1473.978722,-8805.587168
5472.712570,3962.514226,-6183.053598,-10815.558152
5472.715135,-593.420005,861.416136,-8863.014910
5472.717701,2143.969050,-382.851616,-10011.569758
5472.720266,153.140646,1263.410333,-10298.708470
5472.722832,4192.225195,-4632.504554,-10758.130410
5472.725398,1952.543242,2048.256146,-9360.722011
5472.727964,-2373.680019,7369.893608,-8767.302006
5472.730530,2986.242605,-5436.492947,-10892.128475
5472.733096,-3924.229064,8154.739421,-8633.303941
5472.735661,937.986459,-2297.109696,-11026.126541
5472.738227,1205.982590,2584.248408,-8614.161360
5472.740793,-2411.965181,4460.221326,-8863.014910
5472.743359,459.421939,-4804.787781,-11006.983960
5472.745925,-191.425808,4383.651003,-9245.866526
5472.748491,-1301.695494,1914.258080,-10394.421374
5472.751057,-823.130974,-133.998066,-9552.147819
5472.753622,803.988394,3522.234867,-8690.731683
5472.756188,363.709035,-842.273555,-10317.851051
5472.758754,-689.132909,1856.830338,-9609.575562
5472.761320,1244.267752,1512.263883,-9743.573627
5472.763886,-497.707101,1186.840010,-9724.431046
5472.766452,-2584.248408,2354.537438,-9265.009107
5472.769017,478.564520,1359.123237,-9590.432981
5472.771583,-2699.103893,5934.200048,-9207.581365
5472.774149,1014.556782,3024.527766,-9934.999435
5472.776715,-899.701298,918.843878,-9533.005238
5472.779281,1741.974853,-1071.984525,-9686.145885
5472.781847,-4364.508422,4192.225195,-9054.440718
5472.784412,4039.084549,-2813.959378,-10815.558152
5472.786978,4096.512291,-3369.094221,-10317.851051
5472.789544,-1512.263883,8307.880067,-7829.315547
5472.792110,4402.793584,-7006.184573,-10777.272990
5472.794676,-593.420005,3388.236802,-9016.155557
5472.797242,-861.416136,-2890.529701,-11064.411702
5472.799807,3292.523898,-3101.098090,-10413.563955
5472.802373,1569.691626,5991.627790,-8652.446522
5472.804939,1473.978722,-1435.693560,-9705.288466
5472.807505,1914.258080,-172.283227,-9169.296203
5472.810071,2182.254211,631.705166,-9877.571693
5472.812637,1014.556782,-1646.261949,-10375.278794
5472.815202,-574.277424,1799.402595,-9686.145885
5472.817768,1282.552914,76.570323,-9896.714274
5472.820334,689.132909,-114.855485,-9379.864592
5472.822900,976.271621,842.273555,-9571.290400
5472.825466,3062.812928,-1780.260014,-10700.702667
5472.828032,3483.949706,-19.142581,-9896.714274
5472.830597,-114.855485,3005.385186,-8863.014910
5472.833163,2488.535504,-3924.229064,-10030.712339
5472.835729,-899.701298,-95.712904,-9284.151688
5472.838295,3598.805190,-4670.789715,-11313.265253
5472.840860,-555.134843,5245.067139,-9054.440718
5472.843426,-1588.834206,-1071.984525,-9934.999435
5472.845992,2411.965181,-1339.980656,-10145.567824
5472.848558,-3809.373579,9973.284597,-7810.172966
5472.851124,2411.965181,-5704.489078,-11083.554283
5472.853689,-3177.668413,6757.331022,-9265.009107
5472.856255,976.271621,-363.709035,-10202.995566
5472.858821,-95.712904,-1856.830338,-9284.151688
5472.861387,-1071.984525,4977.071008,-8805.587168
5472.863953,-555.134843,1359.123237,-9820.143950
5472.866518,535.992262,516.849682,-9973.284597
5472.869084,-1301.695494,2220.539373,-10317.851051
5472.871650,-727.418070,-325.423874,-9781.858789
5472.874216,0.000000,2986.242605,-8652.446522
5472.876781,1186.840010,-267.996131,-10068.997501
5472.879347,-1607.976787,1818.545176,-9801.001370
5472.881913,-95.712904,1263.410333,-9954.142016
5472.884479,-1627.119368,1493.121302,-9858.429112
5472.887045,-76.570323,1971.685822,-9169.296203
5472.889610,-3426.521963,4881.358104,-9054.440718
5472.892176,-1071.984525,593.420005,-10719.845248
5472.894742,2718.246474,823.130974,-10011.569758
5472.897308,-2105.683888,6872.186507,-8059.026517
5472.899874,631.705166,-4460.221326,-10566.704602
5472.902439,1799.402595,2928.814862,-9284.151688
5472.905005,-1665.404530,3866.801322,-9226.723946
5472.907571,1435.693560,-9188.438784,-12155.538808
5472.910137,2201.396792,1244.267752,-9188.438784
5472.912702,1684.547110,19.142581,-9226.723946
5472.915268,-440.279358,-937.986459,-9896.714274
5472.917834,2297.109696,4249.652938,-9399.007173
5472.920400,1052.841944,-1225.125171,-9762.716208
5472.922966,2354.537438,-2660.818731,-10585.847182
5472.925531,880.558717,1454.836141,-9724.431046
5472.928097,1339.980656,-1320.838075,-9131.011042
5472.930663,1799.402595,-957.129040,-10145.567824
5472.933228,842.273555,1512.263883,-9724.431046
5472.935794,-689.132909,1761.117434,-9475.577496
5472.938359,1091.127106,-784.845813,-10011.569758
5472.940925,899.701298,995.414202,-9016.155557
5472.943490,2756.531635,-995.414202,-9992.427178
5472.946056,3675.375514,-612.562586,-10509.276859
5472.948621,-287.138712,2622.533570,-9322.436850
5472.951187,3541.377448,-5723.631659,-10585.847182
5472.953753,-1014.556782,-1607.976787,-9092.725880
5472.956318,3522.234867,-2813.959378,-10604.989763
5472.958884,-1225.125171,4823.930362,-9571.290400
5472.961449,1454.836141,-4287.938099,-10681.560086
5472.964015,1339.980656,3771.088418,-9111.868461
5472.966580,-2086.541307,5819.344563,-8863.014910
5472.969146,3043.670347,-5321.637462,-10700.702667
5472.971711,-3617.947771,8173.882002,-8422.735552
5472.974277,708.275490,-1741.974853,-11083.554283
5472.976842,1110.269686,3177.668413,-8939.585234
5472.979408,-2488.535504,6451.049730,-8595.018779
5472.981974,-76.570323,-3369.094221,-10624.132344
5472.984539,153.140646,1895.115499,-9571.290400
5472.987105,-1052.841944,2163.111630,-10317.851051
5472.989670,-497.707101,1186.840010,-9609.575562
5472.992236,-95.712904,1933.400661,-8977.870395
5472.994801,842.273555,-650.847747,-9801.001370
5472.997367,-746.560651,1301.695494,-10068.997501
5472.999932,-555.134843,1627.119368,-9973.284597
5473.002498,-1875.972918,1569.691626,-9839.286531
5473.005063,325.423874,1071.984525,-9169.296203
5473.007629,-3751.945837,5838.487144,-8843.872330
5473.010195,-1473.978722,995.414202,-10815.558152
5473.012760,2813.959378,-631.705166,-10317.851051
5473.015326,-765.703232,6297.909083,-8422.735552
5473.017891,-1416.550979,-1607.976787,-10241.280728
5473.020457,1665.404530,-248.853550,-9552.147819
5473.023022,-1914.258080,7197.610381,-8327.022648
5473.025588,4192.225195,-11313.265253,-12787.243974
5473.028153,2163.111630,-2775.674216,-9705.288466
5473.030719,1837.687757,1933.400661,-9379.864592
5473.033284,-401.994197,-2526.820666,-10336.993632
5473.035850,2986.242605,3732.803256,-8863.014910
5473.038415,899.701298,2277.967115,-9341.579430
5473.040981,2124.826469,-4345.365842,-11026.126541
5473.043546,880.558717,976.271621,-9475.577496
5473.046112,1071.984525,-1052.841944,-9379.864592
5473.048677,2143.969050,765.703232,-9762.716208
5473.051243,1033.699363,689.132909,-9743.573627
5473.053808,-574.277424,1665.404530,-9647.860723
5473.056374,1684.547110,-765.703232,-9571.290400
5473.058939,1607.976787,976.271621,-9341.579430
5473.061505,2928.814862,-1416.550979,-10183.852986
5473.064070,1454.836141,-516.849682,-10126.425243
5473.066635,2545.963246,1014.556782,-9667.003304
5473.069201,2239.681954,-2086.541307,-9647.860723
5473.071766,-957.129040,-803.988394,-9303.294269
5473.074332,3311.666478,-4211.367776,-11198.409768
5473.076897,3426.521963,382.851616,-10222.138147
5473.079463,-3139.383251,5895.914886,-8958.727814
5473.082028,2450.250342,-5781.059402,-11026.126541
5473.084594,-38.285162,9533.005238,-7331.608446
5473.087159,-593.420005,-555.134843,-10202.995566
5473.089725,-1837.687757,2584.248408,-10068.997501
5473.092290,1205.982590,1052.841944,-10183.852986
5473.094856,440.279358,-2507.678085,-9781.858789
5473.097421,-1856.830338,5876.772306,-8633.303941
5473.099987,-1091.127106,5781.059402,-8729.016845
5473.102552,1129.412267,-57.427742,-10164.710405
5473.105117,-401.994197,3215.953574,-9858.429112
5473.107683,-555.134843,-899.701298,-10164.710405
5473.110248,421.136778,2086.541307,-8901.300072
5473.112814,-478.564520,-57.427742,-10222.138147
5473.115379,-114.855485,957.129040,-9762.716208
5473.117945,-1378.265818,3081.955509,-9628.718142
5473.120510,-1014.556782,861.416136,-10126.425243
5473.123076,-2411.965181,1397.408398,-8729.016845
5473.125641,-1818.545176,1971.685822,-10202.995566
5473.128207,2871.387120,440.279358,-10298.708470
5473.130772,-2086.541307,7886.743290,-7925.028451
5473.133338,1684.547110,-4460.221326,-11083.554283
5473.135903,1454.836141,3522.234867,-8863.014910
5473.138468,-2029.113565,1703.689691,-9494.720077
5473.141033,4996.213589,-9992.427178,-11791.829773
5473.143599,-1473.978722,8767.302006,-8097.311678
5473.146164,3943.371645,-4192.225195,-10375.278794
5473.148729,-306.281293,880.558717,-9341.579430
5473.151294,1971.685822,3751.945837,-9628.718142
5473.153860,1722.832272,-3751.945837,-10126.425243
5473.156425,1914.258080,-1148.554848,-10068.997501
5473.158990,861.416136,1646.261949,-9801.001370
5473.161555,2009.970984,-440.279358,-9073.583299
5473.164120,1780.260014,1569.691626,-9494.720077
5473.166686,574.277424,-1129.412267,-10490.134278
5473.169251,-95.712904,1014.556782,-9399.007173
5473.171816,2526.820666,76.570323,-9858.429112
5473.174381,957.129040,38.285162,-9667.003304
5473.176947,2756.531635,-1091.127106,-9667.003304
5473.179512,1186.840010,401.994197,-10164.710405
5473.182077,3330.809059,-1359.123237,-10183.852986
5473.184642,2201.396792,19.142581,-8958.727814
5473.187208,-1052.841944,38.285162,-9494.720077
5473.189773,2699.103893,-6259.623922,-11255.837510
5473.192338,1569.691626,4000.799387,-9188.438784
5473.194903,-1990.828403,1722.832272,-9839.286531
5473.197469,823.130974,-5953.342629,-10796.415571
5473.200034,1799.402595,8039.883936,-7905.885870
5473.202599,-516.849682,1895.115499,-10011.569758
5473.205164,-2335.394858,957.129040,-10030.712339
5473.207730,823.130974,2124.826469,-9705.288466
5473.210295,-1359.123237,-2086.541307,-10279.565890
5473.212860,19.142581,-1110.269686,-9762.716208
5473.215425,-1148.554848,6699.903280,-8671.589102
5473.217991,689.132909,0.000000,-10145.567824
5473.220556,-669.990328,3579.662610,-9609.575562
5473.223121,-957.129040,38.285162,-10088.140082
5473.225686,574.277424,842.273555,-8939.585234
5473.228251,497.707101,689.132909,-10088.140082
5473.230817,-306.281293,267.996131,-10126.425243
5473.233382,-1588.834206,3522.234867,-9303.294269
5473.235947,-497.707101,-803.988394,-10336.993632
5473.238512,-3445.664544,5570.491013,-8709.874264
5473.241077,-689.132909,4077.369710,-9973.284597
5473.243643,937.986459,-631.705166,-10451.849117
5473.246208,1588.834206,3311.666478,-9073.583299
5473.248773,-2890.529701,2067.398726,-9399.007173
5473.251338,3005.385186,-5206.781978,-10222.138147
5473.253903,0.000000,8729.016845,-8346.165229
5473.256468,-210.568389,-6642.475538,-11523.833642
5473.259033,2909.672282,-6278.766502,-10796.415571
5473.261598,727.418070,2718.246474,-9303.294269
5473.264163,-555.134843,-2986.242605,-10336.993632
5473.266728,4039.084549,1493.121302,-9284.151688
5473.269294,976.271621,5513.063270,-8729.016845
5473.271859,1818.545176,-4613.361973,-10662.417506
5473.274424,765.703232,-38.285162,-9801.001370
5473.276989,1091.127106,-1205.982590,-9934.999435
5473.279554,1339.980656,344.566454,-9686.145885
5473.282119,765.703232,1914.258080,-9915.856854
5473.284684,689.132909,708.275490,-9533.005238
5473.287249,1416.550979,-555.134843,-9571.290400
5473.289814,2163.111630,-612.562586,-9820.143950
5473.292380,2622.533570,-306.281293,-9667.003304
5473.294945,1856.830338,1263.410333,-9954.142016
5473.297510,3043.670347,-2143.969050,-9686.145885
5473.300075,-823.130974,-2431.107762,-9399.007173
5473.302640,3158.525832,-4115.654872,-10681.560086
5473.305205,-1569.691626,5398.207786,-8805.587168
5473.307770,-1856.830338,-229.710970,-10202.995566
5473.310335,2354.537438,-2277.967115,-10853.843314
5473.312900,-3637.090352,12136.396227,-7063.612315
5473.315466,1895.115499,-5379.065205,-10738.987829
5473.318031,-3235.096155,5015.356170,-9513.862658
5473.320596,593.420005,-382.851616,-10700.702667
5473.323161,669.990328,612.562586,-9188.438784
5473.325726,-3158.525832,5225.924558,-8920.442653
5473.328291,459.421939,-4249.652938,-10662.417506
5473.330856,133.998066,3943.371645,-9743.573627
5473.333421,-918.843878,2813.959378,-10202.995566
5473.335986,-401.994197,497.707101,-9647.860723
5473.338552,-478.564520,1607.976787,-9016.155557
5473.341094,516.849682,-440.279358,-9992.427178
5473.343636,-76.570323,1875.972918,-9686.145885
5473.346179,-1607.976787,2373.680019,-9915.856854
5473.348721,861.416136,-267.996131,-9801.001370
5473.351264,-4747.360038,6757.331022,-8652.446522
5473.353806,-2565.105827,918.843878,-10183.852986
5473.356349,880.558717,-1741.974853,-10413.563955
5473.358891,2009.970984,3943.371645,-9399.007173
5473.361434,-3349.951640,2029.113565,-9437.292334
5473.363976,2852.244539,-5091.926493,-10164.710405
5473.366519,-421.136778,9494.720077,-8078.169098
5473.369061,133.998066,-7791.030386,-11657.831707
5473.371604,2143.969050,-937.986459,-9781.858789
5473.374146,2526.820666,114.855485,-9781.858789
5473.376689,-574.277424,-765.703232,-9705.288466
5473.379231,2277.967115,5111.069074,-8767.302006
5473.381774,937.986459,5034.498750,-8805.587168
5473.384316,1875.972918,-4862.215523,-10987.841379
5473.386859,516.849682,593.420005,-9609.575562
5473.389401,516.849682,-1818.545176,-9877.571693
5473.391944,1703.689691,899.701298,-9322.436850
5473.394486,382.851616,746.560651,-10049.854920
5473.397029,325.423874,1071.984525,-9667.003304
5473.399571,1895.115499,631.705166,-9686.145885
5473.402114,2450.250342,-1856.830338,-9686.145885
5473.404656,325.423874,363.709035,-9475.577496
5473.407199,4115.654872,-1531.406464,-10585.847182
5473.409741,2660.818731,421.136778,-9188.438784
5473.412284,-1148.554848,114.855485,-8958.727814
5473.414826,3177.668413,-6546.762634,-11083.554283
5473.417369,574.277424,4039.084549,-8958.727814
5473.419911,-2009.970984,306.281293,-10509.276859
5473.422454,2756.531635,-2373.680019,-10796.415571
5473.424996,-3579.662610,12346.964616,-7101.897477
5473.427539,-631.705166,516.849682,-9934.999435
5473.430081,-2316.252277,1665.404530,-9934.999435
5473.432624,612.562586,1320.838075,-10088.140082
5473.435166,1091.127106,-2450.250342,-10088.140082
5473.437709,-2545.963246,6087.340694,-8786.444587
5473.440251,95.712904,-650.847747,-9896.714274
5473.442797,708.275490,1607.976787,-9418.149754
5473.445344,-689.132909,2431.107762,-10145.567824
5473.447890,57.427742,-631.705166,-9992.427178
5473.450436,-248.853550,2890.529701,-8671.589102
5473.452982,-172.283227,57.427742,-10202.995566
5473.455529,-306.281293,746.560651,-9781.858789
5473.458075,-95.712904,4345.365842,-9092.725880
5473.460621,-3120.240670,-19.142581,-10394.421374
5473.463167,-2565.105827,2277.967115,-9571.290400
5473.465714,1435.693560,6297.909083,-8977.870395
5473.468260,-1684.547110,3522.234867,-9169.296203
5473.470806,3024.527766,-3254.238736,-10834.700733
5473.473353,-3809.373579,6374.479406,-8575.876198
5473.475899,1646.261949,-2182.254211,-10298.708470
5473.478445,3962.514226,-8575.876198,-11236.694930
5473.480991,-1493.121302,9820.143950,-7618.747158
5473.483538,4517.649069,-5838.487144,-11006.983960
5473.486084,-210.568389,2545.963246,-9016.155557
5473.488630,-689.132909,-1473.978722,-10241.280728
5473.491176,3981.656806,-4632.504554,-10777.272990
5473.493723,1703.689691,6948.756830,-8327.022648
5473.496269,1225.125171,-1454.836141,-9934.999435
5473.498815,1052.841944,-95.712904,-9743.573627
5473.501362,1761.117434,1014.556782,-9513.862658
5473.503908,1052.841944,-1339.980656,-10394.421374
5473.506454,38.285162,1454.836141,-9571.290400
5473.509000,1933.400661,-19.142581,-9705.288466
5473.511547,1722.832272,-689.132909,-9571.290400
5473.514093,2526.820666,-784.845813,-9705.288466
5473.516639,1761.117434,1741.974853,-9667.003304
5473.519185,3560.520029,-2584.248408,-10202.995566
5473.521732,57.427742,-2737.389054,-9724.431046
5473.524278,2986.242605,-5608.776174,-10930.413637
5473.526824,-1837.687757,5015.356170,-8824.729749
5473.529371,-899.701298,-3426.521963,-10815.558152
5473.531917,2890.529701,1875.972918,-10088.140082
5473.534463,-2526.820666,9877.571693,-8059.026517
5473.537009,3196.810994,-6125.625856,-10643.274925
5473.539556,-3407.379382,6814.758765,-8652.446522
5473.542102,38.285162,-440.279358,-10777.272990
5473.544651,535.992262,2354.537438,-9284.151688
5473.547200,-1665.404530,5321.637462,-8939.585234
5473.549749,727.418070,-3522.234867,-10624.132344
5473.552299,76.570323,4000.799387,-8901.300072
5473.554848,-669.990328,2201.396792,-10375.278794
5473.557397,-306.281293,344.566454,-10068.997501
5473.559946,440.279358,1493.121302,-9150.153622
5473.562495,229.710970,650.847747,-9513.862658
5473.565044,172.283227,746.560651,-10088.140082
5473.567593,-306.281293,2967.100024,-9609.575562
5473.570143,-2450.250342,57.427742,-9934.999435
5473.572692,-2450.250342,382.851616,-10088.140082
5473.575241,1665.404530,5111.069074,-9073.583299
5473.577790,-1569.691626,5915.057467,-8709.874264
5473.580339,2660.818731,-4345.365842,-10949.556218
5473.582888,-2909.672282,6719.045861,-8480.163294
5473.585438,-440.279358,-5589.633594,-11006.983960
5473.587987,4211.367776,-3139.383251,-10375.278794
5473.590536,-842.273555,7791.030386,-7867.600709
5473.593085,3981.656806,-6661.618118,-11236.694930
5473.595634,593.420005,1952.543242,-8977.870395
5473.598183,-267.996131,76.570323,-10049.854920
5473.600732,3809.373579,-5876.772306,-10911.271056
5473.603282,1493.121302,5608.776174,-8499.305875
5473.605831,1110.269686,-382.851616,-9820.143950
5473.608380,746.560651,306.281293,-9590.432981
5473.610929,1014.556782,-746.560651,-9934.999435
5473.613478,2277.967115,-1454.836141,-10432.706536
5473.616027,229.710970,1473.978722,-9360.722011
5473.618577,1512.263883,38.285162,-9839.286531
5473.621126,2297.109696,-1014.556782,-9743.573627
5473.623675,344.566454,421.136778,-9494.720077
5473.626224,4364.508422,-2507.678085,-10451.849117
5473.628773,2986.242605,976.271621,-9456.434915
5473.631322,-861.416136,2086.541307,-8729.016845
5473.633871,823.130974,-6106.483275,-10758.130410
5473.636421,2699.103893,669.990328,-9839.286531
5473.638970,-2354.537438,5015.356170,-9533.005238
5473.641519,3024.527766,-6106.483275,-11428.120738
5473.644068,-459.421939,11734.402030,-7044.469734
5473.646620,-19.142581,-267.996131,-9801.001370
5473.649172,-2469.392923,2143.969050,-9992.427178
5473.651724,401.994197,459.421939,-10509.276859
5473.654276,1186.840010,-1569.691626,-9858.429112
5473.656828,-2163.111630,4000.799387,-8939.585234
5473.659380,-172.283227,1473.978722,-9628.718142
5473.661931,478.564520,1435.693560,-9418.149754
5473.664483,-765.703232,2871.387120,-9801.001370
5473.667035,-287.138712,-842.273555,-10375.278794
5473.669587,401.994197,1722.832272,-8920.442653
5473.672139,-765.703232,937.986459,-9820.143950
5473.674691,-363.709035,153.140646,-10088.140082
5473.677243,-593.420005,2507.678085,-9571.290400
5473.679795,-4441.078746,4000.799387,-9667.003304
5473.682347,-1110.269686,3943.371645,-9533.005238
5473.684899,612.562586,746.560651,-9858.429112
5473.687451,1646.261949,1952.543242,-9915.856854
5473.690003,-2526.820666,2718.246474,-9322.436850
5473.692554,3062.812928,-4249.652938,-9973.284597
5473.695106,-363.709035,8327.022648,-8078.169098
5473.697658,0.000000,-7848.458128,-11715.259450
5473.700210,1550.549045,-57.427742,-9437.292334
5473.702762,2909.672282,-1014.556782,-10241.280728
5473.705314,-669.990328,-2660.818731,-10126.425243
5473.707866,3311.666478,3617.947771,-8690.731683
5473.710418,1263.410333,2469.392923,-9494.720077
5473.712970,2067.398726,-4689.932296,-10853.843314
5473.715522,-19.142581,1397.408398,-9590.432981
5473.718074,823.130974,-2029.113565,-9954.142016
5473.720625,2067.398726,1493.121302,-9360.722011
5473.723177,535.992262,363.709035,-10222.138147
5473.725729,1014.556782,593.420005,-9475.577496
5473.728281,2469.392923,574.277424,-9456.434915
5473.730833,803.988394,-1244.267752,-10241.280728
5473.733385,3847.658741,-1359.123237,-9705.288466
5473.735937,3254.238736,937.986459,-9552.147819
5473.738489,-631.705166,-2450.250342,-9896.714274
5473.741041,3120.240670,-5417.350366,-10298.708470
5473.743593,-1703.689691,5398.207786,-8633.303941
5473.746145,-689.132909,-4498.506488,-10987.841379
5473.748678,2603.390989,3215.953574,-10068.997501
5473.751211,-1952.543242,13457.234302,-6853.043926
5473.753743,1167.697429,-4039.084549,-10432.706536
5473.756276,-3215.953574,3656.232933,-9552.147819
5473.758808,267.996131,-38.285162,-10681.560086
5473.761341,325.423874,19.142581,-9513.862658
5473.763873,-2909.672282,4728.217458,-8958.727814
5473.766406,1071.984525,-3196.810994,-10681.560086
5473.768938,-593.420005,5264.209720,-8690.731683
5473.771471,-191.425808,1359.123237,-10164.710405
5473.774004,535.992262,325.423874,-10049.854920
5473.776536,76.570323,2277.967115,-8997.012976
5473.779069,-344.566454,57.427742,-10068.997501
5473.781601,-440.279358,937.986459,-9858.429112
5473.784134,-842.273555,2163.111630,-9437.292334
5473.786666,-3522.234867,3139.383251,-9647.860723
5473.789199,-2431.107762,4594.219392,-9686.145885
5473.791731,899.701298,19.142581,-10011.569758
5473.794264,497.707101,4479.363907,-9188.438784
5473.796796,-1148.554848,593.420005,-9954.142016
5473.799329,1875.972918,-1301.695494,-9418.149754
5473.801862,2392.822600,6221.338760,-8652.446522
5473.804394,-1378.265818,-2622.533570,-10356.136213
5473.806927,1493.121302,-2584.248408,-9781.858789
5473.809459,2928.814862,-287.138712,-10336.993632
5473.811992,-114.855485,-1435.693560,-9992.427178
5473.814524,2545.963246,5398.207786,-8307.880067
5473.817057,2258.824534,-1454.836141,-10088.140082
5473.819589,1646.261949,-3254.238736,-10566.704602
5473.822122,114.855485,1359.123237,-9839.286531
5473.824654,1186.840010,-1435.693560,-10145.567824
5473.827187,1282.552914,1110.269686,-9360.722011
5473.829720,95.712904,746.560651,-10164.710405
5473.832252,1186.840010,95.712904,-9647.860723
5473.834785,1990.828403,1014.556782,-9322.436850
5473.837317,574.277424,-1607.976787,-10164.710405
5473.839850,4938.785846,-1684.547110,-9954.142016
5473.842382,3369.094221,1684.547110,-9475.577496
5473.844915,-1129.412267,-1933.400661,-9820.143950
5473.847447,2622.533570,-6106.483275,-10413.563955
5473.849986,3254.238736,593.420005,-9858.429112
5473.852524,-2182.254211,4134.797453,-10030.712339
5473.855062,3024.527766,-5302.494882,-11408.978157
5473.857600,-746.560651,12423.534939,-6795.616184
5473.860138,-191.425808,-1071.984525,-10030.712339
5473.862676,-2775.674216,2584.248408,-9647.860723
5473.865215,440.279358,497.707101,-10470.991698
5473.867753,784.845813,-1339.980656,-9992.427178
5473.870291,-3464.807125,5417.350366,-8729.016845
5473.872829,114.855485,-287.138712,-10030.712339
5473.875367,325.423874,2545.963246,-9341.579430
5473.877905,-191.425808,2699.103893,-9743.573627
5473.880444,210.568389,-918.843878,-10394.421374
5473.882982,-708.275490,1875.972918,-9188.438784
5473.885520,133.998066,803.988394,-9724.431046
5473.888058,440.279358,861.416136,-9820.143950
5473.890596,-3426.521963,4077.369710,-9437.292334
5473.893134,-3043.670347,1512.263883,-9858.429112
5473.895673,2794.816797,516.849682,-10088.140082
5473.898211,-2297.109696,8997.012976,-8231.309744
5473.900749,1473.978722,-4019.941968,-10796.415571
5473.903287,-344.566454,5991.627790,-8575.876198
5473.905825,-861.416136,-2297.109696,-10356.136213
5473.908363,3426.521963,-8518.448456,-11370.692995
5473.910902,-1684.547110,9111.868461,-7867.600709
5473.913440,4211.367776,-5130.211654,-10892.128475
5473.915978,210.568389,1665.404530,-9341.579430
5473.918516,-459.421939,-1837.687757,-10298.708470
5473.921054,4517.649069,-5953.342629,-10796.415571
5473.923592,1167.697429,4268.795518,-8824.729749
5473.926131,153.140646,-574.277424,-10107.282662
5473.928669,1186.840010,172.283227,-9399.007173
5473.931207,861.416136,1186.840010,-9628.718142
5473.933745,1799.402595,-1397.408398,-10279.565890
5473.936283,1473.978722,1914.258080,-9360.722011
5473.938821,1359.123237,-535.992262,-9820.143950
5473.941360,1856.830338,-1033.699363,-9762.716208
5473.943898,2163.111630,1684.547110,-9590.432981
5473.946436,3349.951640,-401.994197,-9896.714274
5473.948974,-172.283227,-3081.955509,-10107.282662
5473.951517,3081.955509,-4421.936165,-10432.706536
5473.954060,-2277.967115,4555.934230,-8499.305875
5473.956603,38.285162,-5206.781978,-11160.124606
5473.959146,2775.674216,4536.791650,-9494.720077
5473.961689,-1952.543242,8633.303941,-8422.735552
5473.964231,2660.818731,-6470.192310,-10968.698798
5473.966774,-2603.390989,8020.741355,-7905.885870
5473.969317,191.425808,191.425808,-10547.562021
5473.971860,95.712904,-153.140646,-9781.858789
5473.974403,-1607.976787,3445.664544,-9054.440718
5473.976946,76.570323,-976.271621,-10126.425243
5473.979489,-1014.556782,4575.076811,-9035.298138
5473.982032,-516.849682,459.421939,-10298.708470
5473.984575,1052.841944,1071.984525,-9839.286531
5473.987118,133.998066,1129.412267,-9571.290400
5473.989660,-1186.840010,631.705166,-9628.718142
5473.992203,631.705166,382.851616,-9609.575562
5473.994746,-3369.094221,4402.793584,-9131.011042
5473.997289,-3349.951640,1780.260014,-10088.140082
5473.999832,2507.678085,1856.830338,-10011.569758
5474.002375,-2507.678085,9016.155557,-8135.596840
5474.004918,2220.539373,-3771.088418,-10815.558152
5474.007461,-3483.949706,5532.205851,-8556.733618
5474.010004,2277.967115,-6585.047795,-11083.554283
5474.012546,4000.799387,-535.992262,-10202.995566
5474.015089,-689.132909,5225.924558,-8480.163294
5474.017632,4000.799387,-4326.223261,-10796.415571
5474.020175,95.712904,2220.539373,-8901.300072
5474.022718,153.140646,-995.414202,-10260.423309
5474.025261,4536.791650,-3235.096155,-10604.989763
5474.027804,957.129040,3369.094221,-8863.014910
5474.030347,-114.855485,-440.279358,-10183.852986
5474.032890,1033.699363,-421.136778,-9456.434915
5474.035433,2067.398726,765.703232,-9609.575562
5474.037975,746.560651,38.285162,-10260.423309
5474.040518,1320.838075,842.273555,-9686.145885
5474.043061,1167.697429,382.851616,-9418.149754
5474.045604,708.275490,-650.847747,-9896.714274
5474.048147,5130.211654,-1856.830338,-10336.993632
5474.050690,3388.236802,1052.841944,-9303.294269
5474.053237,-1493.121302,1052.841944,-9226.723946
5474.055784,1091.127106,-6527.620053,-10241.280728
5474.058331,2143.969050,1014.556782,-9552.147819
5474.060878,-1741.974853,2431.107762,-10183.852986
5474.063425,3407.379382,-4058.227130,-11255.837510
5474.065972,-2488.535504,13323.236237,-6929.614250
5474.068519,153.140646,-2890.529701,-10241.280728
5474.071067,-3483.949706,2947.957443,-9399.007173
5474.073614,497.707101,937.986459,-10432.706536
5474.076161,1665.404530,-2488.535504,-10490.134278
5474.078708,-3617.947771,4479.363907,-8767.302006
5474.081255,1071.984525,-669.990328,-10222.138147
5474.083802,-229.710970,4249.652938,-8824.729749
5474.086349,-76.570323,1282.552914,-10030.712339
5474.088896,95.712904,-210.568389,-10145.567824
5474.091443,478.564520,2239.681954,-9360.722011
5474.093990,0.000000,-76.570323,-9973.284597
5474.096537,-535.992262,516.849682,-9667.003304
5474.099084,-3675.375514,4441.078746,-9360.722011
5474.101631,-1837.687757,5895.914886,-9571.290400
5474.104179,689.132909,-650.847747,-10547.562021
5474.106726,-287.138712,3866.801322,-9475.577496
5474.109273,-1588.834206,1282.552914,-9609.575562
5474.111820,2029.113565,-1320.838075,-9475.577496
5474.114367,-57.427742,7235.895542,-8173.882002
5474.116914,3617.947771,-10930.413637,-12327.822035
5474.119461,153.140646,2182.254211,-9226.723946
5474.122008,2277.967115,-1914.258080,-10145.567824
5474.124555,0.000000,-1014.556782,-9801.001370
5474.127102,1761.117434,5206.781978,-8595.018779
5474.129649,3637.090352,-3101.098090,-10413.563955
5474.132196,1091.127106,-995.414202,-9820.143950
5474.134726,-899.701298,995.414202,-9896.714274
5474.137256,1205.982590,-1933.400661,-9839.286531
5474.139786,1990.828403,3235.096155,-9150.153622
5474.142316,153.140646,-1033.699363,-10432.706536
5474.144845,2067.398726,574.277424,-9169.296203
5474.147375,1205.982590,1320.838075,-9341.579430
5474.149905,3790.230998,-2048.256146,-10662.417506
5474.152435,4096.512291,-842.273555,-9513.862658
5474.154965,-287.138712,-1569.691626,-9877.571693
5474.157494,3120.240670,-5264.209720,-10509.276859
5474.160024,-2526.820666,4498.506488,-8327.022648
5474.162554,2833.101958,-5972.485210,-11389.835576
5474.165084,306.281293,7427.321350,-8748.159426
5474.167614,-2086.541307,4153.940034,-9647.860723
5474.170143,2507.678085,-3598.805190,-10509.276859
5474.172673,287.138712,5934.200048,-8556.733618
5474.175203,-937.986459,1359.123237,-10145.567824
5474.177733,248.853550,880.558717,-9896.714274
5474.180263,459.421939,440.279358,-9781.858789
5474.182793,-1588.834206,1952.543242,-9188.438784
5474.185322,-1091.127106,1129.412267,-9954.142016
5474.187852,229.710970,1301.695494,-9762.716208
5474.190382,421.136778,2009.970984,-9686.145885
5474.192912,-382.851616,459.421939,-9896.714274
5474.195442,344.566454,842.273555,-9839.286531
5474.197971,-1359.123237,1071.984525,-9667.003304
5474.200501,-2794.816797,2871.387120,-9207.581365
5474.203031,-3541.377448,5149.354235,-9265.009107
5474.205561,2335.394858,-2105.683888,-10987.841379
5474.208091,-2105.683888,8537.591037,-8365.307810
5474.210620,325.423874,-1129.412267,-10183.852986
5474.213150,803.988394,4421.936165,-8480.163294
5474.215680,-248.853550,287.138712,-9705.288466
5474.218210,5647.061336,-11389.835576,-12098.111066
5474.220740,-114.855485,2431.107762,-8977.870395
5474.223269,2392.822600,-2009.970984,-10088.140082
5474.225799,-19.142581,2507.678085,-8652.446522
5474.228329,1225.125171,2813.959378,-9571.290400
5474.230859,5321.637462,-5781.059402,-10968.698798
5474.233389,382.851616,3388.236802,-8690.731683
5474.235925,-95.712904,-1761.117434,-10356.136213
5474.238461,440.279358,363.709035,-9456.434915
5474.240996,1646.261949,669.990328,-9858.429112
5474.243532,1780.260014,-19.142581,-10088.140082
5474.246068,612.562586,803.988394,-9418.149754
5474.248604,842.273555,-593.420005,-9896.714274
5474.251140,4153.940034,-803.988394,-9686.145885
5474.253676,3790.230998,-172.283227,-9915.856854
5474.256212,229.710970,-3617.947771,-10317.851051
5474.258748,2890.529701,-3445.664544,-9915.856854
5474.261284,-1761.117434,4211.367776,-8480.163294
5474.263820,3062.812928,-6431.907149,-11389.835576
5474.266356,-344.566454,7733.602643,-8863.014910
5474.268892,-1952.543242,11428.120738,-8212.167163
5474.271427,2890.529701,-6642.475538,-10777.272990
5474.273963,-2890.529701,6910.471669,-8193.024582
5474.276499,-1359.123237,1799.402595,-10107.282662
5474.279035,114.855485,669.990328,-10126.425243
5474.281571,727.418070,-153.140646,-9915.856854
5474.284107,-1837.687757,1646.261949,-9303.294269
5474.286643,-153.140646,516.849682,-9896.714274
5474.289179,325.423874,3426.521963,-9150.153622
5474.291715,-38.285162,172.283227,-10260.423309
5474.294251,38.285162,1512.263883,-9418.149754
5474.296787,1607.976787,1148.554848,-9877.571693
5474.299323,-2718.246474,1110.269686,-9858.429112
5474.301859,-2718.246474,2258.824534,-9245.866526
5474.304394,-1990.828403,6412.764568,-9303.294269
5474.306930,784.845813,-1359.123237,-10834.700733
5474.309466,-1378.265818,4804.787781,-9131.011042
5474.312002,-440.279358,1071.984525,-9781.858789
5474.314538,1665.404530,1359.123237,-8882.157491
5474.317074,1493.121302,7350.751027,-8212.167163
5474.319610,421.136778,-5608.776174,-11351.550414
5474.322146,746.560651,-1914.258080,-9724.431046
5474.324682,1780.260014,-1416.550979,-10298.708470
5474.327218,-153.140646,708.275490,-9360.722011
5474.329754,1416.550979,4804.787781,-8843.872330
5474.332290,5130.211654,-4192.225195,-10566.704602
5474.334825,516.849682,1339.980656,-9322.436850
5474.337367,-727.418070,-1167.697429,-10490.134278
5474.339908,1512.263883,-995.414202,-10088.140082
5474.342450,1416.550979,2488.535504,-9207.581365
5474.344991,650.847747,-631.705166,-10222.138147
5474.347533,1129.412267,574.277424,-9226.723946
5474.350074,1033.699363,1665.404530,-9360.722011
5474.352616,4728.217458,-3885.943902,-10643.274925
5474.355157,4575.076811,-459.421939,-9590.432981
5474.357699,-1301.695494,2124.826469,-9341.579430
5474.360240,2852.244539,-8824.729749,-10815.558152
5474.362781,38.285162,3713.660675,-8633.303941
5474.365323,-3024.527766,6297.909083,-9686.145885
5474.367864,3062.812928,-6776.473603,-11772.687192
5474.370406,191.425808,12289.536874,-7178.467800
5474.372947,-76.570323,746.560651,-9724.431046
5474.375489,-3694.518094,516.849682,-9552.147819
5474.378030,-440.279358,2143.969050,-10222.138147
5474.380572,995.414202,-1416.550979,-10356.136213
5474.383113,-1033.699363,3196.810994,-8997.012976
5474.385655,-918.843878,2411.965181,-9379.864592
5474.388196,-516.849682,3235.096155,-9131.011042
5474.390738,-38.285162,1186.840010,-9801.001370
5474.393279,708.275490,-1014.556782,-10356.136213
5474.395820,459.421939,2488.535504,-9399.007173
5474.398362,-1091.127106,-1014.556782,-10145.567824
5474.400903,-2584.248408,3483.949706,-9188.438784
5474.403445,-3617.947771,4115.654872,-9188.438784
5474.405986,2947.957443,-1091.127106,-10604.989763
5474.408528,-2813.959378,9915.856854,-8422.735552
5474.411069,1339.980656,-1416.550979,-10643.274925
5474.413611,555.134843,4230.510357,-8384.450390
5474.416152,95.712904,248.853550,-9724.431046
5474.418694,5895.914886,-11026.126541,-11830.114934
5474.421235,-2756.531635,7618.747158,-8193.024582
5474.423776,3005.385186,-4173.082614,-10949.556218
5474.426318,133.998066,2565.105827,-8575.876198
5474.428859,880.558717,-823.130974,-10183.852986
5474.431401,4000.799387,-2143.969050,-10451.849117
5474.433942,1741.974853,3311.666478,-8882.157491
5474.436484,631.705166,-3081.955509,-10758.130410
5474.439030,-57.427742,842.273555,-9360.722011
5474.441576,1359.123237,727.418070,-9590.432981
5474.444121,2431.107762,-172.283227,-10088.140082
5474.446667,746.560651,1225.125171,-9552.147819
5474.449213,363.709035,1205.982590,-9590.432981
5474.451759,5091.926493,-3541.377448,-10413.563955
5474.454305,4498.506488,-899.701298,-9781.858789
5474.456851,-1435.693560,2603.390989,-9131.011042
5474.459397,2622.533570,-8288.737486,-10662.417506
5474.461943,574.277424,2335.394858,-8920.442653
5474.464489,-2048.256146,-172.283227,-10490.134278
5474.467035,2354.537438,-2947.957443,-11389.835576
5474.469581,-2947.957443,14222.937534,-7140.182638
5474.472127,1780.260014,-4536.791650,-10509.276859
5474.474672,-3464.807125,669.990328,-9418.149754
5474.477218,-516.849682,1933.400661,-10432.706536
5474.479764,1071.984525,-1148.554848,-10260.423309
5474.482310,-957.129040,2947.957443,-9035.298138
5474.484856,-1052.841944,2679.961312,-9475.577496
5474.487402,-516.849682,669.990328,-9686.145885
5474.489948,1205.982590,2182.254211,-9686.145885
5474.492494,325.423874,-191.425808,-9992.427178
5474.495040,-229.710970,2067.398726,-9322.436850
5474.497586,306.281293,401.994197,-10068.997501
5474.500132,-2239.681954,2699.103893,-9590.432981
5474.502677,-3503.092286,4709.074877,-9035.298138
5474.505223,2067.398726,-2067.398726,-10662.417506
5474.507769,-1895.115499,7810.172966,-9111.868461
5474.510315,-114.855485,-19.142581,-10049.854920
5474.512861,133.998066,5245.067139,-8135.596840
5474.515407,344.566454,-555.134843,-9801.001370
5474.517953,5608.776174,-10604.989763,-11562.118803
5474.520499,-2105.683888,2009.970984,-9552.147819
5474.523045,1780.260014,-2105.683888,-10336.993632
5474.525591,153.140646,2182.254211,-8556.733618
5474.528137,1397.408398,2565.105827,-9667.003304
5474.530683,5570.491013,-4517.649069,-10681.560086
5474.533228,593.420005,3292.523898,-8709.874264
5474.535774,-133.998066,-2622.533570,-10662.417506
5474.538320,765.703232,325.423874,-9456.434915
5474.540870,574.277424,1416.550979,-9628.718142
5474.543420,2258.824534,-306.281293,-9954.142016
5474.545971,574.277424,1512.263883,-8977.870395
5474.548521,2220.539373,861.416136,-9762.716208
5474.551071,4115.654872,-2392.822600,-10183.852986
5474.553621,3426.521963,-2813.959378,-10068.997501
5474.556171,880.558717,1646.261949,-9169.296203
5474.558721,133.998066,-4613.361973,-9877.571693
5474.561271,2411.965181,-1416.550979,-9801.001370
5474.563821,-2411.965181,5513.063270,-9839.286531
5474.566371,2890.529701,-5991.627790,-11753.544611
5474.568922,-823.130974,12729.816232,-7044.469734
5474.571472,-593.420005,5895.914886,-8556.733618
5474.574022,-3828.516160,574.277424,-9418.149754
5474.576572,-631.705166,1550.549045,-10509.276859
5474.579122,1531.406464,-1569.691626,-10432.706536
5474.581672,-1301.695494,1512.263883,-9073.583299
5474.584222,-612.562586,3579.662610,-9226.723946
5474.586772,-382.851616,1607.976787,-9437.292334
5474.589322,555.134843,1818.545176,-9724.431046
5474.591872,325.423874,-1339.980656,-10509.276859
5474.594423,1052.841944,1588.834206,-9207.581365
5474.596973,-1914.258080,2124.826469,-9877.571693
5474.599523,-3292.523898,1895.115499,-9647.860723
5474.602073,-344.566454,4364.508422,-8748.159426
5474.604623,-1684.547110,4957.928427,-9724.431046
5474.607173,-19.142581,-191.425808,-10815.558152
5474.609723,-2526.820666,3215.953574,-9265.009107
5474.612273,2986.242605,-3522.234867,-9896.714274
5474.614823,631.705166,7829.315547,-7657.032320
5474.617373,1780.260014,-7944.171032,-11753.544611
5474.619924,1512.263883,-5493.920690,-11217.552349
5474.622474,1914.258080,-325.423874,-10049.854920
5474.625024,401.994197,-1397.408398,-9781.858789
5474.627574,1531.406464,3885.943902,-8882.157491
5474.630124,4766.502619,-1493.121302,-9954.142016
5474.632674,995.414202,1397.408398,-9303.294269
5474.635224,-1071.984525,-1933.400661,-10662.417506
5474.637774,440.279358,459.421939,-9494.720077
5474.640324,2009.970984,1531.406464,-9418.149754
5474.642878,669.990328,-191.425808,-10222.138147
5474.645431,440.279358,861.416136,-9379.864592
5474.647985,4555.934230,-1378.265818,-9858.429112
5474.650538,4287.938099,-1339.980656,-9915.856854
5474.653091,-1263.410333,382.851616,-9533.005238
5474.655645,3943.371645,-8020.741355,-11121.839445
5474.658198,-1512.263883,4747.360038,-8020.741355
5474.660751,133.998066,-5647.061336,-11370.692995
5474.663305,1990.828403,4268.795518,-9628.718142
5474.665858,-3330.809059,13897.513661,-7312.465866
5474.668412,2086.541307,-4096.512291,-10509.276859
5474.670965,-3426.521963,4134.797453,-8709.874264
5474.673518,-995.414202,1722.832272,-10336.993632
5474.676072,133.998066,-497.707101,-10356.136213
5474.678625,535.992262,2029.113565,-9265.009107
5474.681178,-1665.404530,-153.140646,-9877.571693
5474.683732,-478.564520,842.273555,-9801.001370
5474.686285,823.130974,4192.225195,-9245.866526
5474.688839,172.283227,-574.277424,-10241.280728
5474.691392,153.140646,1665.404530,-9418.149754
5474.693945,-650.847747,1933.400661,-9801.001370
5474.696499,-3005.385186,2086.541307,-9743.573627
5474.699052,-3158.525832,3924.229064,-9035.298138
5474.701606,765.703232,650.847747,-9973.284597
5474.704159,-1378.265818,4421.936165,-10126.425243
5474.706712,-267.996131,1301.695494,-9896.714274
5474.709266,1416.550979,3541.377448,-8537.591037
5474.711819,133.998066,2718.246474,-8729.016845
5474.714372,6604.190376,-12002.398162,-11657.831707
5474.716926,344.566454,-918.843878,-10222.138147
5474.719479,1856.830338,-1799.402595,-10317.851051
5474.722033,440.279358,1186.840010,-8977.870395
5474.724586,937.986459,3675.375514,-9150.153622
5474.727139,5608.776174,-3579.662610,-10432.706536
5474.729693,229.710970,2526.820666,-8939.585234
5474.732246,-95.712904,-2641.676150,-10872.985894
5474.734799,880.558717,57.427742,-9609.575562
5474.737353,784.845813,2105.683888,-9513.862658
5474.739906,1473.978722,-1359.123237,-10030.712339
5474.742460,497.707101,1799.402595,-9111.868461
5474.745016,4460.221326,-1646.261949,-10298.708470
5474.747573,4192.225195,-1186.840010,-9915.856854
5474.750129,-1339.980656,842.273555,-9571.290400
5474.752686,4689.932296,-8365.307810,-11026.126541
5474.755242,-1473.978722,4249.652938,-8039.883936
5474.757799,995.414202,-6010.770371,-11294.122672
5474.760355,937.986459,5627.918755,-9456.434915
5474.762912,-1799.402595,6948.756830,-9226.723946
5474.765468,2756.531635,-4843.072942,-10662.417506
5474.768025,-2928.814862,4900.500685,-8384.450390
5474.770582,-1761.117434,2239.681954,-10145.567824
5474.773138,382.851616,-401.994197,-10432.706536
5474.775695,669.990328,2086.541307,-9303.294269
5474.778251,-1167.697429,-1148.554848,-9954.142016
5474.780808,-497.707101,1875.972918,-9667.003304
5474.783364,-612.562586,4287.938099,-9111.868461
5474.785921,861.416136,-1397.408398,-10451.849117
5474.788478,306.281293,1607.976787,-9245.866526
5474.791034,-574.277424,2526.820666,-9724.431046
5474.793591,-3426.521963,1627.119368,-9858.429112
5474.796147,-1531.406464,4498.506488,-8595.018779
5474.798704,-727.418070,2947.957443,-9647.860723
5474.801260,-784.845813,1607.976787,-10796.415571
5474.803817,-1014.556782,2660.818731,-9724.431046
5474.806373,1818.545176,248.853550,-9092.725880
5474.808930,287.138712,5264.209720,-7963.313613
5474.811487,-459.421939,-3120.240670,-10394.421374
5474.814043,459.421939,-2986.242605,-10662.417506
5474.816600,2105.683888,-1550.549045,-10547.562021
5474.819156,555.134843,-114.855485,-9265.009107
5474.821713,1282.552914,4058.227130,-8786.444587
5474.824269,5398.207786,-1703.689691,-10011.569758
5474.826826,-133.998066,1799.402595,-9188.438784
5474.829383,57.427742,-3407.379382,-10949.556218
5474.831939,631.705166,957.129040,-9609.575562
5474.834496,1263.410333,1320.838075,-9647.860723
5474.837052,344.566454,-650.847747,-9915.856854
5474.839609,2354.537438,1244.267752,-9265.009107
5474.842165,4096.512291,-784.845813,-10011.569758
5474.844722,3924.229064,-3273.381317,-10202.995566
5474.847281,19.142581,2718.246474,-9073.583299
5474.849840,2756.531635,-6336.194245,-10279.565890
5474.852399,880.558717,593.420005,-8843.872330
5474.854958,-1703.689691,-574.277424,-10987.841379
5474.857517,1129.412267,-4938.785846,-11447.263318
5474.860076,306.281293,9379.864592,-7925.028451
5474.862635,478.564520,2392.822600,-9437.292334
5474.865194,-3158.525832,1359.123237,-8882.157491
5474.867753,-1033.699363,1684.547110,-10490.134278
5474.870312,401.994197,-1339.980656,-10451.849117
5474.872870,-191.425808,689.132909,-9245.866526
5474.875429,-1646.261949,3235.096155,-9399.007173
5474.877988,-267.996131,2124.826469,-9360.722011
5474.880547,325.423874,1550.549045,-9628.718142
5474.883106,1071.984525,-957.129040,-10394.421374
5474.885665,-842.273555,2431.107762,-9418.149754
5474.888224,-1148.554848,1473.978722,-10011.569758
5474.890783,-3943.371645,2928.814862,-9533.005238
5474.893342,727.418070,1110.269686,-9418.149754
5474.895901,-1512.263883,6508.477472,-9724.431046
5474.898460,172.283227,803.988394,-10509.276859
5474.901019,593.420005,5493.920690,-8461.020714
5474.903578,-267.996131,-708.275490,-9456.434915
5474.906137,5934.200048,-11696.116869,-11523.833642
5474.908696,-2756.531635,7886.743290,-8327.022648
5474.911255,2756.531635,-4594.219392,-11351.550414
5474.913814,555.134843,1837.687757,-9111.868461
5474.916373,1397.408398,-593.420005,-9686.145885
5474.918932,2354.537438,-842.273555,-10011.569758
5474.921491,803.988394,784.845813,-9226.723946
5474.924050,937.986459,-1454.836141,-10700.702667
5474.926609,708.275490,363.709035,-9858.429112
5474.929168,76.570323,2029.113565,-9207.581365
5474.931727,803.988394,-1186.840010,-10107.282662
5474.934285,650.847747,2009.970984,-9073.583299
5474.936844,3962.514226,-2871.387120,-10260.423309
5474.939403,4383.651003,-172.283227,-10202.995566
5474.941962,-1473.978722,1741.974853,-9801.001370
5474.944521,4843.072942,-7580.461997,-10375.278794
5474.947080,612.562586,918.843878,-8767.302006
5474.949642,-1971.685822,-2794.816797,-10987.841379
5474.952203,1588.834206,-535.992262,-10949.556218
5474.954764,-3579.662610,13935.798822,-7905.885870
5474.957325,3120.240670,-4957.928427,-10528.419440
5474.959886,-1971.685822,5627.918755,-8193.024582
5474.962448,-2220.539373,2277.967115,-10126.425243
5474.965009,-153.140646,-957.129040,-10413.563955
5474.967570,478.564520,1952.543242,-9724.431046
5474.970131,-535.992262,363.709035,-9743.573627
5474.972693,-1186.840010,1607.976787,-9379.864592
5474.975254,306.281293,3522.234867,-9475.577496
5474.977815,1071.984525,-1205.982590,-10049.854920
5474.980376,-784.845813,2354.537438,-9322.436850
5474.982938,-612.562586,1780.260014,-10317.851051
5474.985499,-3809.373579,2737.389054,-9647.860723
5474.988060,535.992262,2603.390989,-8882.157491
5474.990621,-2507.678085,7006.184573,-8614.161360
5474.993182,727.418070,210.568389,-11102.696864
5474.995744,-2392.822600,6317.051664,-8575.876198
5474.998305,1493.121302,-4843.072942,-10432.706536
5475.000866,5053.641331,-5915.057467,-10068.997501
5475.003427,-1684.547110,6585.047795,-7963.313613
5475.005989,1990.828403,-6106.483275,-11830.114934
5475.008550,1856.830338,1320.838075,-9647.860723
5475.011111,727.418070,-1493.121302,-9801.001370
5475.013672,1971.685822,1263.410333,-9341.579430
5475.016234,3598.805190,765.703232,-9456.434915
5475.018795,727.418070,631.705166,-9628.718142
5475.021356,555.134843,306.281293,-10164.710405
5475.023917,344.566454,880.558717,-9954.142016
5475.026478,1761.117434,-669.990328,-9667.003304
5475.029040,1091.127106,1339.980656,-9379.864592
5475.031601,3522.234867,-2431.107762,-9915.856854
5475.034162,4632.504554,-727.418070,-10183.852986
5475.036723,-1205.982590,2450.250342,-9839.286531
5475.039285,4287.938099,-9265.009107,-10987.841379
5475.041846,593.420005,-210.568389,-8920.442653
5475.044407,-2067.398726,-3024.527766,-11083.554283
5475.046968,2258.824534,-535.992262,-10872.985894
5475.049530,-3885.943902,15046.068509,-7695.317482
5475.052093,3215.953574,-4823.930362,-10604.989763
5475.054656,-2124.826469,5015.356170,-8116.454259
5475.057219,-2220.539373,2067.398726,-10107.282662
5475.059783,-497.707101,-689.132909,-10356.136213
5475.062346,1014.556782,1531.406464,-9781.858789
5475.064909,287.138712,-1014.556782,-9877.571693
5475.067472,-1416.550979,2297.109696,-9169.296203
5475.070036,-382.851616,3081.955509,-9494.720077
5475.072599,1091.127106,-976.271621,-10068.997501
5475.075162,-229.710970,2373.680019,-9360.722011
5475.077726,-1416.550979,1550.549045,-10451.849117
5475.080289,-3579.662610,2488.535504,-9628.718142
5475.082852,516.849682,1875.972918,-8901.300072
5475.085415,-2029.113565,7561.319416,-8671.589102
5475.087979,363.709035,-57.427742,-11179.267187
5475.090542,861.416136,5647.061336,-8690.731683
5475.093105,153.140646,-497.707101,-9399.007173
5475.095669,5723.631659,-11294.122672,-11045.269122
5475.098232,-2679.961312,6910.471669,-8422.735552
5475.100795,2928.814862,-4785.645200,-11408.978157
5475.103358,957.129040,1780.260014,-9226.723946
5475.105922,1320.838075,-459.421939,-9896.714274
5475.108485,2201.396792,-382.851616,-9877.571693
5475.111048,2507.678085,382.851616,-9456.434915
5475.113611,1091.127106,76.570323,-10088.140082
5475.116175,497.707101,765.703232,-9705.288466
5475.118738,133.998066,1052.841944,-9858.429112
5475.121301,1473.978722,-669.990328,-10068.997501
5475.123865,2335.394858,669.990328,-8882.157491
5475.126428,3311.666478,-1512.263883,-9686.145885
5475.128991,4153.940034,-2354.537438,-10643.274925
5475.131554,459.421939,2909.672282,-9494.720077
5475.134118,2258.824534,-5781.059402,-9724.431046
5475.136681,1205.982590,-899.701298,-9131.011042
5475.139244,-3483.949706,6451.049730,-9456.434915
5475.141808,937.986459,-4345.365842,-11887.542677
5475.144371,459.421939,8709.874264,-8537.591037
5475.146934,133.998066,3503.092286,-8997.012976
5475.149497,-2871.387120,784.845813,-8939.585234
5475.152061,-1263.410333,2048.256146,-10222.138147
5475.154625,57.427742,-746.560651,-10509.276859
5475.157190,363.709035,1665.404530,-9437.292334
5475.159755,229.710970,1033.699363,-9667.003304
5475.162319,-1588.834206,3579.662610,-8863.014910
5475.164884,344.566454,957.129040,-9781.858789
5475.167448,325.423874,267.996131,-10183.852986
5475.170013,-114.855485,1952.543242,-9571.290400
5475.172578,-2928.814862,2450.250342,-10049.854920
5475.175142,-1550.549045,1990.828403,-9552.147819
5475.177707,-1550.549045,3101.098090,-8901.300072
5475.180272,-899.701298,3541.377448,-10049.854920
5475.182836,-1780.260014,2201.396792,-10336.993632
5475.185401,2105.683888,535.992262,-9341.579430
5475.187965,3771.088418,4307.080680,-8441.878133
5475.190530,-1071.984525,-3426.521963,-9992.427178
5475.193095,957.129040,-3790.230998,-10317.851051
5475.195659,2182.254211,-535.992262,-10547.562021
5475.198224,784.845813,-76.570323,-9743.573627
5475.200789,1091.127106,4268.795518,-8690.731683
5475.203353,4173.082614,-1282.552914,-9858.429112
5475.205918,401.994197,-1378.265818,-9801.001370
5475.208482,918.843878,-689.132909,-10298.708470
5475.211047,535.992262,555.134843,-10145.567824
5475.213612,248.853550,363.709035,-9571.290400
5475.216176,1071.984525,-210.568389,-9475.577496
5475.218741,2928.814862,-574.277424,-9284.151688
5475.221306,5206.781978,-1473.978722,-10107.282662
5475.223870,-650.847747,2756.531635,-9858.429112
5475.226435,3847.658741,-8614.161360,-11160.124606
5475.229000,-746.560651,2297.109696,-7905.885870
5475.231564,1397.408398,-6125.625856,-10853.843314
5475.234129,172.283227,5781.059402,-9207.581365
5475.236693,-3656.232933,14165.509792,-7810.172966
5475.239258,2813.959378,-3885.943902,-10777.272990
5475.241823,-2029.113565,5187.639397,-8116.454259
5475.244387,-2335.394858,2182.254211,-9705.288466
5475.246952,-612.562586,-1301.695494,-10528.419440
5475.249517,995.414202,2220.539373,-9667.003304
5475.252081,1071.984525,-1186.840010,-10088.140082
5475.254646,-1244.267752,1167.697429,-9418.149754
5475.257212,-1110.269686,4555.934230,-8824.729749
5475.259778,440.279358,-689.132909,-10241.280728
5475.262344,95.712904,2469.392923,-9533.005238
5475.264910,-2201.396792,2469.392923,-10030.712339
5475.267476,-2469.392923,1856.830338,-9724.431046
5475.270042,-478.564520,1875.972918,-9303.294269
5475.272609,-1588.834206,5015.356170,-9533.005238
5475.275175,-2450.250342,3043.670347,-10394.421374
5475.277741,3158.525832,-1052.841944,-9628.718142
5475.280307,1186.840010,6106.483275,-7848.458128
5475.282873,1780.260014,-9628.718142,-11370.692995
5475.285439,-114.855485,-937.986459,-9877.571693
5475.288005,2277.967115,-1761.117434,-10700.702667
5475.290571,1091.127106,1244.267752,-9188.438784
5475.293137,1665.404530,3713.660675,-9226.723946
5475.295704,3311.666478,-95.712904,-9667.003304
5475.298270,76.570323,-2105.683888,-9973.284597
5475.300836,421.136778,-1033.699363,-10279.565890
5475.303402,803.988394,708.275490,-10088.140082
5475.305968,440.279358,2143.969050,-9590.432981
5475.308534,842.273555,-631.705166,-9628.718142
5475.311100,2622.533570,-669.990328,-9111.868461
5475.313666,4919.643266,-1282.552914,-9858.429112
5475.316232,133.998066,1186.840010,-10222.138147
5475.318799,3005.385186,-5819.344563,-10298.708470
5475.321365,267.996131,287.138712,-8327.022648
5475.323931,-1703.689691,-3579.662610,-10528.419440
5475.326497,1493.121302,-57.427742,-10777.272990
5475.329063,-3330.809059,14012.369146,-8078.169098
5475.331629,3043.670347,-4460.221326,-10987.841379
5475.334195,-1990.828403,5876.772306,-7982.456194
5475.336761,-2622.533570,2277.967115,-9475.577496
5475.339327,-593.420005,-1588.834206,-10451.849117
5475.341894,1167.697429,2258.824534,-9839.286531
5475.344460,842.273555,555.134843,-10030.712339
5475.347026,-1454.836141,1722.832272,-9207.581365
5475.349592,-957.129040,4077.369710,-9016.155557
5475.352158,363.709035,-1684.547110,-10375.278794
5475.354724,-38.285162,2699.103893,-9513.862658
5475.357290,-2718.246474,2699.103893,-10088.140082
5475.359857,-1167.697429,440.279358,-10030.712339
5475.362424,-2143.969050,4575.076811,-8824.729749
5475.364991,-1684.547110,3215.953574,-9820.143950
5475.367559,-1416.550979,3445.664544,-10202.995566
5475.370126,5130.211654,-3962.514226,-10260.423309
5475.372693,3522.234867,4996.213589,-8307.880067
5475.375260,-1167.697429,-5225.924558,-10183.852986
5475.377827,593.420005,-3656.232933,-10241.280728
5475.380394,2182.254211,-1225.125171,-10585.847182
5475.382961,1320.838075,478.564520,-9781.858789
5475.385528,1397.408398,4345.365842,-9016.155557
5475.388095,3254.238736,-1033.699363,-9628.718142
5475.390662,803.988394,-1818.545176,-9801.001370
5475.393229,1416.550979,-1607.976787,-10260.423309
5475.395796,784.845813,1895.115499,-10068.997501
5475.398363,-153.140646,1033.699363,-9781.858789
5475.400930,2258.824534,-631.705166,-9475.577496
5475.403498,2813.959378,-421.136778,-8977.870395
5475.406065,4173.082614,-2220.539373,-10011.569758
5475.408632,1205.982590,2009.970984,-10164.710405
5475.411199,2775.674216,-4709.074877,-10260.423309
5475.413766,95.712904,-363.709035,-8518.448456
5475.416333,-1971.685822,-2947.957443,-10317.851051
5475.418900,1627.119368,-4383.651003,-11868.400096
5475.421467,-114.855485,10796.415571,-8231.309744
5475.424034,421.136778,2565.105827,-9820.143950
5475.426601,-3273.381317,1531.406464,-8671.589102
5475.429168,-1512.263883,1703.689691,-9667.003304
5475.431735,-631.705166,-1186.840010,-10528.419440
5475.434302,861.416136,1952.543242,-9667.003304
5475.436869,1263.410333,689.132909,-10088.140082
5475.439437,-1646.261949,1320.838075,-9303.294269
5475.442004,-401.994197,1531.406464,-9360.722011
5475.444571,765.703232,287.138712,-10145.567824
5475.447138,-1244.267752,2584.248408,-9801.001370
5475.449705,-2450.250342,1971.685822,-10088.140082
5475.452272,-287.138712,459.421939,-9590.432981
5475.454839,-3120.240670,7503.891674,-8135.596840
5475.457406,363.709035,1588.834206,-10336.993632
5475.459973,-3464.807125,5781.059402,-9284.151688
5475.462541,4766.502619,-5168.496816,-11064.411702
5475.465109,4766.502619,-10183.852986,-10911.271056
5475.467677,-3349.951640,5474.778109,-8020.741355
5475.470245,2143.969050,-6087.340694,-11351.550414
5475.472813,2143.969050,1550.549045,-9494.720077
5475.475381,1301.695494,-210.568389,-10164.710405
5475.477949,2067.398726,937.986459,-9647.860723
5475.480517,2699.103893,2469.392923,-8977.870395
5475.483085,-248.853550,-1971.685822,-9609.575562
5475.485653,1818.545176,-1359.123237,-10490.134278
5475.488221,995.414202,2029.113565,-9954.142016
5475.490789,1033.699363,-229.710970,-10164.710405
5475.493357,1435.693560,-1282.552914,-9169.296203
5475.495925,4651.647134,-1071.984525,-9054.440718
5475.498493,382.851616,229.710970,-10624.132344
5475.501060,4211.367776,-6412.764568,-11676.974288
5475.503628,-382.851616,2277.967115,-8250.452325
5475.506196,2316.252277,-5761.916821,-10202.995566
5475.508764,-2067.398726,6355.336826,-8652.446522
5475.511332,-2239.681954,3694.518094,-10145.567824
5475.513900,3637.090352,-4326.223261,-11447.263318
5475.516468,-1416.550979,7618.747158,-7618.747158
5475.519036,-4115.654872,2048.256146,-9360.722011
5475.521604,-995.414202,-1244.267752,-10202.995566
5475.524172,1359.123237,1339.980656,-9839.286531
5475.526740,1339.980656,-1110.269686,-10356.136213
5475.529308,-574.277424,1990.828403,-9801.001370
5475.531876,-2105.683888,3637.090352,-8690.731683
5475.534444,95.712904,516.849682,-9628.718142
5475.537012,95.712904,1703.689691,-9954.142016
5475.539580,-1933.400661,2182.254211,-10317.851051
5475.542148,937.986459,114.855485,-10432.706536
5475.544717,-3981.656806,8173.882002,-7791.030386
5475.547286,-612.562586,995.414202,-10126.425243
5475.549855,-3349.951640,3081.955509,-10049.854920
5475.552423,5111.069074,-2411.965181,-10202.995566
5475.554992,3503.092286,5781.059402,-8288.737486
5475.557561,-650.847747,-6508.477472,-10624.132344
5475.560130,-19.142581,-3847.658741,-9801.001370
5475.562699,2143.969050,-1703.689691,-10317.851051
5475.565268,1818.545176,-650.847747,-10298.708470
5475.567837,1569.691626,3522.234867,-9169.296203
5475.570406,2450.250342,2124.826469,-9207.581365
5475.572974,1071.984525,-2316.252277,-9647.860723
5475.575543,746.560651,-1416.550979,-10068.997501
5475.578112,325.423874,1627.119368,-10049.854920
5475.580681,1741.974853,1110.269686,-10030.712339
5475.583250,1473.978722,-1129.412267,-9647.860723
5475.585819,3924.229064,-1473.978722,-8805.587168
5475.588388,612.562586,-1091.127106,-10298.708470
5475.590957,4613.361973,-4517.649069,-11753.544611
5475.593525,19.142581,1837.687757,-8690.731683
5475.596094,3330.809059,-5647.061336,-10107.282662
5475.598663,-4000.799387,7121.040058,-8461.020714
5475.601232,-1933.400661,210.568389,-10566.704602
