#time,accel_x,accel_y,accel_z
5980.838893,612.562586,861.416136,-9820.143950
5980.841446,459.421939,535.992262,-9934.999435
5980.844000,535.992262,937.986459,-9667.003304
5980.846554,555.134843,650.847747,-9686.145885
5980.849107,555.134843,478.564520,-9877.571693
5980.851661,555.134843,784.845813,-9705.288466
5980.854215,497.707101,784.845813,-9801.001370
5980.856768,497.707101,593.420005,-9801.001370
5980.859322,708.275490,899.701298,-9667.003304
5980.861876,497.707101,1014.556782,-9801.001370
5980.864429,861.416136,-133.998066,-9973.284597
5980.866983,1473.978722,631.705166,-9762.716208
5980.869537,1282.552914,-153.140646,-9954.142016
5980.872090,2488.535504,-1014.556782,-9877.571693
5980.874644,306.281293,1607.976787,-9475.577496
5980.877198,3005.385186,-5283.352301,-10987.841379
5980.879751,1339.980656,-2354.537438,-9169.296203
5980.882305,-4096.512291,4345.365842,-8958.727814
5980.884859,2603.390989,-3388.236802,-11849.257515
5980.887413,1799.402595,4211.367776,-9609.575562
5980.889968,2794.816797,2316.252277,-9437.292334
5980.892523,-1282.552914,1167.697429,-8805.587168
5980.895078,-2833.101958,3120.240670,-9226.723946
5980.897632,306.281293,-1990.828403,-11160.124606
5980.900187,-861.416136,-1033.699363,-10202.995566
5980.902742,2316.252277,-1359.123237,-10202.995566
5980.905297,-153.140646,4077.369710,-8556.733618
5980.907851,-842.273555,880.558717,-9456.434915
5980.910406,-3330.809059,3943.371645,-9915.856854
5980.912961,1359.123237,19.142581,-11064.411702
5980.915516,1244.267752,1971.685822,-9035.298138
5980.918070,1301.695494,-784.845813,-9399.007173
5980.920625,-727.418070,19.142581,-9724.431046
5980.923180,-612.562586,2048.256146,-9934.999435
5980.925735,229.710970,1416.550979,-10490.134278
5980.928289,746.560651,880.558717,-9399.007173
5980.930844,344.566454,421.136778,-9169.296203
5980.933399,-38.285162,516.849682,-9781.858789
5980.935953,133.998066,1435.693560,-10202.995566
5980.938508,937.986459,344.566454,-10413.563955
5980.941063,-1186.840010,1071.984525,-9609.575562
5980.943618,-1091.127106,153.140646,-9590.432981
5980.946172,-2641.676150,1416.550979,-9399.007173
5980.948727,3579.662610,-19.142581,-10336.993632
5980.951282,57.427742,5915.057467,-9437.292334
5980.953837,-1225.125171,3866.801322,-10279.565890
5980.956391,267.996131,1473.978722,-9418.149754
5980.958946,-3579.662610,8173.882002,-8039.883936
5980.961501,2411.965181,-3215.953574,-10853.843314
5980.964056,-287.138712,2373.680019,-9111.868461
5980.966610,2871.387120,-9437.292334,-12021.540742
5980.969165,-1761.117434,1703.689691,-8997.012976
5980.971720,-4900.500685,7446.463931,-8652.446522
5980.974275,5455.635528,-3885.943902,-11638.689126
5980.976829,3981.656806,12040.683323,-7944.171032
5980.979384,-1722.832272,1129.412267,-9379.864592
5980.981939,2124.826469,-9418.149754,-10892.128475
5980.984494,-2775.674216,5685.346498,-8441.878133
5980.987048,3809.373579,-7810.172966,-11696.116869
5980.989602,267.996131,4230.510357,-8958.727814
5980.992156,4173.082614,-191.425808,-10298.708470
5980.994710,325.423874,-133.998066,-9169.296203
5980.997264,-2565.105827,842.273555,-10011.569758
5980.999818,2258.824534,-2737.389054,-10968.698798
5981.002371,1301.695494,4441.078746,-8173.882002
5981.004925,1569.691626,-1837.687757,-10643.274925
5981.007479,2354.537438,-2239.681954,-9954.142016
5981.010033,1875.972918,-555.134843,-9494.720077
5981.012587,-689.132909,727.418070,-10336.993632
5981.015141,-1186.840010,2392.822600,-10107.282662
5981.017695,1071.984525,1071.984525,-9571.290400
5981.020248,2890.529701,-497.707101,-9839.286531
5981.022802,1033.699363,765.703232,-9494.720077
5981.025356,-306.281293,-918.843878,-10068.997501
5981.027910,478.564520,1071.984525,-10183.852986
5981.030464,1282.552914,650.847747,-10011.569758
5981.033018,574.277424,-38.285162,-9609.575562
5981.035572,937.986459,382.851616,-9169.296203
5981.038126,-325.423874,-287.138712,-9992.427178
5981.040679,2220.539373,1646.261949,-10030.712339
5981.043233,2258.824534,38.285162,-10030.712339
5981.045787,2239.681954,-2794.816797,-9877.571693
5981.048341,-1895.115499,2316.252277,-9035.298138
5981.050895,842.273555,-3943.371645,-10892.128475
5981.053449,1071.984525,-344.566454,-9628.718142
5981.056003,1225.125171,4728.217458,-9647.860723
5981.058556,3407.379382,-2354.537438,-10317.851051
5981.061110,382.851616,2603.390989,-8537.591037
5981.063664,459.421939,-3464.807125,-10758.130410
5981.066218,172.283227,1359.123237,-9877.571693
5981.068772,-478.564520,6872.186507,-8614.161360
5981.071326,2239.681954,-7389.036189,-11313.265253
5981.073880,1665.404530,3445.664544,-8461.020714
5981.076433,-1895.115499,5589.633594,-9111.868461
5981.078987,3101.098090,-7255.038123,-11830.114934
5981.081541,-3158.525832,12385.249778,-7714.460062
5981.084095,1799.402595,-2526.820666,-10911.271056
5981.086649,-1646.261949,2335.394858,-9073.583299
5981.089203,1627.119368,-1282.552914,-10260.423309
5981.091760,-2048.256146,-287.138712,-10298.708470
5981.094314,1263.410333,-1052.841944,-10624.132344
5981.096868,2258.824534,3981.656806,-9226.723946
5981.099423,-2450.250342,4594.219392,-8863.014910
5981.101977,344.566454,-2277.967115,-10796.415571
5981.104531,-746.560651,3043.670347,-9322.436850
5981.107085,382.851616,191.425808,-10068.997501
5981.109639,0.000000,918.843878,-10107.282662
5981.112194,-861.416136,3751.945837,-9073.583299
5981.114748,-153.140646,-459.421939,-9667.003304
5981.117302,842.273555,-38.285162,-10164.710405
5981.119856,650.847747,1091.127106,-9992.427178
5981.122410,95.712904,823.130974,-9973.284597
5981.124965,-248.853550,459.421939,-9686.145885
5981.127519,631.705166,803.988394,-9475.577496
5981.130073,1110.269686,478.564520,-9647.860723
5981.132627,-38.285162,899.701298,-9973.284597
5981.135181,-765.703232,478.564520,-10260.423309
5981.137736,-1875.972918,1320.838075,-9226.723946
5981.140290,-612.562586,1186.840010,-9915.856854
5981.142844,2143.969050,1990.828403,-9628.718142
5981.145398,-1780.260014,5876.772306,-9188.438784
5981.147953,-2124.826469,2105.683888,-10068.997501
5981.150507,2469.392923,-1454.836141,-10068.997501
5981.153061,-459.421939,-229.710970,-10241.280728
5981.155615,1033.699363,-2258.824534,-9954.142016
5981.158169,-1148.554848,4575.076811,-8748.159426
5981.160724,1110.269686,-1473.978722,-10796.415571
5981.163278,842.273555,1435.693560,-9896.714274
5981.165832,-4594.219392,5551.348432,-9035.298138
5981.168386,5436.492947,-7044.469734,-11370.692995
5981.170940,2488.535504,10068.997501,-7829.315547
5981.173495,-1703.689691,-1493.121302,-10145.567824
5981.176049,3962.514226,-11217.552349,-12232.109131
5981.178603,-1646.261949,6297.909083,-8441.878133
5981.181157,2718.246474,-3962.514226,-10796.415571
5981.183711,-306.281293,3196.810994,-8671.589102
5981.186266,5015.356170,1761.117434,-10145.567824
5981.188820,-497.707101,-1588.834206,-9915.856854
5981.191374,-2009.970984,401.994197,-9781.858789
5981.193930,2584.248408,0.000000,-10279.565890
5981.196486,574.277424,3120.240670,-8250.452325
5981.199041,1971.685822,-669.990328,-10298.708470
5981.201597,1722.832272,-267.996131,-9915.856854
5981.204153,2067.398726,574.277424,-9341.579430
5981.206709,-306.281293,-1435.693560,-10260.423309
5981.209265,746.560651,191.425808,-10145.567824
5981.211820,401.994197,1837.687757,-9494.720077
5981.214376,1320.838075,669.990328,-9705.288466
5981.216932,1205.982590,-19.142581,-9820.143950
5981.219488,1033.699363,918.843878,-9590.432981
5981.222044,248.853550,306.281293,-10164.710405
5981.224599,574.277424,1244.267752,-9686.145885
5981.227155,-325.423874,574.277424,-10049.854920
5981.229711,2986.242605,-708.275490,-9724.431046
5981.232267,2411.965181,1033.699363,-9571.290400
5981.234823,2584.248408,-1531.406464,-10528.419440
5981.237378,-1493.121302,172.283227,-10068.997501
5981.239934,1359.123237,-267.996131,-10030.712339
5981.242490,1263.410333,823.130974,-9016.155557
5981.245046,-1186.840010,-612.562586,-9934.999435
5981.247602,3541.377448,-5149.354235,-11523.833642
5981.250158,-631.705166,3215.953574,-9150.153622
5981.252713,3369.094221,-3924.229064,-10738.987829
5981.255269,-2105.683888,6738.188442,-8154.739421
5981.257825,3005.385186,-3177.668413,-10279.565890
5981.260381,2354.537438,1129.412267,-9494.720077
5981.262937,-1665.404530,1416.550979,-10164.710405
5981.265492,2679.961312,-8480.163294,-11600.403965
5981.268048,-880.558717,11083.554283,-7006.184573
5981.270604,-1378.265818,-1225.125171,-10470.991698
5981.273160,1990.828403,-4058.227130,-10509.276859
5981.275716,-1205.982590,7944.171032,-8441.878133
5981.278271,574.277424,-1761.117434,-10604.989763
5981.280827,-95.712904,727.418070,-9437.292334
5981.283383,-2450.250342,3349.951640,-9360.722011
5981.285939,2603.390989,-4134.797453,-10738.987829
5981.288495,1780.260014,1761.117434,-9686.145885
5981.291050,-3809.373579,5972.485210,-9360.722011
5981.293606,-19.142581,-1684.547110,-10777.272990
5981.296162,976.271621,1933.400661,-9169.296203
5981.298717,727.418070,95.712904,-10164.710405
5981.301273,-76.570323,-1282.552914,-10202.995566
5981.303828,-1454.836141,4077.369710,-9513.862658
5981.306384,-153.140646,995.414202,-10279.565890
5981.308939,382.851616,803.988394,-9552.147819
5981.311495,1339.980656,172.283227,-9533.005238
5981.314051,248.853550,957.129040,-10030.712339
5981.316606,-229.710970,727.418070,-10317.851051
5981.319162,727.418070,593.420005,-9628.718142
5981.321717,-612.562586,689.132909,-9513.862658
5981.324273,-899.701298,1071.984525,-9839.286531
5981.326828,-1895.115499,2871.387120,-9705.288466
5981.329384,976.271621,555.134843,-10030.712339
5981.331939,-1607.976787,4651.647134,-9456.434915
5981.334495,-1454.836141,2507.678085,-9743.573627
5981.337051,3656.232933,-2718.246474,-10260.423309
5981.339606,-1933.400661,6719.045861,-8595.018779
5981.342162,1588.834206,-1359.123237,-10202.995566
5981.344717,-2450.250342,4307.080680,-8748.159426
5981.347273,2871.387120,-3981.656806,-11160.124606
5981.349828,-1263.410333,4498.506488,-8920.442653
5981.352384,-2048.256146,-1014.556782,-10145.567824
5981.354939,2029.113565,191.425808,-9915.856854
5981.357495,-1129.412267,10164.710405,-7771.887805
5981.360050,2277.967115,-8307.880067,-12098.111066
5981.362606,3139.383251,1914.258080,-9399.007173
5981.365162,-1837.687757,363.709035,-9341.579430
5981.367717,153.140646,-4479.363907,-11600.403965
5981.370273,-19.142581,3292.523898,-9207.581365
5981.372828,2201.396792,-306.281293,-10145.567824
5981.375384,2871.387120,-2124.826469,-10260.423309
5981.377939,-1493.121302,3962.514226,-9092.725880
5981.380495,-1052.841944,1780.260014,-9418.149754
5981.383050,2526.820666,-3311.666478,-10624.132344
5981.385606,1531.406464,287.138712,-9973.284597
5981.388161,1071.984525,287.138712,-9686.145885
5981.390717,1148.554848,497.707101,-9552.147819
5981.393273,1684.547110,1071.984525,-9513.862658
5981.395828,1875.972918,-516.849682,-10107.282662
5981.398384,516.849682,803.988394,-9934.999435
5981.400940,0.000000,574.277424,-9973.284597
5981.403496,363.709035,95.712904,-9820.143950
5981.406053,1244.267752,1225.125171,-9341.579430
5981.408609,516.849682,248.853550,-10241.280728
5981.411165,516.849682,899.701298,-10183.852986
5981.413721,803.988394,1033.699363,-9647.860723
5981.416277,2124.826469,-2124.826469,-10260.423309
5981.418833,2928.814862,38.285162,-9609.575562
5981.421389,-937.986459,2335.394858,-10030.712339
5981.423945,2029.113565,-4402.793584,-11045.269122
5981.426502,1205.982590,1799.402595,-8614.161360
5981.429058,-2124.826469,2277.967115,-9399.007173
5981.431614,3637.090352,-6948.756830,-11830.114934
5981.434170,-535.992262,3522.234867,-8901.300072
5981.436726,3713.660675,-1837.687757,-10317.851051
5981.439282,-2488.535504,5091.926493,-8729.016845
5981.441838,1627.119368,-1799.402595,-9992.427178
5981.444394,3081.955509,957.129040,-9494.720077
5981.446951,-1435.693560,2660.818731,-9628.718142
5981.449507,2603.390989,-9552.147819,-11849.257515
5981.452063,19.142581,9131.011042,-7676.174901
5981.454619,-2239.681954,459.421939,-10126.425243
5981.457175,1301.695494,1607.976787,-9667.003304
5981.459731,363.709035,6240.481341,-9035.298138
5981.462287,-1339.980656,-1014.556782,-9801.001370
5981.464843,19.142581,306.281293,-9571.290400
5981.467399,-2584.248408,2641.676150,-9628.718142
5981.469956,2297.109696,-4536.791650,-10892.128475
5981.472512,1741.974853,2852.244539,-9379.864592
5981.475068,-3617.947771,4919.643266,-9571.290400
5981.477624,172.283227,-1091.127106,-10547.562021
5981.480180,-76.570323,5225.924558,-8939.585234
5981.482736,1129.412267,-1895.115499,-10585.847182
5981.485292,593.420005,421.136778,-9934.999435
5981.487848,-516.849682,2220.539373,-9552.147819
5981.490405,-612.562586,-516.849682,-10394.421374
5981.492961,765.703232,1856.830338,-9724.431046
5981.495517,1320.838075,861.416136,-9705.288466
5981.498073,-612.562586,746.560651,-10011.569758
5981.500630,-153.140646,957.129040,-9839.286531
5981.503188,-612.562586,1129.412267,-9724.431046
5981.505746,-497.707101,727.418070,-9801.001370
5981.508303,-133.998066,2871.387120,-9494.720077
5981.510861,-516.849682,248.853550,-10202.995566
5981.513418,-1665.404530,555.134843,-9896.714274
5981.515976,1033.699363,5532.205851,-9245.866526
5981.518533,382.851616,555.134843,-9934.999435
5981.521091,325.423874,-1014.556782,-10030.712339
5981.523648,995.414202,401.994197,-9609.575562
5981.526206,-2947.957443,4173.082614,-8729.016845
5981.528764,2086.541307,-4192.225195,-11428.120738
5981.531321,-325.423874,5455.635528,-9054.440718
5981.533879,-2431.107762,-57.427742,-10011.569758
5981.536436,2048.256146,-1875.972918,-10145.567824
5981.538994,2871.387120,8250.452325,-8327.022648
5981.541551,-1359.123237,325.423874,-9571.290400
5981.544109,2718.246474,-6814.758765,-10930.413637
5981.546667,-1914.258080,6853.043926,-8212.167163
5981.549224,2852.244539,-7006.184573,-11351.550414
5981.551782,0.000000,2584.248408,-9111.868461
5981.554339,1895.115499,76.570323,-10107.282662
5981.556897,2890.529701,-2335.394858,-10298.708470
5981.559454,-1416.550979,1646.261949,-9513.862658
5981.562012,114.855485,2622.533570,-9877.571693
5981.564569,2660.818731,-2967.100024,-9801.001370
5981.567127,1990.828403,-19.142581,-9973.284597
5981.569685,478.564520,-306.281293,-10107.282662
5981.572242,497.707101,-784.845813,-9896.714274
5981.574800,1263.410333,1569.691626,-9686.145885
5981.577357,1569.691626,784.845813,-9915.856854
5981.579915,899.701298,-861.416136,-9743.573627
5981.582472,957.129040,631.705166,-9724.431046
5981.585030,38.285162,593.420005,-10164.710405
5981.587587,1033.699363,746.560651,-9724.431046
5981.590145,1473.978722,727.418070,-9839.286531
5981.592703,1397.408398,-382.851616,-10068.997501
5981.595260,2411.965181,325.423874,-9686.145885
5981.597818,-19.142581,516.849682,-9820.143950
5981.600375,2105.683888,-593.420005,-10298.708470
5981.602933,1875.972918,1263.410333,-9207.581365
5981.605492,-535.992262,-3713.660675,-10088.140082
5981.608050,1359.123237,-669.990328,-10088.140082
5981.610608,1320.838075,2469.392923,-9245.866526
5981.613166,172.283227,1703.689691,-9839.286531
5981.615725,2545.963246,-2143.969050,-10490.134278
5981.618283,248.853550,3483.949706,-8997.012976
5981.620841,-535.992262,3139.383251,-9092.725880
5981.623399,2833.101958,-8384.450390,-11600.403965
5981.625957,95.712904,7121.040058,-8020.741355
5981.628516,-937.986459,995.414202,-9877.571693
5981.631074,2718.246474,-4575.076811,-11408.978157
5981.633632,-3905.086483,12289.536874,-7503.891674
5981.636190,1837.687757,-4632.504554,-11160.124606
5981.638748,-2775.674216,4709.074877,-9111.868461
5981.641307,2201.396792,191.425808,-10068.997501
5981.643865,-1225.125171,-1263.410333,-9839.286531
5981.646423,114.855485,3847.658741,-9111.868461
5981.648981,1454.836141,1569.691626,-9934.999435
5981.651540,1493.121302,-1071.984525,-9954.142016
5981.654098,-4345.365842,5302.494882,-9418.149754
5981.656656,-823.130974,-1435.693560,-10528.419440
5981.659214,918.843878,4441.078746,-8997.012976
5981.661772,1607.976787,-727.418070,-10183.852986
5981.664331,133.998066,-708.275490,-9820.143950
5981.666889,-727.418070,2603.390989,-9456.434915
5981.669447,-267.996131,1091.127106,-10279.565890
5981.672005,976.271621,1091.127106,-9820.143950
5981.674563,689.132909,861.416136,-9513.862658
5981.677122,-57.427742,382.851616,-9934.999435
5981.679680,-995.414202,1703.689691,-9781.858789
5981.682238,-363.709035,1339.980656,-9954.142016
5981.684796,287.138712,574.277424,-9571.290400
5981.687355,-1799.402595,2852.244539,-9801.001370
5981.689913,-2871.387120,3751.945837,-9513.862658
5981.692471,3675.375514,-2890.529701,-10911.271056
5981.695029,-306.281293,4977.071008,-8939.585234
5981.697587,1607.976787,1799.402595,-9609.575562
5981.700146,-2833.101958,-153.140646,-9418.149754
5981.702704,2201.396792,-1952.543242,-10470.991698
5981.705261,-2967.100024,3962.514226,-9475.577496
5981.707818,2794.816797,-4211.367776,-10853.843314
5981.710376,-765.703232,9360.722011,-8135.596840
5981.712933,-459.421939,-1473.978722,-10088.140082
5981.715490,2699.103893,-4268.795518,-10317.851051
5981.718048,325.423874,6029.912952,-9322.436850
5981.720605,-1014.556782,-4058.227130,-10509.276859
5981.723163,708.275490,-2182.254211,-9590.432981
5981.725720,3196.810994,1703.689691,-9896.714274
5981.728277,861.416136,880.558717,-9322.436850
5981.730835,3522.234867,2277.967115,-9552.147819
5981.733392,-746.560651,1359.123237,-9858.429112
5981.735949,-880.558717,-2488.535504,-10490.134278
5981.738507,1263.410333,1933.400661,-9896.714274
5981.741064,2354.537438,-1837.687757,-9188.438784
5981.743621,2622.533570,-3943.371645,-10432.706536
5981.746179,133.998066,3503.092286,-9533.005238
5981.748736,401.994197,-803.988394,-10049.854920
5981.751293,1033.699363,1301.695494,-9609.575562
5981.753851,1014.556782,669.990328,-9877.571693
5981.756408,1244.267752,-1129.412267,-9762.716208
5981.758965,1014.556782,1244.267752,-9801.001370
5981.761523,172.283227,344.566454,-10298.708470
5981.764080,1684.547110,861.416136,-9571.290400
5981.766637,1895.115499,842.273555,-9724.431046
5981.769195,2124.826469,-1378.265818,-10068.997501
5981.771752,133.998066,2813.959378,-9207.581365
5981.774309,2335.394858,-1397.408398,-10356.136213
5981.776867,3426.521963,-2833.101958,-10088.140082
5981.779424,-2756.531635,4096.512291,-8920.442653
5981.781981,1607.976787,-6795.616184,-11313.265253
5981.784539,57.427742,1052.841944,-9207.581365
5981.787096,3771.088418,1359.123237,-10088.140082
5981.789653,-1741.974853,5589.633594,-8843.872330
5981.792211,3541.377448,-3101.098090,-10222.138147
5981.794768,306.281293,4364.508422,-8901.300072
5981.797325,-1780.260014,-2679.961312,-10241.280728
5981.799883,2392.822600,-6814.758765,-11466.405899
5981.802440,-2775.674216,10432.706536,-7963.313613
5981.804997,708.275490,-3617.947771,-10662.417506
5981.807555,765.703232,6757.331022,-8939.585234
5981.810112,-401.994197,2794.816797,-9896.714274
5981.812670,-1952.543242,-746.560651,-10183.852986
5981.815227,861.416136,-669.990328,-10126.425243
5981.817785,-1646.261949,-650.847747,-10164.710405
5981.820343,2182.254211,-2450.250342,-10547.562021
5981.822900,593.420005,6259.623922,-8690.731683
5981.825458,497.707101,57.427742,-9667.003304
5981.828015,-4000.799387,4402.793584,-9647.860723
5981.830573,-574.277424,38.285162,-10815.558152
5981.833130,880.558717,2067.398726,-8901.300072
5981.835688,1875.972918,344.566454,-9533.005238
5981.838245,-612.562586,-114.855485,-10030.712339
5981.840803,-937.986459,995.414202,-9705.288466
5981.843360,689.132909,1473.978722,-10068.997501
5981.845918,363.709035,823.130974,-9513.862658
5981.848475,478.564520,708.275490,-9628.718142
5981.851033,-842.273555,1205.982590,-9877.571693
5981.853591,440.279358,669.990328,-9590.432981
5981.856148,-2679.961312,3675.375514,-9533.005238
5981.858706,-2009.970984,1512.263883,-10260.423309
5981.861263,459.421939,3196.810994,-9667.003304
5981.863821,-440.279358,5187.639397,-9111.868461
5981.866378,-191.425808,-1761.117434,-10738.987829
5981.868936,1014.556782,-497.707101,-9762.716208
5981.871493,-3196.810994,6049.055533,-8843.872330
5981.874051,2105.683888,-4823.930362,-10949.556218
5981.876608,0.000000,5781.059402,-8614.161360
5981.879166,-1665.404530,-172.283227,-10566.704602
5981.881723,2067.398726,-3617.947771,-10317.851051
5981.884281,-1895.115499,11906.685258,-7446.463931
5981.886839,-1703.689691,823.130974,-9533.005238
5981.889397,3388.236802,-6527.620053,-10643.274925
5981.891955,-1320.838075,7025.327154,-8480.163294
5981.894513,1646.261949,-7465.606512,-11562.118803
5981.897072,880.558717,918.843878,-9360.722011
5981.899630,1301.695494,1703.689691,-9743.573627
5981.902188,3809.373579,-2507.678085,-10356.136213
5981.904746,-1148.554848,6795.616184,-8346.165229
5981.907305,-957.129040,-574.277424,-10298.708470
5981.909863,4000.799387,-3081.955509,-10068.997501
5981.912421,1339.980656,2909.672282,-9169.296203
5981.914979,1301.695494,-4594.219392,-10892.128475
5981.917538,153.140646,1895.115499,-9341.579430
5981.920096,497.707101,669.990328,-9973.284597
5981.922654,1205.982590,459.421939,-9590.432981
5981.925212,1493.121302,861.416136,-9667.003304
5981.927771,861.416136,-191.425808,-10049.854920
5981.930329,325.423874,593.420005,-9724.431046
5981.932887,306.281293,842.273555,-9973.284597
5981.935445,2373.680019,-1837.687757,-10107.282662
5981.938004,172.283227,2143.969050,-9131.011042
5981.940562,3828.516160,-2048.256146,-10719.845248
5981.943120,1971.685822,689.132909,-9379.864592
5981.945678,-803.988394,-1914.258080,-10011.569758
5981.948237,248.853550,-1301.695494,-10222.138147
5981.950795,1320.838075,2182.254211,-8997.012976
5981.953353,612.562586,-803.988394,-10068.997501
5981.955911,4307.080680,-3732.803256,-11102.696864
5981.958470,1014.556782,3445.664544,-9265.009107
5981.961028,-1435.693560,-631.705166,-9954.142016
5981.963586,3177.668413,-4575.076811,-10470.991698
5981.966144,-3369.094221,9513.862658,-7848.458128
5981.968702,-267.996131,-7810.172966,-11638.689126
5981.971261,2565.105827,1569.691626,-10202.995566
5981.973819,-2335.394858,7503.891674,-8805.587168
5981.976377,1607.976787,-4383.651003,-11313.265253
5981.978935,-2105.683888,4689.932296,-8939.585234
5981.981494,1875.972918,1627.119368,-9877.571693
5981.984052,631.705166,-1033.699363,-9877.571693
5981.986610,-2507.678085,3464.807125,-9590.432981
5981.989168,1148.554848,-4900.500685,-11217.552349
5981.991726,976.271621,3330.809059,-8977.870395
5981.994284,-1512.263883,4019.941968,-9379.864592
5981.996842,-3062.812928,2775.674216,-9915.856854
5981.999400,516.849682,1971.685822,-9820.143950
5982.001958,1588.834206,-76.570323,-9513.862658
5982.004516,1339.980656,497.707101,-9590.432981
5982.007074,-459.421939,1129.412267,-10088.140082
5982.009631,-516.849682,1205.982590,-9705.288466
5982.012189,516.849682,555.134843,-9667.003304
5982.014747,823.130974,765.703232,-9954.142016
5982.017305,937.986459,880.558717,-9801.001370
5982.019863,-2431.107762,2641.676150,-9667.003304
5982.022421,-2411.965181,1588.834206,-9877.571693
5982.024979,-1378.265818,3024.527766,-9169.296203
5982.027537,2852.244539,19.142581,-10336.993632
5982.030094,363.709035,5474.778109,-9073.583299
5982.032652,-287.138712,2029.113565,-9839.286531
5982.035210,-2737.389054,-1761.117434,-10011.569758
5982.037768,172.283227,1875.972918,-9494.720077
5982.040326,287.138712,976.271621,-10088.140082
5982.042884,2947.957443,-4747.360038,-11083.554283
5982.045442,-1454.836141,9111.868461,-8250.452325
5982.048000,-995.414202,-1167.697429,-10490.134278
5982.050557,2775.674216,-3847.658741,-10317.851051
5982.053115,-2354.537438,8269.594906,-8652.446522
5982.055673,4383.651003,-9360.722011,-12098.111066
5982.058231,133.998066,4651.647134,-8422.735552
5982.060789,2947.957443,-2431.107762,-10451.849117
5982.063347,-1339.980656,-57.427742,-9456.434915
5982.065905,2431.107762,784.845813,-10145.567824
5982.068463,401.994197,-1225.125171,-10451.849117
5982.071020,-95.712904,-1320.838075,-9877.571693
5982.073578,-1531.406464,3369.094221,-9590.432981
5982.076136,4039.084549,-1741.974853,-9877.571693
5982.078694,2335.394858,1512.263883,-8901.300072
5982.081252,823.130974,-3445.664544,-10834.700733
5982.083810,-516.849682,1741.974853,-9724.431046
5982.086368,0.000000,555.134843,-10049.854920
5982.088926,1320.838075,-38.285162,-9743.573627
5982.091483,1761.117434,937.986459,-9207.581365
5982.094040,612.562586,287.138712,-9954.142016
5982.096598,210.568389,459.421939,-10279.565890
5982.099156,918.843878,440.279358,-9743.573627
5982.101715,1895.115499,574.277424,-9628.718142
5982.104273,4019.941968,-669.990328,-9705.288466
5982.106831,3349.951640,-1569.691626,-10145.567824
5982.109389,-3732.803256,1454.836141,-9379.864592
5982.111947,708.275490,-4785.645200,-10892.128475
5982.114505,1301.695494,-612.562586,-9303.294269
5982.117063,4575.076811,2258.824534,-9781.858789
5982.119621,229.710970,880.558717,-9896.714274
5982.122179,2009.970984,-708.275490,-9743.573627
5982.124737,-2086.541307,4096.512291,-9226.723946
5982.127295,2947.957443,-8729.016845,-11523.833642
5982.129853,1014.556782,7676.174901,-7905.885870
5982.132411,-535.992262,803.988394,-10183.852986
5982.134969,2392.822600,-4421.936165,-11102.696864
5982.137527,-4709.074877,11638.689126,-7618.747158
5982.140085,-95.712904,-823.130974,-11102.696864
5982.142643,-2163.111630,631.705166,-9207.581365
5982.145202,2469.392923,2067.398726,-9839.286531
5982.147760,765.703232,-689.132909,-10030.712339
5982.150318,-2737.389054,5302.494882,-8614.161360
5982.152876,784.845813,-2928.814862,-11179.267187
5982.155434,1244.267752,1320.838075,-9686.145885
5982.157992,-133.998066,3924.229064,-9284.151688
5982.160550,-2124.826469,727.418070,-10107.282662
5982.163108,-267.996131,1569.691626,-9590.432981
5982.165666,1607.976787,306.281293,-9513.862658
5982.168224,995.414202,497.707101,-9934.999435
5982.170782,0.000000,1033.699363,-10088.140082
5982.173340,-1014.556782,440.279358,-9858.429112
5982.175898,191.425808,918.843878,-9284.151688
5982.178456,976.271621,363.709035,-9954.142016
5982.181014,-631.705166,1512.263883,-10202.995566
5982.183572,-2258.824534,2737.389054,-9552.147819
5982.186130,-2545.963246,1990.828403,-9724.431046
5982.188689,1550.549045,-784.845813,-10068.997501
5982.191247,248.853550,4766.502619,-9590.432981
5982.193805,1359.123237,3483.949706,-9954.142016
5982.196320,-2967.100024,497.707101,-9399.007173
5982.198836,1129.412267,-937.986459,-9781.858789
5982.201352,-880.558717,1493.121302,-9609.575562
5982.203868,1722.832272,-2048.256146,-10624.132344
5982.206383,-3656.232933,8173.882002,-8537.591037
5982.208899,3273.381317,-6451.049730,-11351.550414
5982.211415,3369.094221,-6049.055533,-10470.991698
5982.213931,-2947.957443,8499.305875,-8480.163294
5982.216446,2871.387120,-8384.450390,-11791.829773
5982.218962,574.277424,3388.236802,-8499.305875
5982.221478,3579.662610,-1435.693560,-10432.706536
5982.223994,-746.560651,-287.138712,-9226.723946
5982.226509,2067.398726,1512.263883,-9877.571693
5982.229025,2507.678085,-3751.945837,-10987.841379
5982.231541,-497.707101,4000.799387,-9054.440718
5982.234057,-1071.984525,2622.533570,-9647.860723
5982.236573,2699.103893,-1531.406464,-10088.140082
5982.239088,4326.223261,-1225.125171,-9360.722011
5982.241604,1205.982590,-459.421939,-10241.280728
5982.244120,-1167.697429,1493.121302,-10088.140082
5982.246636,-631.705166,1167.697429,-9762.716208
5982.249151,1952.543242,229.710970,-9609.575562
5982.251667,1856.830338,746.560651,-9533.005238
5982.254183,267.996131,689.132909,-10030.712339
5982.256699,-803.988394,325.423874,-10088.140082
5982.259214,3503.092286,325.423874,-9341.579430
5982.261730,2794.816797,-555.134843,-9647.860723
5982.264246,3981.656806,-2335.394858,-10298.708470
5982.266762,-2641.676150,1818.545176,-9762.716208
5982.269277,669.990328,-2852.244539,-10336.993632
5982.271793,1148.554848,612.562586,-9111.868461
5982.274309,1244.267752,2794.816797,-9226.723946
5982.276825,4115.654872,-5091.926493,-11083.554283
5982.279340,-325.423874,5053.641331,-9207.581365
5982.281856,-1837.687757,3043.670347,-9226.723946
5982.284372,3598.805190,-6680.760699,-11255.837510
5982.286888,-1550.549045,9494.720077,-7599.604578
5982.289403,-976.271621,-3024.527766,-10585.847182
5982.291919,2488.535504,-2699.103893,-11026.126541
5982.294435,-3369.094221,8997.012976,-8346.165229
5982.296959,1091.127106,-4230.510357,-10834.700733
5982.299484,-306.281293,7580.461997,-8518.448456
5982.302008,19.142581,2105.683888,-9820.143950
5982.304533,1071.984525,-2890.529701,-9934.999435
5982.307057,-3330.809059,2411.965181,-9418.149754
5982.309582,612.562586,-4364.508422,-11313.265253
5982.312106,267.996131,4555.934230,-8843.872330
5982.314631,899.701298,3120.240670,-9494.720077
5982.317155,95.712904,765.703232,-9762.716208
5982.319680,-2373.680019,3560.520029,-9686.145885
5982.322204,-325.423874,114.855485,-10145.567824
5982.324728,1588.834206,0.000000,-9360.722011
5982.327253,555.134843,1895.115499,-9992.427178
5982.329777,248.853550,-229.710970,-10011.569758
5982.332302,-727.418070,1818.545176,-9456.434915
5982.334826,172.283227,440.279358,-9896.714274
5982.337351,-823.130974,2239.681954,-9667.003304
5982.339875,-1703.689691,1761.117434,-10088.140082
5982.342400,1301.695494,1282.552914,-9686.145885
5982.344924,-2641.676150,5704.489078,-8556.733618
5982.347449,-229.710970,-555.134843,-10700.702667
5982.349973,2890.529701,-401.994197,-10336.993632
5982.352497,-3196.810994,6929.614250,-8193.024582
5982.355022,1167.697429,-3464.807125,-10566.704602
5982.357546,-210.568389,3522.234867,-8824.729749
5982.360071,-3081.955509,1703.689691,-10107.282662
5982.362595,3464.807125,-5704.489078,-11332.407834
5982.365120,-191.425808,11562.118803,-7542.176835
5982.367644,287.138712,-5436.492947,-11160.124606
5982.370169,2641.676150,38.285162,-9437.292334
5982.372693,-612.562586,3062.812928,-9035.298138
5982.375218,516.849682,-6872.186507,-11542.976222
5982.377742,1473.978722,-306.281293,-9647.860723
5982.380267,1588.834206,2029.113565,-9705.288466
5982.382791,3732.803256,-976.271621,-9858.429112
5982.385315,-1282.552914,6508.477472,-8346.165229
5982.387840,114.855485,-2603.390989,-11064.411702
5982.390364,1416.550979,-1493.121302,-10049.854920
5982.392889,3560.520029,1091.127106,-9609.575562
5982.395413,1780.260014,-3732.803256,-10202.995566
5982.397945,727.418070,1473.978722,-9705.288466
5982.400477,-574.277424,1550.549045,-10413.563955
5982.403009,1091.127106,-459.421939,-9724.431046
5982.405541,1339.980656,937.986459,-9456.434915
5982.408073,708.275490,727.418070,-10030.712339
5982.410604,976.271621,440.279358,-9954.142016
5982.413136,1186.840010,325.423874,-9475.577496
5982.415668,3617.947771,-1780.260014,-10030.712339
5982.418200,2526.820666,440.279358,-9552.147819
5982.420732,-976.271621,2392.822600,-9801.001370
5982.423264,669.990328,-3043.670347,-9724.431046
5982.425796,-76.570323,-3062.812928,-9743.573627
5982.428328,4517.649069,-1665.404530,-10834.700733
5982.430859,-1263.410333,4153.940034,-9111.868461
5982.433391,3445.664544,-1473.978722,-10375.278794
5982.435923,-1741.974853,6470.192310,-7963.313613
5982.438455,-1531.406464,-2526.820666,-10222.138147
5982.440987,2373.680019,-6431.907149,-11696.116869
5982.443519,-3407.379382,10719.845248,-8135.596840
5982.446051,1703.689691,-5168.496816,-10815.558152
5982.448582,-765.703232,7484.749093,-8709.874264
5982.451114,363.709035,1052.841944,-10317.851051
5982.453646,-2775.674216,-708.275490,-9418.149754
5982.456178,1512.263883,1952.543242,-10470.991698
5982.458710,1607.976787,459.421939,-9475.577496
5982.461242,-2967.100024,3943.371645,-9341.579430
5982.463774,-76.570323,-765.703232,-10509.276859
5982.466306,2048.256146,459.421939,-9418.149754
5982.468837,76.570323,2124.826469,-10011.569758
5982.471369,-1167.697429,612.562586,-10528.419440
5982.473901,-1761.117434,2909.672282,-8958.727814
5982.476433,803.988394,-248.853550,-9973.284597
5982.478965,842.273555,1033.699363,-9781.858789
5982.481497,-248.853550,1359.123237,-9686.145885
5982.484029,-574.277424,459.421939,-10222.138147
5982.486561,-784.845813,1684.547110,-9092.725880
5982.489092,-1512.263883,2086.541307,-9896.714274
5982.491624,-1282.552914,1665.404530,-10183.852986
5982.494156,1703.689691,-689.132909,-9609.575562
5982.496688,-1339.980656,6068.198114,-8939.585234
5982.499226,-1627.119368,3349.951640,-10145.567824
5982.501765,1052.841944,-1856.830338,-10202.995566
5982.504303,-1071.984525,5245.067139,-8786.444587
5982.506842,478.564520,-267.996131,-9762.716208
5982.509380,574.277424,-995.414202,-9877.571693
5982.511918,-4785.645200,5379.065205,-9035.298138
5982.514457,4728.217458,-7446.463931,-11600.403965
5982.516995,3445.664544,8135.596840,-8173.882002
5982.519533,-1052.841944,765.703232,-9896.714274
5982.522072,3024.527766,-6125.625856,-10624.132344
5982.524610,-1071.984525,6853.043926,-8403.592971
5982.527149,325.423874,-7408.178770,-11887.542677
5982.529687,2143.969050,-669.990328,-9667.003304
5982.532225,2124.826469,1875.972918,-9801.001370
5982.534764,4230.510357,-2450.250342,-10394.421374
5982.537302,-1014.556782,6565.905214,-8212.167163
5982.539841,-669.990328,-1339.980656,-10643.274925
5982.542379,612.562586,-555.134843,-9992.427178
5982.544917,1741.974853,918.843878,-9915.856854
5982.547456,3656.232933,-3369.094221,-10145.567824
5982.549994,650.847747,727.418070,-9284.151688
5982.552532,-287.138712,2526.820666,-9992.427178
5982.555071,440.279358,-172.283227,-9839.286531
5982.557609,459.421939,976.271621,-9322.436850
5982.560148,2163.111630,689.132909,-9667.003304
5982.562686,1110.269686,-401.994197,-9973.284597
5982.565224,2316.252277,-229.710970,-9781.858789
5982.567763,2297.109696,650.847747,-9399.007173
5982.570301,-899.701298,2124.826469,-9533.005238
5982.572840,2488.535504,-4785.645200,-10624.132344
5982.575378,2258.824534,-1837.687757,-9552.147819
5982.577916,765.703232,1588.834206,-9533.005238
5982.580455,-1129.412267,2813.959378,-9513.862658
5982.582993,2813.959378,-382.851616,-10126.425243
5982.585531,-976.271621,5781.059402,-8958.727814
5982.588070,3426.521963,-7867.600709,-11121.839445
5982.590608,57.427742,6163.911018,-8250.452325
5982.593147,-1780.260014,1359.123237,-10279.565890
5982.595685,1952.543242,-5379.065205,-11274.980091
5982.598223,-3809.373579,10222.138147,-7848.458128
5982.600766,1799.402595,-4058.227130,-11351.550414
5982.603309,-2737.389054,1435.693560,-9035.298138
5982.605852,1761.117434,3235.096155,-9954.142016
5982.608395,440.279358,133.998066,-10202.995566
5982.610938,-2833.101958,1627.119368,-9207.581365
5982.613481,957.129040,-1895.115499,-10949.556218
5982.616024,-133.998066,4575.076811,-9035.298138
5982.618567,1263.410333,1607.976787,-9475.577496
5982.621110,-401.994197,1741.974853,-9896.714274
5982.623653,-1091.127106,1741.974853,-10030.712339
5982.626196,38.285162,-746.560651,-9590.432981
5982.628739,1378.265818,976.271621,-9781.858789
5982.631282,76.570323,861.416136,-9839.286531
5982.633825,57.427742,-421.136778,-9915.856854
5982.636368,-1167.697429,2163.111630,-9399.007173
5982.638911,-1339.980656,880.558717,-9705.288466
5982.641454,803.988394,1493.121302,-9667.003304
5982.643997,-1837.687757,3215.953574,-9513.862658
5982.646540,-918.843878,-191.425808,-10298.708470
5982.649083,1301.695494,4441.078746,-9379.864592
5982.651626,-3311.666478,8059.026517,-8173.882002
5982.654169,4115.654872,-4096.512291,-10930.413637
5982.656712,-2584.248408,4670.789715,-8709.874264
5982.659255,823.130974,-5666.203917,-11274.980091
5982.661798,-1301.695494,5436.492947,-9092.725880
5982.664341,-459.421939,1148.554848,-10336.993632
5982.666884,4651.647134,-4326.223261,-10356.136213
5982.669427,-2354.537438,9494.720077,-8059.026517
5982.671970,2947.957443,-8365.307810,-11734.402030
5982.674513,-421.136778,-2277.967115,-9954.142016
5982.677056,2622.533570,689.132909,-10451.849117
5982.679599,746.560651,440.279358,-9016.155557
5982.682142,1512.263883,803.988394,-10126.425243
5982.684685,3503.092286,-3024.527766,-10719.845248
5982.687228,-153.140646,3866.801322,-8480.163294
5982.689771,-1263.410333,1052.841944,-10413.563955
5982.692314,1244.267752,-861.416136,-10317.851051
5982.694857,2756.531635,2009.970984,-9016.155557
5982.697400,2526.820666,-2947.957443,-10317.851051
5982.699943,-191.425808,1263.410333,-9552.147819
5982.702490,555.134843,1244.267752,-9992.427178
5982.705037,1091.127106,172.283227,-10183.852986
5982.707584,1282.552914,1473.978722,-8939.585234
5982.710131,2316.252277,-842.273555,-10241.280728
5982.712678,2526.820666,-153.140646,-9858.429112
5982.715225,1856.830338,-210.568389,-9418.149754
5982.717772,-1071.984525,2124.826469,-9647.860723
5982.720320,2431.107762,-3311.666478,-10202.995566
5982.722867,650.847747,-4364.508422,-10068.997501
5982.725414,3560.520029,-2679.961312,-10547.562021
5982.727961,-2354.537438,3598.805190,-9035.298138
5982.730508,2890.529701,-1416.550979,-10528.419440
5982.733055,-631.705166,6508.477472,-9054.440718
5982.735602,3081.955509,-6967.899411,-10815.558152
5982.738149,555.134843,5053.641331,-8269.594906
5982.740696,-1914.258080,2258.824534,-10145.567824
5982.743243,2009.970984,-5608.776174,-11332.407834
5982.745790,-1933.400661,8269.594906,-8575.876198
5982.748337,842.273555,-689.132909,-10872.985894
5982.750884,-2086.541307,631.705166,-8748.159426
5982.753431,1435.693560,3369.094221,-9724.431046
5982.755978,287.138712,-459.421939,-10375.278794
5982.758525,-2316.252277,593.420005,-9360.722011
5982.761072,-38.285162,191.425808,-10509.276859
5982.763619,-306.281293,3330.809059,-9150.153622
5982.766166,1665.404530,535.992262,-9494.720077
5982.768713,267.996131,2507.678085,-9896.714274
5982.771260,-1301.695494,1512.263883,-9820.143950
5982.773807,-267.996131,1282.552914,-9571.290400
5982.776354,1263.410333,38.285162,-10164.710405
5982.778901,38.285162,1741.974853,-9494.720077
5982.781448,689.132909,631.705166,-9858.429112
5982.783995,-1454.836141,1818.545176,-10145.567824
5982.786543,-995.414202,1818.545176,-9743.573627
5982.789090,-440.279358,612.562586,-10011.569758
5982.791637,-1378.265818,2641.676150,-9762.716208
5982.794184,1665.404530,4421.936165,-9456.434915
5982.796731,-2143.969050,3866.801322,-9245.866526
5982.799278,1263.410333,-1741.974853,-10356.136213
5982.801825,631.705166,401.994197,-9705.288466
5982.804375,306.281293,-1512.263883,-9915.856854
5982.806926,-3311.666478,5819.344563,-8824.729749
5982.809476,995.414202,-1512.263883,-10777.272990
5982.812027,4479.363907,-1186.840010,-9858.429112
5982.814577,-2124.826469,8403.592971,-8212.167163
5982.817128,3809.373579,-8709.874264,-11753.544611
5982.819678,-708.275490,4766.502619,-8250.452325
5982.822229,2220.539373,-3101.098090,-11045.269122
5982.824780,-133.998066,-1435.693560,-9954.142016
5982.827330,1895.115499,1895.115499,-9647.860723
5982.829881,3962.514226,19.142581,-9877.571693
5982.832431,-306.281293,5111.069074,-8001.598774
5982.834982,-708.275490,-880.558717,-10566.704602
5982.837532,612.562586,-497.707101,-10241.280728
5982.840083,1971.685822,937.986459,-9437.292334
5982.842633,2297.109696,-1914.258080,-9896.714274
5982.845184,344.566454,555.134843,-9724.431046
5982.847734,-57.427742,1799.402595,-9533.005238
5982.850285,803.988394,-325.423874,-10068.997501
5982.852835,76.570323,555.134843,-9954.142016
5982.855386,2603.390989,-918.843878,-9781.858789
5982.857936,2718.246474,-555.134843,-10068.997501
5982.860487,-1454.836141,976.271621,-9647.860723
5982.863037,2335.394858,-3503.092286,-10662.417506
5982.865588,2794.816797,478.564520,-9341.579430
5982.868139,-344.566454,535.992262,-9571.290400
5982.870689,3388.236802,-7063.612315,-11179.267187
5982.873240,-2928.814862,5857.629725,-8997.012976
5982.875790,3464.807125,-3158.525832,-11198.409768
5982.878341,344.566454,6680.760699,-8403.592971
5982.880891,-1761.117434,7197.610381,-8441.878133
5982.883442,2756.531635,-9686.145885,-11830.114934
5982.885992,-880.558717,7503.891674,-8556.733618
5982.888543,-1627.119368,-57.427742,-10490.134278
5982.891093,-287.138712,2641.676150,-9743.573627
5982.893644,1186.840010,4919.643266,-9131.011042
5982.896194,-1301.695494,-823.130974,-9973.284597
5982.898745,650.847747,-57.427742,-10490.134278
5982.901295,861.416136,1607.976787,-9379.864592
5982.903846,-3675.375514,2526.820666,-9705.288466
5982.906367,421.136778,-1684.547110,-10241.280728
5982.908888,1282.552914,4575.076811,-8805.587168
5982.911409,784.845813,1129.412267,-9705.288466
5982.913930,-478.564520,153.140646,-10107.282662
5982.916451,-669.990328,1895.115499,-9513.862658
5982.918972,-765.703232,38.285162,-9934.999435
5982.921493,1263.410333,765.703232,-9609.575562
5982.924014,133.998066,1627.119368,-9513.862658
5982.926535,-803.988394,1091.127106,-9609.575562
5982.929056,382.851616,1282.552914,-9705.288466
5982.931577,-2890.529701,3235.096155,-9743.573627
5982.934098,-1454.836141,363.709035,-10068.997501
5982.936619,1359.123237,5723.631659,-8977.870395
5982.939140,-1052.841944,3771.088418,-9590.432981
5982.941661,880.558717,-1091.127106,-10336.993632
5982.944182,1684.547110,440.279358,-9647.860723
5982.946703,-401.994197,803.988394,-9801.001370
5982.949224,-4249.652938,1799.402595,-9571.290400
5982.951745,3637.090352,-4058.227130,-11485.548480
5982.954266,4460.221326,3637.090352,-9111.868461
5982.956788,-899.701298,4441.078746,-8863.014910
5982.959309,3464.807125,-7503.891674,-11370.692995
5982.961830,-1971.685822,6374.479406,-8212.167163
5982.964351,1129.412267,-5532.205851,-11485.548480
5982.966872,1607.976787,-1569.691626,-10011.569758
5982.969393,1646.261949,2488.535504,-9533.005238
5982.971914,2890.529701,401.994197,-9609.575562
5982.974435,-612.562586,3847.658741,-8480.163294
5982.976956,-459.421939,-2718.246474,-10719.845248
5982.979477,267.996131,325.423874,-10126.425243
5982.981998,1244.267752,631.705166,-9743.573627
5982.984519,2450.250342,-1627.119368,-9571.290400
5982.987040,1052.841944,1244.267752,-9724.431046
5982.989561,-535.992262,861.416136,-9915.856854
5982.992082,1110.269686,-57.427742,-9839.286531
5982.994603,325.423874,650.847747,-10164.710405
5982.997124,2411.965181,-459.421939,-9762.716208
5982.999645,1378.265818,-440.279358,-9762.716208
5983.002166,976.271621,1186.840010,-9820.143950
5983.004687,1473.978722,-631.705166,-9647.860723
5983.007185,1684.547110,-4804.787781,-10394.421374
5983.009683,2392.822600,76.570323,-9801.001370
5983.012182,114.855485,95.712904,-9399.007173
5983.014680,382.851616,1741.974853,-9839.286531
5983.017178,593.420005,2392.822600,-9992.427178
5983.019676,4402.793584,-4364.508422,-10624.132344
5983.022174,478.564520,3924.229064,-8403.592971
5983.024673,-1895.115499,2143.969050,-9647.860723
5983.027171,2086.541307,-5340.780043,-11217.552349
5983.029669,-4211.367776,9934.999435,-8250.452325
5983.032167,2009.970984,-3349.951640,-11236.694930
5983.034665,842.273555,5111.069074,-8537.591037
5983.037164,-803.988394,4173.082614,-9131.011042
5983.039662,401.994197,-3215.953574,-10394.421374
5983.042160,-287.138712,937.986459,-10241.280728
5983.044658,-3503.092286,2143.969050,-10030.712339
5983.047156,267.996131,-95.712904,-9896.714274
5983.049654,1435.693560,1895.115499,-9131.011042
5983.052153,823.130974,1722.832272,-9877.571693
5983.054651,-937.986459,535.992262,-10413.563955
5983.057149,-669.990328,2009.970984,-9571.290400
5983.059647,746.560651,-344.566454,-9954.142016
5983.062145,1033.699363,1895.115499,-9667.003304
5983.064644,-421.136778,1320.838075,-9628.718142
5983.067142,535.992262,976.271621,-9820.143950
5983.069640,-3522.234867,3732.803256,-9284.151688
5983.072138,-2143.969050,1531.406464,-10126.425243
5983.074636,1971.685822,3617.947771,-9590.432981
5983.077135,-1167.697429,6163.911018,-8729.016845
5983.079633,1110.269686,-2086.541307,-10777.272990
5983.082131,574.277424,229.710970,-9934.999435
5983.084629,-19.142581,995.414202,-9667.003304
5983.087140,-4594.219392,2699.103893,-9418.149754
5983.089650,5168.496816,-5761.916821,-11274.980091
5983.092161,5072.783912,1780.260014,-9265.009107
5983.094671,-1397.408398,6049.055533,-8690.731683
5983.097182,3177.668413,-8346.165229,-11619.546546
5983.099692,-1550.549045,6068.198114,-8116.454259
5983.102203,995.414202,-4575.076811,-11140.982026
5983.104713,1339.980656,-2086.541307,-10107.282662
5983.107224,2009.970984,2507.678085,-9379.864592
5983.109734,2105.683888,497.707101,-9781.858789
5983.112245,1378.265818,114.855485,-9839.286531
5983.114755,421.136778,-114.855485,-10011.569758
5983.117266,133.998066,1301.695494,-9954.142016
5983.119776,1569.691626,57.427742,-9724.431046
5983.122287,2143.969050,-535.992262,-9667.003304
5983.124797,631.705166,287.138712,-9801.001370
5983.127308,-133.998066,1799.402595,-9686.145885
5983.129818,1856.830338,-880.558717,-10164.710405
5983.132329,612.562586,823.130974,-9896.714274
5983.134839,2392.822600,-497.707101,-9686.145885
5983.137350,133.998066,1282.552914,-9762.716208
5983.139860,2431.107762,-2373.680019,-10336.993632
5983.142371,3464.807125,-2967.100024,-9743.573627
5983.144881,-1129.412267,2699.103893,-9284.151688
5983.147392,2373.680019,-6374.479406,-11026.126541
5983.149902,-1454.836141,4192.225195,-8977.870395
5983.152413,3062.812928,-2775.674216,-11466.405899
5983.154923,842.273555,5723.631659,-8441.878133
5983.157434,-650.847747,267.996131,-9513.862658
5983.159944,2201.396792,-6355.336826,-11389.835576
5983.162455,-4517.649069,9647.860723,-8059.026517
5983.164965,-1741.974853,612.562586,-10566.704602
5983.167476,-612.562586,1627.119368,-9915.856854
5983.169986,1225.125171,5838.487144,-8480.163294
5983.172497,-1397.408398,-229.710970,-10088.140082
5983.175007,555.134843,-899.701298,-10662.417506
5983.177518,421.136778,2603.390989,-9073.583299
5983.180028,-2067.398726,-153.140646,-9973.284597
5983.182539,-957.129040,3043.670347,-10049.854920
5983.185049,-76.570323,2967.100024,-8958.727814
5983.187571,1416.550979,-803.988394,-10164.710405
5983.190092,363.709035,1837.687757,-9839.286531
5983.192613,-1339.980656,612.562586,-9858.429112
5983.195135,-172.283227,593.420005,-9858.429112
5983.197656,842.273555,957.129040,-9858.429112
5983.200178,76.570323,918.843878,-9571.290400
5983.202699,1033.699363,803.988394,-9820.143950
5983.205220,-3369.094221,3464.807125,-9552.147819
5983.207742,-3388.236802,1148.554848,-9858.429112
5983.210263,3503.092286,57.427742,-10049.854920
5983.212784,-1473.978722,8958.727814,-8346.165229
5983.215306,2316.252277,-1741.974853,-10643.274925
5983.217827,-1588.834206,440.279358,-9475.577496
5983.220349,19.142581,-1052.841944,-10030.712339
5983.222870,-2335.394858,5761.916821,-9035.298138
5983.225391,746.560651,-918.843878,-10470.991698
5983.227913,5206.781978,-2526.820666,-10145.567824
5983.230434,-2297.109696,8422.735552,-7752.745224
5983.232956,3158.525832,-8556.733618,-11638.689126
5983.235477,-976.271621,3981.656806,-8920.442653
5983.237998,2009.970984,-1799.402595,-10834.700733
5983.240520,861.416136,-2469.392923,-10068.997501
5983.243041,1914.258080,2029.113565,-9341.579430
5983.245563,2335.394858,325.423874,-10241.280728
5983.248084,-210.568389,1531.406464,-8901.300072
5983.250605,248.853550,-2526.820666,-10968.698798
5983.253127,0.000000,1780.260014,-9877.571693
5983.255648,1914.258080,-421.136778,-9552.147819
5983.258169,1780.260014,344.566454,-9437.292334
5983.260691,363.709035,38.285162,-9992.427178
5983.263212,1205.982590,1512.263883,-9609.575562
5983.265734,746.560651,-38.285162,-10183.852986
5983.268255,1761.117434,-210.568389,-9686.145885
5983.270776,440.279358,1110.269686,-9245.866526
5983.273298,3847.658741,-2316.252277,-10662.417506
5983.275819,2890.529701,-76.570323,-9513.862658
5983.278341,-1473.978722,-555.134843,-9590.432981
5983.280862,3120.240670,-6757.331022,-11313.265253
5983.283383,-1531.406464,4019.941968,-8633.303941
5983.285905,3349.951640,-555.134843,-10279.565890
5983.288436,-229.710970,5359.922624,-9341.579430
5983.290966,3866.801322,-6183.053598,-10872.985894
5983.293497,1914.258080,-3522.234867,-10738.987829
5983.296028,-4594.219392,9475.577496,-8461.020714
5983.298559,2718.246474,-6757.331022,-11217.552349
5983.301090,-1780.260014,7944.171032,-8843.872330
5983.303620,1416.550979,-363.709035,-10796.415571
5983.306151,-1722.832272,1301.695494,-8729.016845
5983.308682,344.566454,4843.072942,-9245.866526
5983.311213,574.277424,-1225.125171,-10528.419440
5983.313744,-497.707101,325.423874,-9533.005238
5983.316274,-2737.389054,3522.234867,-10241.280728
5983.318805,344.566454,-382.851616,-9801.001370
5983.321336,1933.400661,2411.965181,-9207.581365
5983.323867,191.425808,363.709035,-10451.849117
5983.326398,-708.275490,1741.974853,-9513.862658
5983.328929,114.855485,1071.984525,-9724.431046
5983.331459,-306.281293,669.990328,-10202.995566
5983.333990,631.705166,1091.127106,-9322.436850
5983.336521,153.140646,842.273555,-9781.858789
5983.339052,-3024.527766,2584.248408,-10183.852986
5983.341583,-3349.951640,4326.223261,-9341.579430
5983.344113,2469.392923,-880.558717,-10451.849117
5983.346644,-593.420005,7465.606512,-8518.448456
5983.349175,3522.234867,38.285162,-10164.710405
5983.351706,-3254.238736,1512.263883,-9131.011042
5983.354237,593.420005,-4460.221326,-10738.987829
5983.356767,-3847.658741,6183.053598,-8939.585234
5983.359298,1741.974853,-2488.535504,-10796.415571
5983.361829,4996.213589,-612.562586,-9839.286531
5983.364360,-1607.976787,8958.727814,-7925.028451
5983.366891,1282.552914,-6125.625856,-10911.271056
5983.369422,-746.560651,880.558717,-9513.862658
5983.371952,2967.100024,1033.699363,-10528.419440
5983.374483,727.418070,-2201.396792,-9475.577496
5983.377014,1914.258080,765.703232,-9590.432981
5983.379545,2833.101958,440.279358,-10317.851051
5983.382076,1320.838075,-957.129040,-9399.007173
5983.384606,0.000000,38.285162,-9973.284597
5983.387137,-38.285162,1282.552914,-9820.143950
5983.389675,1895.115499,-363.709035,-9322.436850
5983.392213,1493.121302,918.843878,-9877.571693
5983.394751,516.849682,-229.710970,-10183.852986
5983.397290,1091.127106,1397.408398,-9169.296203
5983.399828,689.132909,363.709035,-10241.280728
5983.402366,631.705166,-1110.269686,-10088.140082
5983.404904,3139.383251,1627.119368,-8997.012976
5983.407442,3617.947771,-1263.410333,-10356.136213
5983.409980,2718.246474,-4268.795518,-10298.708470
5983.412518,1703.689691,-1014.556782,-9667.003304
5983.415056,153.140646,1607.976787,-9456.434915
5983.417594,-612.562586,957.129040,-9801.001370
5983.420132,2469.392923,-421.136778,-10470.991698
5983.422671,4326.223261,-1148.554848,-10222.138147
5983.425209,-3885.943902,7235.895542,-7944.171032
5983.427747,210.568389,-7389.036189,-11198.409768
5983.430285,1301.695494,5111.069074,-9245.866526
5983.432823,-1052.841944,2009.970984,-10336.993632
5983.435361,1473.978722,-2641.676150,-10796.415571
5983.437899,899.701298,6202.196179,-8422.735552
5983.440437,-2986.242605,3541.377448,-9437.292334
5983.442975,325.423874,-4326.223261,-10796.415571
5983.445513,172.283227,2431.107762,-9858.429112
5983.448051,-1033.699363,-114.855485,-10145.567824
5983.450590,-823.130974,3675.375514,-9169.296203
5983.453128,-95.712904,3177.668413,-9590.432981
5983.455666,1263.410333,-76.570323,-9743.573627
5983.458204,669.990328,287.138712,-9992.427178
5983.460742,-401.994197,1531.406464,-10107.282662
5983.463280,-976.271621,-459.421939,-9896.714274
5983.465818,1473.978722,1339.980656,-9265.009107
5983.468356,-1282.552914,1722.832272,-9590.432981
5983.470894,-1454.836141,574.277424,-10222.138147
5983.473432,-3503.092286,5130.211654,-9590.432981
5983.475970,1454.836141,344.566454,-10011.569758
5983.478509,-1301.695494,5800.201982,-8767.302006
5983.481047,2909.672282,631.705166,-10317.851051
5983.483585,-2679.961312,3235.096155,-8633.303941
5983.486123,995.414202,-5685.346498,-11485.548480
5983.488661,-1244.267752,6317.051664,-9016.155557
5983.491205,-38.285162,-516.849682,-10030.712339
5983.493750,4900.500685,-4594.219392,-10509.276859
5983.496294,-1780.260014,8882.157491,-8001.598774
5983.498838,3330.809059,-8269.594906,-11274.980091
5983.501383,-842.273555,3541.377448,-9150.153622
5983.503927,1359.123237,-727.418070,-10719.845248
5983.506472,535.992262,-2737.389054,-9915.856854
5983.509016,1933.400661,-114.855485,-10183.852986
5983.511561,2890.529701,478.564520,-10145.567824
5983.514105,1282.552914,-1875.972918,-9533.005238
5983.516649,-133.998066,-76.570323,-10222.138147
5983.519194,-459.421939,1569.691626,-9915.856854
5983.521738,2009.970984,-478.564520,-9705.288466
5983.524283,1531.406464,727.418070,-9609.575562
5983.526827,401.994197,516.849682,-10030.712339
5983.529371,574.277424,555.134843,-9571.290400
5983.531916,1282.552914,957.129040,-10049.854920
5983.534460,937.986459,957.129040,-9724.431046
5983.537005,4421.936165,-1952.543242,-9801.001370
5983.539549,4517.649069,-1167.697429,-10011.569758
5983.542093,-2450.250342,957.129040,-9571.290400
5983.544638,2450.250342,-7446.463931,-11217.552349
5983.547182,-1818.545176,3215.953574,-9092.725880
5983.549727,4307.080680,-248.853550,-10509.276859
5983.552271,191.425808,5359.922624,-8939.585234
5983.554815,-784.845813,-3235.096155,-10107.282662
5983.557360,1301.695494,-2813.959378,-10566.704602
5983.559904,-4345.365842,8480.163294,-8729.016845
5983.562449,2986.242605,-6259.623922,-11562.118803
5983.564993,-2220.539373,8729.016845,-8422.735552
5983.567537,1875.972918,-746.560651,-10490.134278
5983.570082,-1052.841944,937.986459,-8786.444587
5983.572626,-1091.127106,4900.500685,-9322.436850
5983.575171,287.138712,-1665.404530,-10758.130410
5983.577715,153.140646,459.421939,-9647.860723
5983.580259,-2258.824534,2641.676150,-10088.140082
5983.582804,-421.136778,1837.687757,-9456.434915
5983.585348,344.566454,2833.101958,-9150.153622
5983.587893,1091.127106,-1186.840010,-10643.274925
5983.590437,172.283227,2431.107762,-9341.579430
5983.592987,306.281293,918.843878,-10088.140082
5983.595537,210.568389,-325.423874,-10164.710405
5983.598087,-1282.552914,2239.681954,-8843.872330
5983.600637,-459.421939,1205.982590,-10088.140082
5983.603188,-2775.674216,3694.518094,-9762.716208
5983.605738,459.421939,1301.695494,-9590.432981
5983.608288,-1684.547110,5781.059402,-9341.579430
5983.610838,2794.816797,1033.699363,-10011.569758
5983.613388,-2029.113565,1799.402595,-8939.585234
5983.615938,1665.404530,-3656.232933,-10987.841379
5983.618488,-4651.647134,6106.483275,-9303.294269
5983.621038,2297.109696,-4479.363907,-10930.413637
5983.623588,4153.940034,2105.683888,-9399.007173
5983.626139,-555.134843,4000.799387,-8824.729749
5983.628689,3445.664544,-7101.897477,-11140.982026
5983.631239,-669.990328,2890.529701,-9245.866526
5983.633789,1416.550979,-344.566454,-10604.989763
5983.636339,401.994197,-2756.531635,-9801.001370
5983.638889,2048.256146,-842.273555,-10241.280728
5983.641439,2507.678085,899.701298,-10183.852986
5983.643989,1646.261949,-2009.970984,-9437.292334
5983.646539,497.707101,823.130974,-9724.431046
5983.649090,-516.849682,440.279358,-10260.423309
5983.651640,1454.836141,287.138712,-9552.147819
5983.654190,2086.541307,574.277424,-9724.431046
5983.656740,363.709035,325.423874,-10030.712339
5983.659290,344.566454,382.851616,-9590.432981
5983.661840,0.000000,593.420005,-10183.852986
5983.664390,3522.234867,-1014.556782,-10011.569758
5983.666940,4249.652938,-191.425808,-9360.722011
5983.669490,1875.972918,-2833.101958,-10585.847182
5983.672041,344.566454,-191.425808,-9494.720077
5983.674591,153.140646,-325.423874,-9131.011042
5983.677141,-880.558717,708.275490,-10164.710405
5983.679691,3943.371645,-2986.242605,-11198.409768
5983.682241,3177.668413,3847.658741,-8767.302006
5983.684791,-2048.256146,3311.666478,-9131.011042
5983.687341,-1569.691626,-5876.772306,-10624.132344
5983.689891,2201.396792,3790.230998,-9647.860723
5983.692441,-1033.699363,3828.516160,-10183.852986
5983.694997,-669.990328,-287.138712,-10049.854920
5983.697552,1014.556782,6106.483275,-8384.450390
5983.700107,-2431.107762,-574.277424,-10164.710405
5983.702662,38.285162,-2201.396792,-10566.704602
5983.705217,-267.996131,4479.363907,-9226.723946
5983.707772,497.707101,-784.845813,-10336.993632
5983.710327,-1627.119368,2871.387120,-9054.440718
5983.712882,325.423874,4287.938099,-9379.864592
5983.715437,1397.408398,-1416.550979,-9954.142016
5983.717992,325.423874,1397.408398,-9513.862658
5983.720547,38.285162,1454.836141,-10222.138147
5983.723102,1167.697429,-344.566454,-10145.567824
5983.725657,-1282.552914,2220.539373,-9054.440718
5983.728212,-803.988394,1627.119368,-9533.005238
5983.730767,-2124.826469,2029.113565,-10298.708470
5983.733322,784.845813,3120.240670,-9743.573627
5983.735877,-2316.252277,6470.192310,-8920.442653
5983.738432,1741.974853,344.566454,-10356.136213
5983.740987,-1225.125171,1818.545176,-8882.157491
5983.743542,1665.404530,-2545.963246,-10336.993632
5983.746097,-4479.363907,5513.063270,-9322.436850
5983.748652,3273.381317,-4881.358104,-11351.550414
5983.751207,4594.219392,3847.658741,-8958.727814
5983.753762,-918.843878,2507.678085,-8958.727814
5983.756317,3292.523898,-6604.190376,-10853.843314
5983.758872,-689.132909,3177.668413,-9016.155557
5983.761427,440.279358,-1167.697429,-10930.413637
5983.763982,1205.982590,-3158.525832,-10068.997501
5983.766538,1244.267752,3388.236802,-9073.583299
5983.769093,2316.252277,133.998066,-9877.571693
5983.771648,3292.523898,-114.855485,-9494.720077
5983.774203,-172.283227,1186.840010,-9628.718142
5983.776758,-363.709035,-2986.242605,-10662.417506
5983.779313,880.558717,2507.678085,-9456.434915
5983.781868,669.990328,-95.712904,-9896.714274
5983.784423,1091.127106,267.996131,-9552.147819
5983.786978,574.277424,1454.836141,-9494.720077
5983.789533,899.701298,421.136778,-10432.706536
5983.792088,2373.680019,-1971.685822,-10145.567824
5983.794643,4402.793584,-19.142581,-9150.153622
5983.797201,784.845813,-1473.978722,-10202.995566
5983.799760,2411.965181,-3694.518094,-10490.134278
5983.802318,153.140646,2737.389054,-8805.587168
5983.804877,-1493.121302,976.271621,-9973.284597
5983.807436,976.271621,823.130974,-10202.995566
5983.809994,5053.641331,-3522.234867,-10413.563955
5983.812553,-4000.799387,6680.760699,-7925.028451
5983.815111,-2737.389054,-4134.797453,-10566.704602
5983.817670,1990.828403,2239.681954,-10068.997501
5983.820228,-1588.834206,5819.344563,-9475.577496
5983.822787,191.425808,-1875.972918,-10356.136213
5983.825345,1167.697429,6049.055533,-8269.594906
5983.827904,-2565.105827,516.849682,-9915.856854
5983.830462,95.712904,-3541.377448,-11179.267187
5983.833021,-95.712904,2794.816797,-9590.432981
5983.835579,-172.283227,-114.855485,-10164.710405
5983.838138,-1110.269686,1454.836141,-9322.436850
5983.840696,-95.712904,5168.496816,-9131.011042
5983.843255,1263.410333,-1895.115499,-10202.995566
5983.845813,229.710970,1512.263883,-9590.432981
5983.848372,593.420005,1282.552914,-10068.997501
5983.850930,-229.710970,248.853550,-10107.282662
5983.853489,-325.423874,1875.972918,-9207.581365
5983.856047,-2431.107762,2545.963246,-9533.005238
5983.858606,-95.712904,2182.254211,-10356.136213
5983.861164,-1818.545176,3579.662610,-9609.575562
5983.863723,-995.414202,1148.554848,-10413.563955
5983.866281,2239.681954,-1052.841944,-10011.569758
5983.868840,-1799.402595,7140.182638,-7637.889739
5983.871398,-401.994197,-2833.101958,-10815.558152
5983.873957,1761.117434,267.996131,-10490.134278
5983.876515,-1856.830338,6393.621987,-8767.302006
5983.879074,-95.712904,-6489.334891,-11313.265253
5983.881633,2373.680019,-1550.549045,-9705.288466
5983.884191,1761.117434,3139.383251,-8843.872330
5983.886750,-344.566454,-3866.801322,-11179.267187
5983.889308,2201.396792,2258.824534,-9724.431046
5983.891867,823.130974,2297.109696,-8786.444587
5983.894425,1722.832272,-3081.955509,-10662.417506
5983.896984,1684.547110,1359.123237,-9705.288466
5983.899545,2584.248408,-1933.400661,-9609.575562
5983.902107,593.420005,-899.701298,-10049.854920
5983.904669,689.132909,1895.115499,-9877.571693
5983.907231,-57.427742,1091.127106,-9513.862658
5983.909793,1397.408398,-784.845813,-9743.573627
5983.912354,823.130974,1493.121302,-9475.577496
5983.914916,421.136778,1225.125171,-9934.999435
5983.917478,2373.680019,-1627.119368,-10643.274925
5983.920040,3637.090352,-574.277424,-9265.009107
5983.922602,1397.408398,-1129.412267,-9552.147819
5983.925163,2201.396792,-2756.531635,-10470.991698
5983.927725,-95.712904,3081.955509,-8633.303941
5983.930287,478.564520,1952.543242,-9667.003304
5983.932849,325.423874,-957.129040,-10490.134278
5983.935411,4575.076811,-2813.959378,-10336.993632
5983.937972,-3771.088418,6872.186507,-7886.743290
5983.940534,-1110.269686,-5742.774240,-10624.132344
5983.943096,1837.687757,4517.649069,-9609.575562
5983.945658,-1282.552914,3847.658741,-9992.427178
5983.948219,-1186.840010,-612.562586,-10030.712339
5983.950781,899.701298,5187.639397,-8671.589102
5983.953343,-2775.674216,2488.535504,-9513.862658
5983.955905,401.994197,-4709.074877,-11255.837510
5983.958467,-248.853550,4307.080680,-9399.007173
5983.961028,-210.568389,-229.710970,-10164.710405
5983.963590,-306.281293,1799.402595,-9418.149754
5983.966152,-708.275490,4938.785846,-9226.723946
5983.968714,-248.853550,-803.988394,-10183.852986
5983.971276,823.130974,210.568389,-9934.999435
5983.973837,38.285162,2029.113565,-9896.714274
5983.976399,114.855485,153.140646,-10183.852986
5983.978961,-1856.830338,3005.385186,-9207.581365
5983.981523,-2411.965181,2699.103893,-9399.007173
5983.984085,1473.978722,-19.142581,-10470.991698
5983.986646,-2450.250342,7963.313613,-8843.872330
5983.989208,38.285162,497.707101,-10758.130410
5983.991770,287.138712,-1646.261949,-9954.142016
5983.994332,880.558717,2852.244539,-8843.872330
5983.996894,-3215.953574,2909.672282,-9456.434915
5983.999455,4268.795518,-5168.496816,-11370.692995
5984.002020,4402.793584,2909.672282,-9169.296203
5984.004584,-842.273555,4402.793584,-8441.878133
5984.007149,3598.805190,-8384.450390,-11236.694930
5984.009713,-459.421939,5130.211654,-8537.591037
5984.012277,-765.703232,-3962.514226,-11102.696864
5984.014842,3847.658741,-1933.400661,-10222.138147
5984.017406,1282.552914,6029.912952,-8633.303941
5984.019971,1569.691626,-2354.537438,-9954.142016
5984.022535,1588.834206,306.281293,-9399.007173
5984.025099,1244.267752,-918.843878,-10068.997501
5984.027664,555.134843,-1301.695494,-10279.565890
5984.030228,631.705166,2373.680019,-9915.856854
5984.032793,440.279358,-57.427742,-9705.288466
5984.035357,191.425808,-267.996131,-9265.009107
5984.037921,1167.697429,2220.539373,-9571.290400
5984.040486,1780.260014,-1378.265818,-10700.702667
5984.043050,2813.959378,-880.558717,-10011.569758
5984.045615,1722.832272,-478.564520,-9169.296203
5984.048179,2086.541307,-1875.972918,-9954.142016
5984.050743,1684.547110,-478.564520,-9475.577496
5984.053308,-1282.552914,1473.978722,-9934.999435
5984.055872,2833.101958,-4613.361973,-11485.548480
5984.058437,2239.681954,4364.508422,-8882.157491
5984.061001,-1052.841944,1875.972918,-7982.456194
5984.063565,153.140646,-6853.043926,-10853.843314
5984.066130,1837.687757,5819.344563,-9226.723946
5984.068694,-1244.267752,2775.674216,-10317.851051
5984.071259,-1971.685822,1301.695494,-9858.429112
5984.073823,1263.410333,3866.801322,-8690.731683
5984.076387,-1014.556782,-1990.828403,-9877.571693
5984.078952,0.000000,765.703232,-10202.995566
5984.081516,-1129.412267,4517.649069,-9245.866526
5984.084081,95.712904,210.568389,-10145.567824
5984.086645,-363.709035,2316.252277,-9245.866526
5984.089209,-823.130974,3254.238736,-9494.720077
5984.091774,-153.140646,-708.275490,-10145.567824
5984.094338,1263.410333,937.986459,-10068.997501
5984.096902,-57.427742,1990.828403,-9858.429112
5984.099467,-267.996131,631.705166,-9934.999435
5984.102031,-1588.834206,2297.109696,-9494.720077
5984.104598,-2450.250342,2584.248408,-9303.294269
5984.107165,861.416136,-421.136778,-10260.423309
5984.109731,-1665.404530,5781.059402,-9667.003304
5984.112298,2201.396792,3407.379382,-9801.001370
5984.114864,-2526.820666,2622.533570,-8518.448456
5984.117431,2373.680019,-4134.797453,-10279.565890
5984.119998,-3081.955509,5532.205851,-9169.296203
5984.122564,784.845813,-4287.938099,-11332.407834
5984.125131,4096.512291,57.427742,-9858.429112
5984.127698,-1052.841944,6508.477472,-8116.454259
5984.130264,4019.941968,-8269.594906,-11102.696864
5984.132831,-612.562586,1875.972918,-9131.011042
5984.135397,1244.267752,382.851616,-10872.985894
5984.137964,1493.121302,-4230.510357,-10719.845248
5984.140531,1359.123237,2450.250342,-9035.298138
5984.143097,1646.261949,689.132909,-9552.147819
5984.145664,2277.967115,344.566454,-9322.436850
5984.148230,1914.258080,-612.562586,-10260.423309
5984.150797,-210.568389,-784.845813,-10126.425243
5984.153364,-38.285162,1722.832272,-9973.284597
5984.155930,1320.838075,-363.709035,-9820.143950
5984.158497,784.845813,1627.119368,-9169.296203
5984.161064,1397.408398,287.138712,-9973.284597
5984.163630,2354.537438,-593.420005,-10796.415571
5984.166197,3522.234867,-918.843878,-9877.571693
5984.168763,-267.996131,612.562586,-9016.155557
5984.171330,3713.660675,-6297.909083,-10930.413637
5984.173897,-191.425808,1971.685822,-8958.727814
5984.176463,1837.687757,1703.689691,-10088.140082
5984.179030,-421.136778,1971.685822,-10375.278794
5984.181597,4249.652938,-5091.926493,-10222.138147
5984.184163,2067.398726,1646.261949,-9016.155557
5984.186707,-2048.256146,5742.774240,-9437.292334
5984.189251,2622.533570,-5551.348432,-11408.978157
5984.191795,-4000.799387,9379.864592,-8269.594906
5984.194339,1703.689691,-1473.978722,-10796.415571
5984.196883,612.562586,3311.666478,-8384.450390
5984.199427,-2411.965181,3675.375514,-9150.153622
5984.201971,593.420005,-5379.065205,-11447.263318
5984.204515,-746.560651,3675.375514,-9533.005238
5984.207059,-880.558717,1378.265818,-10164.710405
5984.209603,-689.132909,133.998066,-9399.007173
5984.212147,669.990328,4421.936165,-8882.157491
5984.214691,-19.142581,-1186.840010,-10604.989763
5984.217235,-210.568389,1588.834206,-9781.858789
5984.219779,669.990328,1378.265818,-9877.571693
5984.222323,-516.849682,784.845813,-9915.856854
5984.224867,-2794.816797,2890.529701,-9207.581365
5984.227411,784.845813,1761.117434,-9647.860723
5984.229955,-2239.681954,6738.188442,-9437.292334
5984.232499,746.560651,2890.529701,-10145.567824
5984.235043,-1167.697429,382.851616,-9724.431046
5984.237587,1627.119368,-803.988394,-9590.432981
5984.240130,-3713.660675,4019.941968,-8958.727814
5984.242674,4460.221326,-6431.907149,-11562.118803
5984.245218,3062.812928,7159.325219,-8863.014910
5984.247762,-708.275490,-880.558717,-9801.001370
5984.250306,2411.965181,-5149.354235,-10049.854920
5984.252850,1167.697429,3522.234867,-8786.444587
5984.255394,-880.558717,-3062.812928,-10930.413637
5984.257938,3483.949706,-2775.674216,-10470.991698
5984.260482,1263.410333,6010.770371,-8901.300072
5984.263026,1856.830338,-1722.832272,-9801.001370
5984.265570,1703.689691,1225.125171,-9360.722011
5984.268114,1397.408398,-363.709035,-10279.565890
5984.270658,976.271621,-2354.537438,-10413.563955
5984.273202,363.709035,2679.961312,-9992.427178
5984.275746,421.136778,1052.841944,-9954.142016
5984.278290,746.560651,-38.285162,-9399.007173
5984.280834,1071.984525,1244.267752,-9475.577496
5984.283378,3062.812928,-1588.834206,-10796.415571
5984.285922,3541.377448,-574.277424,-10183.852986
5984.288471,-497.707101,2373.680019,-8997.012976
5984.291020,3292.523898,-6987.041992,-10490.134278
5984.293569,-899.701298,133.998066,-9092.725880
5984.296118,3215.953574,-57.427742,-10451.849117
5984.298668,-899.701298,4670.789715,-9705.288466
5984.301217,3311.666478,-2986.242605,-10011.569758
5984.303766,2411.965181,-1665.404530,-9801.001370
5984.306315,-3311.666478,8805.587168,-8365.307810
5984.308864,2641.676150,-6431.907149,-11542.976222
5984.311413,-3541.377448,8307.880067,-8824.729749
5984.313962,1684.547110,-937.986459,-10777.272990
5984.316512,478.564520,2220.539373,-8307.880067
5984.319061,-2507.678085,5206.781978,-8614.161360
5984.321610,478.564520,-5034.498750,-11523.833642
5984.324159,-76.570323,2890.529701,-9686.145885
5984.326708,-1186.840010,1722.832272,-10202.995566
5984.329257,-612.562586,-287.138712,-9801.001370
5984.331806,191.425808,3483.949706,-8863.014910
5984.334355,842.273555,-727.418070,-10470.991698
5984.336905,-1684.547110,1875.972918,-9781.858789
5984.339454,76.570323,1933.400661,-9934.999435
5984.342003,-1091.127106,1282.552914,-9992.427178
5984.344552,-1837.687757,2201.396792,-9207.581365
5984.347101,-1244.267752,957.129040,-9686.145885
5984.349650,-995.414202,631.705166,-11083.554283
5984.352199,2507.678085,2124.826469,-9762.716208
5984.354749,-2584.248408,6776.473603,-8154.739421
5984.357298,1473.978722,-5493.920690,-10796.415571
5984.359847,2086.541307,3943.371645,-9054.440718
5984.362396,-2067.398726,2794.816797,-9762.716208
5984.364945,5149.354235,-9628.718142,-12174.681389
5984.367494,-899.701298,8729.016845,-8020.741355
5984.370043,3369.094221,-4766.502619,-10164.710405
5984.372593,-612.562586,-918.843878,-9896.714274
5984.375142,2029.113565,3924.229064,-9820.143950
5984.377691,1627.119368,-2277.967115,-10183.852986
5984.380240,1837.687757,-2009.970984,-10336.993632
5984.382789,746.560651,1588.834206,-9686.145885
5984.385338,2239.681954,-1052.841944,-9245.866526
5984.387887,2182.254211,1627.119368,-9724.431046
5984.390441,861.416136,-669.990328,-10528.419440
5984.392995,-114.855485,1359.123237,-9418.149754
5984.395549,2431.107762,-210.568389,-10011.569758
5984.398103,765.703232,976.271621,-9245.866526
5984.400657,2622.533570,-1033.699363,-9915.856854
5984.403211,3426.521963,-401.994197,-10451.849117
5984.405765,-229.710970,1856.830338,-9494.720077
5984.408318,3522.234867,-6604.190376,-10662.417506
5984.410872,401.994197,267.996131,-8824.729749
5984.413426,1818.545176,1799.402595,-9494.720077
5984.415980,38.285162,1052.841944,-10547.562021
5984.418534,3943.371645,-3369.094221,-10949.556218
5984.421088,-3790.230998,3943.371645,-8384.450390
5984.423642,-2009.970984,2986.242605,-9456.434915
5984.426196,2507.678085,-5091.926493,-11485.548480
5984.428750,-3464.807125,9111.868461,-8480.163294
5984.431304,995.414202,-689.132909,-10815.558152
5984.433857,612.562586,3771.088418,-8977.870395
5984.436411,-2813.959378,1397.408398,-9360.722011
5984.438965,421.136778,-4747.360038,-10930.413637
5984.441519,-459.421939,5034.498750,-9513.862658
5984.444073,287.138712,555.134843,-10126.425243
5984.446627,-95.712904,1359.123237,-9494.720077
5984.449181,-363.709035,3445.664544,-8939.585234
5984.451735,689.132909,-1129.412267,-10068.997501
5984.454289,-229.710970,1416.550979,-9954.142016
5984.456842,-76.570323,1914.258080,-9934.999435
5984.459396,-1129.412267,1952.543242,-9781.858789
5984.461950,440.279358,1473.978722,-9054.440718
5984.464504,-3598.805190,5474.778109,-8805.587168
5984.467058,-1148.554848,593.420005,-11102.696864
5984.469612,2641.676150,172.283227,-10413.563955
5984.472166,-1646.261949,6853.043926,-8288.737486
5984.474720,-478.564520,-3292.523898,-10279.565890
5984.477274,1837.687757,880.558717,-9226.723946
5984.479828,-1818.545176,6297.909083,-8633.303941
5984.482381,-401.994197,-6183.053598,-11600.403965
5984.484935,2105.683888,-1397.408398,-9609.575562
5984.487489,2507.678085,1244.267752,-9245.866526
5984.490043,-631.705166,-2584.248408,-10413.563955
5984.492601,2163.111630,3828.516160,-9092.725880
5984.495158,1186.840010,650.847747,-9724.431046
5984.497716,2316.252277,-3675.375514,-11121.839445
5984.500273,421.136778,1741.974853,-9437.292334
5984.502831,1493.121302,-1148.554848,-9303.294269
5984.505388,2105.683888,-1378.265818,-9915.856854
5984.507946,1148.554848,2545.963246,-9801.001370
5984.510503,-803.988394,1205.982590,-9896.714274
5984.513061,2143.969050,-765.703232,-9877.571693
5984.515619,1014.556782,899.701298,-9418.149754
5984.518176,3081.955509,-1607.976787,-10164.710405
5984.520734,2182.254211,-995.414202,-10413.563955
5984.523291,1875.972918,1607.976787,-9571.290400
5984.525849,2545.963246,-2718.246474,-9743.573627
5984.528406,-823.130974,-976.271621,-9111.868461
5984.530964,2048.256146,-3579.662610,-11064.411702
5984.533521,2813.959378,1875.972918,-9934.999435
5984.536079,-1914.258080,3713.660675,-9245.866526
5984.538637,2641.676150,-6546.762634,-10949.556218
5984.541194,-1263.410333,10107.282662,-7446.463931
5984.543752,-19.142581,-1761.117434,-10872.985894
5984.546309,-2239.681954,4058.227130,-9839.286531
5984.548867,1569.691626,918.843878,-10336.993632
5984.551424,669.990328,-1225.125171,-9475.577496
5984.553982,-899.701298,1837.687757,-9475.577496
5984.556539,-1148.554848,4211.367776,-9245.866526
5984.559097,1397.408398,-899.701298,-10317.851051
5984.561654,-689.132909,2909.672282,-9839.286531
5984.564212,-803.988394,-1110.269686,-10202.995566
5984.566770,-153.140646,3407.379382,-8824.729749
5984.569327,-478.564520,-631.705166,-10470.991698
5984.571885,363.709035,1627.119368,-9475.577496
5984.574442,-1129.412267,3215.953574,-9571.290400
5984.577000,114.855485,727.418070,-10222.138147
5984.579557,-3349.951640,3330.809059,-8575.876198
5984.582115,-1818.545176,2182.254211,-10107.282662
5984.584672,2488.535504,1378.265818,-10547.562021
5984.587230,-1952.543242,8212.167163,-8001.598774
5984.589787,2105.683888,-5340.780043,-11121.839445
5984.592345,631.705166,4402.793584,-8480.163294
5984.594906,-2143.969050,-478.564520,-10088.140082
5984.597467,4192.225195,-7810.172966,-11523.833642
5984.600027,-1282.552914,5111.069074,-8977.870395
5984.602588,2392.822600,-1818.545176,-9494.720077
5984.605149,-708.275490,555.134843,-9207.581365
5984.607710,1397.408398,2584.248408,-10049.854920
5984.610271,2009.970984,-4632.504554,-10470.991698
5984.612832,1550.549045,516.849682,-9839.286531
5984.615392,1148.554848,1416.550979,-10049.854920
5984.617953,2086.541307,-38.285162,-8997.012976
5984.620514,1416.550979,1780.260014,-9399.007173
5984.623075,497.707101,-1263.410333,-10796.415571
5984.625636,-363.709035,516.849682,-9686.145885
5984.628197,1875.972918,-248.853550,-10164.710405
5984.630757,765.703232,325.423874,-9801.001370
5984.633318,2852.244539,-1512.263883,-9724.431046
5984.635879,1359.123237,-57.427742,-10183.852986
5984.638440,3062.812928,-1052.841944,-10260.423309
5984.641001,2239.681954,-516.849682,-9303.294269
5984.643561,-1282.552914,306.281293,-9628.718142
5984.646122,3732.803256,-4977.071008,-11026.126541
5984.648683,612.562586,5781.059402,-10317.851051
5984.651244,-3024.527766,6374.479406,-8824.729749
5984.653805,1818.545176,-7369.893608,-10987.841379
5984.656366,823.130974,8575.876198,-7944.171032
5984.658926,-344.566454,689.132909,-10490.134278
5984.661487,-2220.539373,2373.680019,-9839.286531
5984.664048,1129.412267,1627.119368,-9973.284597
5984.666609,535.992262,-2488.535504,-9934.999435
5984.669170,-2373.680019,5359.922624,-8843.872330
5984.671730,-421.136778,248.853550,-10126.425243
5984.674291,1129.412267,-918.843878,-10202.995566
5984.676852,-421.136778,3330.809059,-9456.434915
5984.679413,-1435.693560,267.996131,-10183.852986
5984.681974,133.998066,1282.552914,-9226.723946
5984.684535,95.712904,287.138712,-10145.567824
5984.687095,-95.712904,1148.554848,-10107.282662
5984.689656,-1799.402595,3139.383251,-9628.718142
5984.692217,535.992262,210.568389,-10222.138147
5984.694778,-4326.223261,5608.776174,-8288.737486
5984.697341,-1301.695494,3101.098090,-10222.138147
5984.699904,1493.121302,-765.703232,-10834.700733
5984.702467,861.416136,5455.635528,-8997.012976
5984.705031,-2316.252277,803.988394,-9801.001370
5984.707594,2220.539373,-3771.088418,-9858.429112
5984.710157,-1378.265818,8920.442653,-8078.169098
5984.712720,1435.693560,-9150.153622,-12423.534939
5984.715283,2067.398726,401.994197,-9571.290400
5984.717847,2545.963246,-57.427742,-9418.149754
5984.720410,-287.138712,-3273.381317,-10375.278794
5984.722973,3215.953574,2220.539373,-9035.298138
5984.725536,899.701298,3943.371645,-8997.012976
5984.728099,2258.824534,-5015.356170,-11179.267187
5984.730663,440.279358,516.849682,-9915.856854
5984.733226,1129.412267,-1359.123237,-9743.573627
5984.735789,1091.127106,650.847747,-9494.720077
5984.738352,861.416136,669.990328,-10317.851051
5984.740915,650.847747,1646.261949,-9571.290400
5984.743479,1722.832272,95.712904,-10068.997501
5984.746042,2124.826469,-191.425808,-9781.858789
5984.748605,3062.812928,-1071.984525,-9954.142016
5984.751168,1186.840010,1607.976787,-10068.997501
5984.753731,3101.098090,-3215.953574,-10068.997501
5984.756295,-957.129040,-2067.398726,-9513.862658
5984.758858,3407.379382,-2411.965181,-10624.132344
5984.761421,-1684.547110,6125.625856,-8958.727814
5984.763984,2660.818731,-4919.643266,-11083.554283
5984.766547,995.414202,4862.215523,-8633.303941
5984.769111,-1990.828403,2775.674216,-7618.747158
5984.771674,2029.113565,-6623.332957,-11160.124606
5984.774237,-3637.090352,6278.766502,-9360.722011
5984.776800,1627.119368,210.568389,-10470.991698
5984.779363,114.855485,2048.256146,-8671.589102
5984.781927,-3024.527766,3866.801322,-9150.153622
5984.784490,765.703232,-4651.647134,-11160.124606
5984.787053,-248.853550,4153.940034,-9303.294269
5984.789616,-95.712904,631.705166,-10528.419440
5984.792179,-344.566454,2450.250342,-9456.434915
5984.794743,19.142581,2507.678085,-9207.581365
5984.797306,746.560651,-803.988394,-10202.995566
5984.799871,19.142581,2431.107762,-9533.005238
5984.802437,-1339.980656,2220.539373,-10183.852986
5984.805002,823.130974,153.140646,-10011.569758
5984.807568,-4843.072942,6297.909083,-8422.735552
5984.810133,-2201.396792,363.709035,-10317.851051
5984.812699,2967.100024,95.712904,-10394.421374
5984.815265,-1588.834206,8499.305875,-8633.303941
5984.817830,784.845813,-4153.940034,-10700.702667
5984.820396,1512.263883,-3924.229064,-9647.860723
5984.822961,-1990.828403,8729.016845,-8001.598774
5984.825527,2258.824534,-9801.001370,-12461.820101
5984.828092,2086.541307,1435.693560,-9609.575562
5984.830658,2411.965181,-153.140646,-9456.434915
5984.833223,-650.847747,-114.855485,-9399.007173
5984.835789,1359.123237,4000.799387,-9284.151688
5984.838354,1933.400661,-3924.229064,-10662.417506
5984.840920,1971.685822,-4804.787781,-11332.407834
5984.843485,497.707101,1186.840010,-9762.716208
5984.846051,899.701298,-1378.265818,-9628.718142
5984.848616,1627.119368,1435.693560,-9207.581365
5984.851182,669.990328,133.998066,-10356.136213
5984.853747,1091.127106,1378.265818,-9877.571693
5984.856313,1875.972918,421.136778,-9877.571693
5984.858878,2201.396792,-1397.408398,-9667.003304
5984.861444,2335.394858,133.998066,-9150.153622
5984.864010,2182.254211,1110.269686,-10145.567824
5984.866575,2603.390989,-344.566454,-9552.147819
5984.869141,-1014.556782,-57.427742,-9226.723946
5984.871706,2986.242605,-6029.912952,-11408.978157
5984.874272,-631.705166,5915.057467,-8499.305875
5984.876837,-1569.691626,-2124.826469,-10719.845248
5984.879403,2526.820666,-6853.043926,-11408.978157
5984.881968,-899.701298,10758.130410,-7331.608446
5984.884534,-95.712904,-880.558717,-10375.278794
5984.887099,-2660.818731,2871.387120,-9896.714274
5984.889665,1205.982590,918.843878,-10107.282662
5984.892230,1186.840010,-1301.695494,-9571.290400
5984.894796,-3541.377448,6699.903280,-9016.155557
5984.897361,497.707101,-2239.681954,-10777.272990
5984.899927,765.703232,2009.970984,-9456.434915
5984.902494,-229.710970,3196.810994,-9628.718142
5984.905061,0.000000,-1550.549045,-10317.851051
5984.907628,-210.568389,3694.518094,-8843.872330
5984.910195,-421.136778,-344.566454,-10509.276859
5984.912762,-19.142581,1339.980656,-9628.718142
5984.915329,-382.851616,3828.516160,-9456.434915
5984.917896,-2277.967115,-937.986459,-10566.704602
5984.920463,-2833.101958,3637.090352,-9016.155557
5984.923029,784.845813,6527.620053,-9303.294269
5984.925596,-2220.539373,6604.190376,-8920.442653
5984.928163,3522.234867,-4862.215523,-11006.983960
5984.930730,-1244.267752,6604.190376,-8461.020714
5984.933297,-1799.402595,-4575.076811,-10643.274925
5984.935864,3139.383251,-4153.940034,-10624.132344
5984.938431,-823.130974,9341.579430,-8212.167163
5984.940998,4862.215523,-6987.041992,-11485.548480
5984.943565,-229.710970,2813.959378,-8939.585234
5984.946132,-784.845813,-2450.250342,-10222.138147
5984.948699,3943.371645,-3043.670347,-10356.136213
5984.951266,1416.550979,4383.651003,-8786.444587
5984.953833,1339.980656,440.279358,-9992.427178
5984.956400,1703.689691,-421.136778,-9533.005238
5984.958967,1225.125171,1052.841944,-9437.292334
5984.961534,784.845813,-1627.119368,-10279.565890
5984.964101,325.423874,1952.543242,-9820.143950
5984.966668,1818.545176,210.568389,-9934.999435
5984.969235,1990.828403,-1071.984525,-9647.860723
5984.971802,2545.963246,-593.420005,-9705.288466
5984.974369,2967.100024,-76.570323,-10222.138147
5984.976936,3101.098090,-1550.549045,-9877.571693
5984.979502,-478.564520,-2373.680019,-10068.997501
5984.982069,2890.529701,-3560.520029,-10796.415571
5984.984636,-1856.830338,6221.338760,-8767.302006
5984.987203,1033.699363,-4651.647134,-11045.269122
5984.989770,2239.681954,4115.654872,-9073.583299
5984.992337,-1856.830338,6049.055533,-9073.583299
5984.994904,2450.250342,-6393.621987,-11236.694930
5984.997471,-3101.098090,8346.165229,-8135.596840
5985.000038,1148.554848,-114.855485,-10624.132344
5985.002605,382.851616,1473.978722,-8882.157491
5985.005173,-3292.523898,4728.217458,-8997.012976
5985.007742,746.560651,-4268.795518,-11064.411702
5985.010310,-593.420005,4421.936165,-8901.300072
5985.012878,172.283227,401.994197,-10451.849117
5985.015447,229.710970,957.129040,-9858.429112
5985.018015,172.283227,1990.828403,-9418.149754
5985.020584,-57.427742,-57.427742,-9877.571693
5985.023152,57.427742,918.843878,-9877.571693
5985.025720,344.566454,3503.092286,-9552.147819
5985.028289,-3637.090352,784.845813,-10164.710405
5985.030857,-2679.961312,1875.972918,-9781.858789
5985.033425,918.843878,6795.616184,-9016.155557
5985.035994,-976.271621,4115.654872,-9399.007173
5985.038562,2718.246474,-2967.100024,-10738.987829
5985.041130,-3943.371645,6163.911018,-8556.733618
5985.043699,1435.693560,-8039.883936,-11447.263318
5985.046267,3905.086483,-8595.018779,-11294.122672
5985.048835,-1052.841944,9915.856854,-8135.596840
5985.051404,4996.213589,-5838.487144,-11064.411702
5985.053972,-478.564520,2105.683888,-8882.157491
5985.056540,-612.562586,-1454.836141,-10260.423309
5985.059109,3981.656806,-4326.223261,-10758.130410
5985.061677,1339.980656,6833.901346,-8575.876198
5985.064245,1875.972918,-1761.117434,-10107.282662
5985.066814,669.990328,478.564520,-9437.292334
5985.069382,842.273555,-1282.552914,-10088.140082
5985.071950,1761.117434,-1129.412267,-10394.421374
5985.074519,344.566454,1837.687757,-9418.149754
5985.077087,1569.691626,287.138712,-9973.284597
5985.079655,2526.820666,-1186.840010,-9858.429112
5985.082224,746.560651,-133.998066,-9360.722011
5985.084792,3981.656806,-2086.541307,-10202.995566
5985.087361,2679.961312,133.998066,-9705.288466
5985.089929,-459.421939,-1205.982590,-9954.142016
5985.092497,2909.672282,-4498.506488,-10738.987829
5985.095066,1933.400661,2986.242605,-9475.577496
5985.097634,-1205.982590,2009.970984,-9858.429112
5985.100202,3158.525832,-5838.487144,-11140.982026
5985.102771,-2871.387120,12098.111066,-7274.180704
5985.105339,574.277424,-2411.965181,-10624.132344
5985.107909,-3101.098090,3522.234867,-9896.714274
5985.110478,708.275490,325.423874,-10509.276859
5985.113048,746.560651,-172.283227,-9265.009107
5985.115617,-3713.660675,5513.063270,-8997.012976
5985.118187,880.558717,-3215.953574,-11045.269122
5985.120757,421.136778,1703.689691,-9418.149754
5985.123326,-133.998066,1933.400661,-9839.286531
5985.125896,-76.570323,-210.568389,-9992.427178
5985.128466,172.283227,1761.117434,-9092.725880
5985.131035,-765.703232,708.275490,-9992.427178
5985.133605,0.000000,669.990328,-10183.852986
5985.136174,-363.709035,2335.394858,-9743.573627
5985.138744,-4307.080680,3732.803256,-9379.864592
5985.141314,-3062.812928,2124.826469,-9915.856854
5985.143883,1493.121302,421.136778,-10336.993632
5985.146453,1071.984525,4287.938099,-9858.429112
5985.149023,-1397.408398,937.986459,-9705.288466
5985.151592,1493.121302,-2584.248408,-9552.147819
5985.154162,-2105.683888,7369.893608,-8097.311678
5985.156731,2488.535504,-10164.710405,-12614.960747
5985.159301,1818.545176,2469.392923,-9437.292334
5985.161871,2947.957443,-1033.699363,-9954.142016
5985.164440,-689.132909,842.273555,-9016.155557
5985.167010,363.709035,3866.801322,-9131.011042
5985.169580,1933.400661,229.710970,-10126.425243
5985.172149,2450.250342,-4134.797453,-10930.413637
5985.174719,210.568389,1512.263883,-9533.005238
5985.177288,1339.980656,-1952.543242,-9628.718142
5985.179858,1818.545176,1971.685822,-9111.868461
5985.182428,440.279358,-191.425808,-10432.706536
5985.184997,1588.834206,1205.982590,-9628.718142
5985.187567,1225.125171,1110.269686,-9915.856854
5985.190136,2545.963246,-2507.678085,-9973.284597
5985.192706,3445.664544,-689.132909,-9245.866526
5985.195276,3292.523898,-38.285162,-9934.999435
5985.197845,-612.562586,-3407.379382,-10451.849117
5985.200415,3177.668413,-3043.670347,-10260.423309
5985.202985,-2297.109696,5857.629725,-8805.587168
5985.205554,1263.410333,-5321.637462,-10815.558152
5985.208124,2450.250342,5283.352301,-9016.155557
5985.210695,-1741.974853,5264.209720,-9322.436850
5985.213265,1818.545176,-6106.483275,-11351.550414
5985.215836,-3828.516160,5187.639397,-9169.296203
5985.218407,1033.699363,-38.285162,-10681.560086
5985.220977,229.710970,1646.261949,-9150.153622
5985.223548,-2335.394858,3656.232933,-9073.583299
5985.226119,555.134843,-2794.816797,-10968.698798
5985.228690,-880.558717,5072.783912,-8939.585234
5985.231260,-76.570323,-459.421939,-10490.134278
5985.233831,727.418070,1339.980656,-9820.143950
5985.236402,19.142581,1588.834206,-9590.432981
5985.238973,-784.845813,459.421939,-9762.716208
5985.241543,-401.994197,1569.691626,-9762.716208
5985.244114,-38.285162,1033.699363,-9820.143950
5985.246685,-3541.377448,3751.945837,-9475.577496
5985.249255,-3349.951640,4402.793584,-9686.145885
5985.251826,1684.547110,-612.562586,-10298.708470
5985.254397,-191.425808,6451.049730,-9035.298138
5985.256968,153.140646,-1225.125171,-10279.565890
5985.259538,1684.547110,937.986459,-8958.727814
5985.262109,-2105.683888,4555.934230,-8767.302006
5985.264680,-306.281293,-6393.621987,-11485.548480
5985.267251,1665.404530,-995.414202,-9628.718142
5985.269821,3215.953574,-689.132909,-10222.138147
5985.272392,-191.425808,-248.853550,-9590.432981
5985.274963,1244.267752,5015.356170,-8729.016845
5985.277533,2565.105827,-4115.654872,-10949.556218
5985.280104,1569.691626,-1435.693560,-10183.852986
5985.282675,248.853550,1110.269686,-10068.997501
5985.285246,1071.984525,-765.703232,-9399.007173
5985.287816,1244.267752,1071.984525,-9475.577496
5985.290387,823.130974,689.132909,-10490.134278
5985.292958,1607.976787,287.138712,-9762.716208
5985.295529,1703.689691,861.416136,-9418.149754
5985.298099,593.420005,-1531.406464,-10202.995566
5985.300670,4862.215523,-1282.552914,-9954.142016
5985.303241,3388.236802,957.129040,-9418.149754
5985.305811,-1780.260014,861.416136,-9475.577496
5985.308382,1971.685822,-5149.354235,-10509.276859
5985.310953,2124.826469,3081.955509,-9647.860723
5985.313524,-1167.697429,995.414202,-10260.423309
5985.316095,3005.385186,-4460.221326,-11045.269122
5985.318666,-2947.957443,12576.675586,-7101.897477
5985.321237,727.418070,-3503.092286,-10834.700733
5985.323808,-3637.090352,4153.940034,-9475.577496
5985.326379,574.277424,1416.550979,-10413.563955
5985.328951,1761.117434,-2067.398726,-10222.138147
5985.331522,-4153.940034,5532.205851,-8614.161360
5985.334093,306.281293,-1875.972918,-10681.560086
5985.336664,248.853550,3426.521963,-9035.298138
5985.339235,248.853550,2048.256146,-9915.856854
5985.341806,-172.283227,19.142581,-10145.567824
5985.344377,-363.709035,1339.980656,-9169.296203
5985.346948,555.134843,727.418070,-9724.431046
5985.349519,516.849682,1339.980656,-9954.142016
5985.352090,-3790.230998,4383.651003,-9092.725880
5985.354661,-3120.240670,1569.691626,-10049.854920
5985.357233,2239.681954,2622.533570,-9552.147819
5985.359804,-2220.539373,8039.883936,-8575.876198
5985.362375,2507.678085,-3924.229064,-11102.696864
5985.364946,-2163.111630,5857.629725,-8556.733618
5985.367517,191.425808,-5761.916821,-11064.411702
5985.370088,3445.664544,-3120.240670,-10088.140082
5985.372659,-803.988394,7637.889739,-8269.594906
5985.375230,4307.080680,-3388.236802,-10547.562021
5985.377801,-267.996131,1818.545176,-8882.157491
5985.380372,-229.710970,-555.134843,-10317.851051
5985.382943,4402.793584,-4747.360038,-10796.415571
5985.385515,1378.265818,5436.492947,-8690.731683
5985.388086,1167.697429,-1780.260014,-10375.278794
5985.390657,1033.699363,708.275490,-9475.577496
5985.393228,363.709035,267.996131,-9954.142016
5985.395799,1607.976787,-995.414202,-10145.567824
5985.398370,1531.406464,1856.830338,-9322.436850
5985.400941,1397.408398,95.712904,-10145.567824
5985.403512,669.990328,-2220.539373,-9973.284597
5985.406083,3713.660675,1033.699363,-9226.723946
5985.408654,3330.809059,-1512.263883,-10030.712339
5985.411225,-229.710970,-4307.080680,-10356.136213
5985.413797,2909.672282,-2603.390989,-10394.421374
5985.416368,-2584.248408,5761.916821,-8690.731683
5985.418940,2565.105827,-5685.346498,-11236.694930
5985.421511,1703.689691,6776.473603,-8441.878133
5985.424083,-3617.947771,12251.251712,-7618.747158
5985.426654,2239.681954,-7006.184573,-11351.550414
5985.429226,-3656.232933,6202.196179,-8977.870395
5985.431797,669.990328,478.564520,-10432.706536
5985.434369,210.568389,1225.125171,-9303.294269
5985.436940,-1052.841944,2660.818731,-9226.723946
5985.439512,-478.564520,-459.421939,-10202.995566
5985.442083,-1244.267752,3426.521963,-9513.862658
5985.444655,57.427742,-114.855485,-10202.995566
5985.447226,918.843878,76.570323,-9877.571693
5985.449798,612.562586,1454.836141,-9494.720077
5985.452369,-842.273555,1014.556782,-9896.714274
5985.454941,727.418070,612.562586,-10030.712339
5985.457512,-3330.809059,3828.516160,-9399.007173
5985.460084,-2986.242605,1646.261949,-9801.001370
5985.462655,1301.695494,3617.947771,-9628.718142
5985.465227,-2411.965181,7676.174901,-8690.731683
5985.467798,2699.103893,-2737.389054,-11102.696864
5985.470370,-4249.652938,4900.500685,-8920.442653
5985.472942,-631.705166,-3598.805190,-10719.845248
5985.475513,3196.810994,-6317.051664,-10624.132344
5985.478085,-1091.127106,8250.452325,-8288.737486
5985.480656,4268.795518,-5398.207786,-11389.835576
5985.483228,76.570323,1780.260014,-9131.011042
5985.485799,-325.423874,-2450.250342,-10394.421374
5985.488371,3732.803256,-1110.269686,-10030.712339
5985.490942,1263.410333,5379.065205,-8786.444587
5985.493514,1512.263883,-3579.662610,-10432.706536
5985.496085,-153.140646,937.986459,-9475.577496
5985.498657,1799.402595,363.709035,-9667.003304
5985.501229,650.847747,-95.712904,-10107.282662
5985.503800,1110.269686,1186.840010,-9820.143950
5985.506372,957.129040,382.851616,-9705.288466
5985.508944,746.560651,-1129.412267,-9801.001370
5985.511515,4689.932296,-937.986459,-9934.999435
5985.514087,3273.381317,-440.279358,-9571.290400
5985.516659,-325.423874,-3235.096155,-10413.563955
5985.519230,2105.683888,-6029.912952,-10643.274925
5985.521802,325.423874,3905.086483,-9111.868461
5985.524374,-1531.406464,-976.271621,-10528.419440
5985.526946,3196.810994,-2794.816797,-10585.847182
5985.529517,-3981.656806,13323.236237,-7312.465866
5985.532089,1684.547110,-5493.920690,-11179.267187
5985.534661,-3905.086483,4728.217458,-9322.436850
5985.537232,669.990328,1339.980656,-10298.708470
5985.539804,459.421939,325.423874,-9590.432981
5985.542376,-1359.123237,3062.812928,-9207.581365
5985.544947,689.132909,-727.418070,-10681.560086
5985.547519,-287.138712,4000.799387,-9150.153622
5985.550091,382.851616,957.129040,-10030.712339
5985.552662,76.570323,-114.855485,-9896.714274
5985.555234,459.421939,1531.406464,-9399.007173
5985.557806,19.142581,497.707101,-10107.282662
5985.560378,-344.566454,593.420005,-9896.714274
5985.562949,-3713.660675,4307.080680,-9245.866526
5985.565521,-3120.240670,3311.666478,-9475.577496
5985.568093,2871.387120,-1493.121302,-10470.991698
5985.570664,-1091.127106,6776.473603,-9207.581365
5985.573236,-382.851616,-76.570323,-10164.710405
5985.575808,1588.834206,727.418070,-9150.153622
5985.578379,-957.129040,4632.504554,-8652.446522
5985.580951,5819.344563,-12117.253646,-12308.679454
5985.583523,-574.277424,5015.356170,-8997.012976
5985.586095,3522.234867,-1990.828403,-10394.421374
5985.588666,19.142581,2029.113565,-8748.159426
5985.591238,248.853550,1473.978722,-10107.282662
5985.593810,4211.367776,-4670.789715,-10719.845248
5985.596381,1359.123237,593.420005,-9705.288466
5985.598953,-555.134843,976.271621,-10317.851051
5985.601525,1129.412267,-1301.695494,-9533.005238
5985.604097,1416.550979,3349.951640,-9188.438784
5985.606669,516.849682,-2009.970984,-10777.272990
5985.609241,2431.107762,1473.978722,-9016.155557
5985.611813,1205.982590,708.275490,-9992.427178
5985.614385,1416.550979,-1320.838075,-10222.138147
5985.616957,4747.360038,-1818.545176,-9303.294269
5985.619529,593.420005,-2871.387120,-10222.138147
5985.622101,2641.676150,-4421.936165,-10528.419440
5985.624673,-2124.826469,4613.361973,-8441.878133
5985.627245,3981.656806,-4613.361973,-11255.837510
5985.629817,-2220.539373,8422.735552,-8154.739421
5985.632389,-1761.117434,-1895.115499,-10375.278794
5985.634961,1990.828403,-325.423874,-10222.138147
5985.637533,-1225.125171,6776.473603,-8805.587168
5985.640105,-3503.092286,2143.969050,-9686.145885
5985.642677,612.562586,2009.970984,-9686.145885
5985.645249,1052.841944,19.142581,-9934.999435
5985.647821,-2316.252277,1722.832272,-9513.862658
5985.650393,-708.275490,210.568389,-10643.274925
5985.652965,708.275490,2411.965181,-9628.718142
5985.655537,306.281293,1799.402595,-9628.718142
5985.658109,-57.427742,0.000000,-10145.567824
5985.660681,0.000000,1856.830338,-9169.296203
5985.663253,516.849682,306.281293,-10317.851051
5985.665825,-3101.098090,3311.666478,-9590.432981
5985.668397,-3771.088418,4134.797453,-9399.007173
5985.670969,2794.816797,-823.130974,-10432.706536
5985.673541,-2258.824534,9877.571693,-8097.311678
5985.676113,1454.836141,-2277.967115,-10796.415571
5985.678685,-1320.838075,5130.211654,-8480.163294
5985.681257,-153.140646,-3560.520029,-10585.847182
5985.683829,4345.365842,-7331.608446,-11006.983960
5985.686401,-1627.119368,8767.302006,-7848.458128
5985.688973,3617.947771,-2316.252277,-10145.567824
5985.691545,-229.710970,2335.394858,-8633.303941
5985.694117,880.558717,689.132909,-10183.852986
5985.696689,5130.211654,-5091.926493,-10987.841379
5985.699261,803.988394,4766.502619,-8346.165229
5985.701833,631.705166,-2488.535504,-10528.419440
5985.704405,516.849682,593.420005,-9513.862658
5985.706977,1359.123237,612.562586,-9858.429112
5985.709548,1148.554848,210.568389,-10202.995566
5985.712120,880.558717,746.560651,-9858.429112
5985.714692,1091.127106,-95.712904,-9839.286531
5985.717264,3254.238736,-535.992262,-9781.858789
5985.719835,4000.799387,-1512.263883,-10011.569758
5985.722407,765.703232,-4211.367776,-10356.136213
5985.724979,2947.957443,-5781.059402,-10777.272990
5985.727551,-2124.826469,6585.047795,-8307.880067
5985.730123,1167.697429,-5570.491013,-11485.548480
5985.732694,2507.678085,4919.643266,-9131.011042
5985.735266,-2124.826469,6929.614250,-9054.440718
5985.737838,2220.539373,-6068.198114,-11179.267187
5985.740410,-2354.537438,8288.737486,-8059.026517
5985.742981,-2277.967115,1531.406464,-10126.425243
5985.745553,363.709035,1703.689691,-9820.143950
5985.748125,1148.554848,-937.986459,-9341.579430
5985.750697,-1895.115499,1320.838075,-9820.143950
5985.753268,-401.994197,899.701298,-9973.284597
5985.755840,746.560651,2009.970984,-9820.143950
5985.758412,248.853550,267.996131,-9915.856854
5985.760984,229.710970,880.558717,-9399.007173
5985.763556,957.129040,1416.550979,-9686.145885
5985.766127,-1971.685822,306.281293,-10432.706536
5985.768699,-2584.248408,2526.820666,-9552.147819
5985.771271,-3158.525832,5800.201982,-9226.723946
5985.773843,-555.134843,1378.265818,-10088.140082
5985.776414,-689.132909,1531.406464,-10164.710405
5985.778986,-1052.841944,2431.107762,-9743.573627
5985.781558,2105.683888,-2718.246474,-9705.288466
5985.784130,-765.703232,7523.034254,-7944.171032
5985.786701,3541.377448,-9934.999435,-12423.534939
5985.789273,172.283227,765.703232,-9456.434915
5985.791845,2220.539373,-1473.978722,-10030.712339
5985.794417,-76.570323,1952.543242,-8997.012976
5985.796989,1014.556782,3407.379382,-9513.862658
5985.799560,4402.793584,-2182.254211,-10317.851051
5985.802132,1186.840010,191.425808,-9533.005238
5985.804704,-1129.412267,-401.994197,-10202.995566
5985.807276,1512.263883,-842.273555,-9896.714274
5985.809847,1512.263883,2871.387120,-9303.294269
5985.812419,1416.550979,-803.988394,-10432.706536
5985.814991,1167.697429,1014.556782,-9169.296203
5985.817563,669.990328,1569.691626,-9609.575562
5985.820135,4728.217458,-3751.945837,-10643.274925
5985.822706,4479.363907,-2239.681954,-9647.860723
5985.825278,-516.849682,2622.533570,-9379.864592
5985.827850,995.414202,-6221.338760,-10624.132344
5985.830422,1473.978722,1799.402595,-9418.149754
5985.832993,-899.701298,2679.961312,-10298.708470
5985.835565,3120.240670,-5245.067139,-11294.122672
5985.838137,-3330.809059,14261.222696,-6853.043926
5985.840709,1225.125171,-3024.527766,-10681.560086
5985.843281,-4173.082614,2239.681954,-9877.571693
5985.845852,76.570323,2086.541307,-10375.278794
5985.848424,1646.261949,-1856.830338,-10298.708470
5985.850996,-2201.396792,2603.390989,-9054.440718
5985.853568,-478.564520,2431.107762,-9667.003304
5985.856140,-612.562586,2813.959378,-9513.862658
5985.858711,133.998066,1167.697429,-9992.427178
5985.861283,727.418070,-1531.406464,-10164.710405
5985.863855,-57.427742,2450.250342,-9226.723946
5985.866427,-210.568389,-918.843878,-10413.563955
5985.868998,-2986.242605,3388.236802,-9533.005238
5985.871570,-3560.520029,4728.217458,-9092.725880
5985.874142,2526.820666,-2507.678085,-10815.558152
5985.876714,-2354.537438,9111.868461,-8365.307810
5985.879286,957.129040,-765.703232,-10547.562021
5985.881857,-1588.834206,4881.358104,-8346.165229
5985.884429,593.420005,-4268.795518,-10777.272990
5985.887001,4498.506488,-6374.479406,-10892.128475
5985.889573,-1435.693560,8078.169098,-7867.600709
5985.892145,2679.961312,-5838.487144,-11447.263318
5985.894716,-76.570323,2335.394858,-8403.592971
5985.897288,1397.408398,440.279358,-10241.280728
5985.899860,4383.651003,-3771.088418,-10949.556218
5985.902432,574.277424,4153.940034,-8575.876198
5985.905004,631.705166,-3024.527766,-10719.845248
5985.907575,-248.853550,1301.695494,-9552.147819
5985.910147,1091.127106,287.138712,-9801.001370
5985.912719,2220.539373,861.416136,-9858.429112
5985.915291,574.277424,1014.556782,-10183.852986
5985.917863,-57.427742,-267.996131,-9801.001370
5985.920434,4881.358104,-3311.666478,-10298.708470
5985.923006,4555.934230,-401.994197,-9781.858789
5985.925578,-1646.261949,1359.123237,-9475.577496
5985.928150,3560.520029,-8154.739421,-11140.982026
5985.930722,-1435.693560,5647.061336,-8595.018779
5985.933293,-1416.550979,-3464.807125,-11160.124606
5985.935865,2526.820666,421.136778,-10317.851051
5985.938437,-2603.390989,11791.829773,-7714.460062
5985.941009,2718.246474,-6738.188442,-11370.692995
5985.943581,-3981.656806,2048.256146,-9801.001370
5985.946153,191.425808,1971.685822,-10317.851051
5985.948724,497.707101,-440.279358,-9801.001370
5985.951296,-344.566454,2813.959378,-8901.300072
5985.953868,-1722.832272,1875.972918,-10011.569758
5985.956440,-574.277424,95.712904,-10088.140082
5985.959012,1339.980656,3101.098090,-9494.720077
5985.961583,-172.283227,-459.421939,-9877.571693
5985.964155,38.285162,1244.267752,-9284.151688
5985.966727,363.709035,784.845813,-9992.427178
5985.969299,-3024.527766,3464.807125,-9686.145885
5985.971871,-3617.947771,3311.666478,-9303.294269
5985.974442,2641.676150,-1052.841944,-10049.854920
5985.977014,-2316.252277,9322.436850,-8614.161360
5985.979586,1148.554848,-1282.552914,-10451.849117
5985.982158,-2373.680019,5781.059402,-8288.737486
5985.984730,631.705166,-4862.215523,-10911.271056
5985.987302,4575.076811,-5455.635528,-10566.704602
5985.989873,-937.986459,7676.174901,-8078.169098
5985.992445,2756.531635,-3369.094221,-10566.704602
5985.995017,76.570323,2450.250342,-8518.448456
5985.997589,1186.840010,287.138712,-10490.134278
5986.000161,4134.797453,-3388.236802,-10949.556218
5986.002732,1454.836141,3905.086483,-8480.163294
5986.005304,612.562586,-2718.246474,-10643.274925
5986.007876,535.992262,842.273555,-9743.573627
5986.010448,401.994197,669.990328,-9896.714274
5986.013019,1225.125171,210.568389,-10107.282662
5986.015591,708.275490,1052.841944,-9475.577496
5986.018162,1569.691626,976.271621,-9724.431046
5986.020733,4383.651003,-2909.672282,-10375.278794
5986.023305,4709.074877,-2756.531635,-10183.852986
5986.025876,-880.558717,2947.957443,-9131.011042
5986.028448,2009.970984,-6929.614250,-10643.274925
5986.031019,937.986459,1895.115499,-9418.149754
5986.033590,-861.416136,1588.834206,-10260.423309
5986.036162,2641.676150,-4249.652938,-11351.550414
5986.038733,-3675.375514,14356.935600,-8097.311678
5986.041304,19.142581,3349.951640,-9513.862658
5986.043876,-3464.807125,976.271621,-9475.577496
5986.046447,-382.851616,1473.978722,-10375.278794
5986.049019,1110.269686,-784.845813,-9954.142016
5986.051590,-1014.556782,2565.105827,-9035.298138
5986.054161,-1110.269686,3024.527766,-9724.431046
5986.056733,57.427742,880.558717,-9801.001370
5986.059304,516.849682,2488.535504,-9552.147819
5986.061876,497.707101,-1569.691626,-10317.851051
5986.064447,1665.404530,2201.396792,-9265.009107
5986.067018,-1971.685822,1722.832272,-10145.567824
5986.069590,-3081.955509,1971.685822,-9973.284597
5986.072161,-1550.549045,5532.205851,-8518.448456
5986.074733,-76.570323,1244.267752,-10279.565890
5986.077304,-650.847747,2316.252277,-10624.132344
5986.079875,-708.275490,2699.103893,-9667.003304
5986.082447,1588.834206,344.566454,-9379.864592
5986.085018,-880.558717,5130.211654,-8193.024582
5986.087589,5800.201982,-11408.978157,-10681.560086
5986.090161,803.988394,-3541.377448,-10624.132344
5986.092732,1856.830338,-1014.556782,-10164.710405
5986.095304,459.421939,363.709035,-9245.866526
5986.097875,957.129040,4134.797453,-9092.725880
5986.100446,5551.348432,-3254.238736,-10241.280728
5986.103018,248.853550,2411.965181,-8882.157491
5986.105589,-19.142581,-2718.246474,-11045.269122
5986.108161,95.712904,765.703232,-9533.005238
5986.110732,1588.834206,1473.978722,-9647.860723
5986.113303,842.273555,-937.986459,-10317.851051
5986.115873,-421.136778,1244.267752,-9418.149754
5986.118444,4651.647134,-1129.412267,-10030.712339
5986.121015,3943.371645,-1339.980656,-10030.712339
5986.123586,-516.849682,-1799.402595,-10088.140082
5986.126157,3866.801322,-6297.909083,-11102.696864
5986.128728,-2086.541307,5513.063270,-8154.739421
5986.131299,3101.098090,-5723.631659,-11466.405899
5986.133870,38.285162,7484.749093,-8863.014910
5986.136441,-2775.674216,11734.402030,-8020.741355
5986.139013,2890.529701,-6527.620053,-11485.548480
5986.141584,-2507.678085,6680.760699,-8327.022648
5986.144155,-1933.400661,2143.969050,-10202.995566
5986.146726,765.703232,-95.712904,-10202.995566
5986.149297,497.707101,3024.527766,-8805.587168
5986.151868,-2258.824534,1052.841944,-10068.997501
5986.154439,-440.279358,-76.570323,-10011.569758
5986.157010,842.273555,3885.943902,-9245.866526
5986.159581,516.849682,-650.847747,-9934.999435
5986.162152,574.277424,1531.406464,-9092.725880
5986.164723,-957.129040,2182.254211,-9801.001370
5986.167294,-2890.529701,1933.400661,-10030.712339
5986.169865,-3885.943902,3847.658741,-9245.866526
5986.172436,1703.689691,210.568389,-9915.856854
5986.175007,-689.132909,3139.383251,-10202.995566
5986.177578,-784.845813,1990.828403,-9743.573627
5986.180149,1320.838075,823.130974,-9169.296203
5986.182720,-555.134843,4268.795518,-8384.450390
5986.185291,5723.631659,-11006.983960,-12289.536874
5986.187862,-133.998066,2967.100024,-9628.718142
5986.190433,2565.105827,-2737.389054,-10260.423309
5986.193004,133.998066,2354.537438,-8595.018779
5986.195575,1225.125171,1569.691626,-10088.140082
5986.198146,5627.918755,-3101.098090,-10547.562021
5986.200717,95.712904,2182.254211,-9016.155557
5986.203289,-57.427742,-2392.822600,-10758.130410
5986.205860,650.847747,421.136778,-9781.858789
5986.208431,1225.125171,2067.398726,-9705.288466
5986.211002,1129.412267,-1225.125171,-10164.710405
5986.213573,-133.998066,1856.830338,-9111.868461
5986.216144,4173.082614,-1493.121302,-10336.993632
5986.218715,3847.658741,-1033.699363,-9820.143950
5986.221285,-440.279358,1933.400661,-9245.866526
5986.223856,3866.801322,-8652.446522,-11370.692995
5986.226427,-746.560651,4919.643266,-8231.309744
5986.228998,-325.423874,-4345.365842,-11370.692995
5986.231569,1569.691626,3158.525832,-9475.577496
5986.234140,-2258.824534,9954.142016,-8250.452325
5986.236711,2871.387120,-6221.338760,-11485.548480
5986.239281,-1761.117434,7255.038123,-8269.594906
5986.241852,-2833.101958,2450.250342,-9934.999435
5986.244423,555.134843,172.283227,-10107.282662
5986.246994,478.564520,2354.537438,-8997.012976
5986.249565,-1531.406464,861.416136,-10107.282662
5986.252136,-306.281293,1167.697429,-9992.427178
5986.254706,-191.425808,3885.943902,-9341.579430
5986.257277,612.562586,-1818.545176,-10241.280728
5986.259848,784.845813,1473.978722,-9303.294269
5986.262419,-995.414202,2277.967115,-10107.282662
5986.264990,-2813.959378,1493.121302,-10298.708470
5986.267561,-3254.238736,4632.504554,-8958.727814
5986.270132,440.279358,363.709035,-9303.294269
5986.272702,-76.570323,555.134843,-10834.700733
5986.275273,-1761.117434,2890.529701,-9590.432981
5986.277844,2526.820666,-2928.814862,-9992.427178
5986.280415,114.855485,6623.332957,-7637.889739
5986.282986,2450.250342,-8556.733618,-11772.687192
5986.285557,172.283227,-459.421939,-9992.427178
5986.288128,2163.111630,-2143.969050,-10336.993632
5986.290698,325.423874,1741.974853,-8843.872330
5986.293269,1397.408398,3101.098090,-9475.577496
5986.295840,5187.639397,-1416.550979,-10030.712339
5986.298411,401.994197,1665.404530,-8977.870395
5986.300982,-95.712904,-2833.101958,-10700.702667
5986.303553,1052.841944,1071.984525,-9973.284597
5986.306124,1780.260014,1512.263883,-9686.145885
5986.308694,248.853550,-1033.699363,-9992.427178
5986.311265,1569.691626,2009.970984,-9226.723946
5986.313836,4287.938099,-1607.976787,-10336.993632
5986.316407,4307.080680,-3062.812928,-10260.423309
5986.318978,-1091.127106,3024.527766,-9284.151688
5986.321548,1952.543242,-3101.098090,-10030.712339
5986.324119,1473.978722,-191.425808,-9686.145885
5986.326689,-1014.556782,2584.248408,-10394.421374
5986.329260,1895.115499,-4632.504554,-11485.548480
5986.331830,-3101.098090,13016.954944,-7216.752962
5986.334401,1588.834206,-1244.267752,-10700.702667
5986.336971,-3637.090352,2947.957443,-9073.583299
5986.339542,-535.992262,2048.256146,-10394.421374
5986.342112,76.570323,-1033.699363,-10126.425243
5986.344683,-535.992262,1952.543242,-9150.153622
5986.347253,-1607.976787,2105.683888,-9992.427178
5986.349824,-57.427742,1646.261949,-9628.718142
5986.352394,-19.142581,2277.967115,-9475.577496
5986.354965,937.986459,-1588.834206,-10145.567824
5986.357535,-823.130974,2584.248408,-9169.296203
5986.360106,-631.705166,1148.554848,-10375.278794
5986.362676,-4211.367776,2928.814862,-9743.573627
5986.365247,861.416136,2220.539373,-9188.438784
5986.367817,-1914.258080,7867.600709,-8863.014910
5986.370388,1225.125171,-555.134843,-10892.128475
5986.372958,-2239.681954,5627.918755,-8422.735552
5986.375529,918.843878,-4996.213589,-10758.130410
5986.378099,4862.215523,-5474.778109,-10451.849117
5986.380670,-1569.691626,7599.604578,-7925.028451
5986.383240,2239.681954,-6546.762634,-11562.118803
5986.385811,1741.974853,880.558717,-9647.860723
5986.388381,1186.840010,-1550.549045,-10183.852986
5986.390952,1359.123237,1703.689691,-10566.704602
5986.393522,2067.398726,669.990328,-9092.725880
5986.396093,1225.125171,-267.996131,-9858.429112
5986.398663,976.271621,-114.855485,-10183.852986
5986.401234,-287.138712,2105.683888,-9647.860723
5986.403804,918.843878,-957.129040,-10183.852986
5986.406375,555.134843,1646.261949,-9379.864592
5986.408945,3541.377448,-2335.394858,-9801.001370
5986.411516,3751.945837,38.285162,-9954.142016
5986.414086,-114.855485,-1550.549045,-10585.847182
5986.416657,4230.510357,-9111.868461,-11045.269122
5986.419227,-861.416136,3828.516160,-8671.589102
5986.421798,76.570323,-5245.067139,-11370.692995
5986.424368,1205.982590,4019.941968,-9322.436850
5986.426938,-2565.105827,9475.577496,-8958.727814
5986.429508,2603.390989,-5915.057467,-11274.980091
5986.432078,-1320.838075,7752.745224,-7982.456194
5986.434648,-3235.096155,2660.818731,-10011.569758
5986.437218,-95.712904,287.138712,-10049.854920
5986.439788,823.130974,995.414202,-9207.581365
5986.442358,-478.564520,-880.558717,-10336.993632
5986.444928,-1225.125171,1875.972918,-9667.003304
5986.447498,-38.285162,3790.230998,-9552.147819
5986.450068,995.414202,-1454.836141,-9934.999435
5986.452638,-287.138712,1761.117434,-9092.725880
5986.455208,-535.992262,2009.970984,-10241.280728
5986.457778,-3330.809059,2909.672282,-10068.997501
5986.460348,-248.853550,3292.523898,-9016.155557
5986.462918,-2431.107762,4977.071008,-8614.161360
5986.465488,1933.400661,-842.273555,-11083.554283
5986.468058,-4039.084549,5264.209720,-9016.155557
5986.470628,3675.375514,-6623.332957,-10719.845248
5986.473198,4843.072942,1244.267752,-9111.868461
5986.475768,-727.418070,2488.535504,-8729.016845
5986.478338,1416.550979,-6508.477472,-11217.552349
5986.480908,2603.390989,287.138712,-9992.427178
5986.483478,1148.554848,-1148.554848,-10241.280728
5986.486048,1071.984525,3388.236802,-9092.725880
5986.488618,2967.100024,1071.984525,-9437.292334
5986.491188,1186.840010,1129.412267,-8786.444587
5986.493759,191.425808,-1359.123237,-10604.989763
5986.496329,497.707101,1071.984525,-10298.708470
5986.498899,1550.549045,0.000000,-9839.286531
5986.501469,267.996131,325.423874,-9820.143950
5986.504039,2871.387120,-1895.115499,-9609.575562
5986.506609,4517.649069,-363.709035,-9839.286531
5986.509179,-937.986459,-957.129040,-10585.847182
5986.511749,4173.082614,-7446.463931,-11083.554283
5986.514319,-172.283227,2565.105827,-8518.448456
5986.516889,229.710970,-4881.358104,-11676.974288
5986.519459,1416.550979,4460.221326,-9016.155557
5986.522029,-3081.955509,10604.989763,-8556.733618
5986.524599,2947.957443,-6642.475538,-11810.972354
5986.527168,-1282.552914,7771.887805,-7810.172966
5986.529738,-3541.377448,2545.963246,-9915.856854
5986.532308,-191.425808,287.138712,-9992.427178
5986.534877,1359.123237,1244.267752,-9686.145885
5986.537447,172.283227,-669.990328,-10202.995566
5986.540017,-1454.836141,2469.392923,-9571.290400
5986.542586,-363.709035,3637.090352,-9418.149754
5986.545156,1320.838075,-1167.697429,-9992.427178
5986.547726,-229.710970,1914.258080,-9188.438784
5986.550296,-1091.127106,1837.687757,-10126.425243
5986.552865,-3388.236802,3101.098090,-10164.710405
5986.555435,497.707101,1818.545176,-9169.296203
5986.558005,-1914.258080,7408.178770,-8633.303941
5986.560574,784.845813,-363.709035,-11026.126541
5986.563144,-1895.115499,5953.342629,-8671.589102
5986.565714,1071.984525,-4421.936165,-10624.132344
5986.568283,4689.932296,-5532.205851,-10298.708470
5986.570853,-1741.974853,6585.047795,-7886.743290
5986.573423,3235.096155,-3541.377448,-10796.415571
5986.575992,497.707101,1512.263883,-9073.583299
5986.578562,1607.976787,210.568389,-10279.565890
5986.581132,2067.398726,-1148.554848,-10413.563955
5986.583701,1895.115499,57.427742,-9322.436850
5986.586271,1282.552914,1071.984525,-9341.579430
5986.588841,-38.285162,-1186.840010,-10509.276859
5986.591410,440.279358,1397.408398,-9992.427178
5986.593980,1244.267752,-248.853550,-10068.997501
5986.596550,3464.807125,727.418070,-8882.157491
5986.599119,3330.809059,-1397.408398,-10030.712339
5986.601689,3330.809059,-3828.516160,-10796.415571
5986.604259,976.271621,2450.250342,-9265.009107
5986.606828,1837.687757,-3809.373579,-9667.003304
5986.609398,1646.261949,-1301.695494,-9590.432981
5986.611968,-899.701298,1856.830338,-10011.569758
5986.614538,1952.543242,-4498.506488,-11389.835576
5986.617107,-3388.236802,12978.669782,-7599.604578
5986.619677,1301.695494,-880.558717,-10145.567824
5986.622247,-2373.680019,1320.838075,-9245.866526
5986.624816,-650.847747,1703.689691,-10222.138147
5986.627386,191.425808,-689.132909,-10222.138147
5986.629955,-287.138712,1225.125171,-9399.007173
5986.632524,-133.998066,1339.980656,-10011.569758
5986.635093,-1186.840010,2507.678085,-9533.005238
5986.637662,229.710970,2239.681954,-9686.145885
5986.640231,401.994197,-689.132909,-10049.854920
5986.642800,-306.281293,2794.816797,-9284.151688
5986.645369,-2775.674216,2507.678085,-10317.851051
5986.647938,-823.130974,2737.389054,-9954.142016
5986.650507,-2373.680019,4326.223261,-8729.016845
5986.653076,-172.283227,2009.970984,-10356.136213
5986.655645,-1971.685822,2871.387120,-10088.140082
5986.658214,2737.389054,-1684.547110,-9896.714274
5986.660783,421.136778,6355.336826,-8231.309744
5986.663352,2431.107762,-9322.436850,-11810.972354
5986.665921,172.283227,-765.703232,-9954.142016
5986.668490,2507.678085,-1071.984525,-9954.142016
5986.671059,1531.406464,-210.568389,-9992.427178
5986.673628,650.847747,4230.510357,-8997.012976
5986.676197,4173.082614,-133.998066,-9934.999435
5986.678766,612.562586,-1186.840010,-9571.290400
5986.681335,823.130974,-1320.838075,-10126.425243
5986.683904,650.847747,995.414202,-10030.712339
5986.686473,1091.127106,1990.828403,-9820.143950
5986.689042,306.281293,-880.558717,-9877.571693
5986.691611,3062.812928,-918.843878,-9016.155557
5986.694180,5379.065205,-2928.814862,-10241.280728
5986.696749,-823.130974,3101.098090,-9686.145885
5986.699318,3426.521963,-8173.882002,-11179.267187
5986.701887,-344.566454,2029.113565,-8441.878133
5986.704456,306.281293,-5417.350366,-11255.837510
5986.707025,937.986459,3905.086483,-9303.294269
5986.709594,-2737.389054,9647.860723,-8690.731683
5986.712163,2565.105827,-5455.635528,-11581.261384
5986.714732,-1531.406464,7867.600709,-8001.598774
5986.717301,-1416.550979,2163.111630,-10145.567824
5986.719870,-440.279358,-1244.267752,-10298.708470
5986.722439,612.562586,2316.252277,-9092.725880
5986.725008,440.279358,-861.416136,-10375.278794
5986.727577,-1359.123237,1186.840010,-9839.286531
5986.730146,-478.564520,4479.363907,-9207.581365
5986.732714,574.277424,-784.845813,-10145.567824
5986.735283,-19.142581,1741.974853,-9399.007173
5986.737851,-2143.969050,2967.100024,-9743.573627
5986.740420,-3081.955509,1837.687757,-10356.136213
5986.742988,-1359.123237,2890.529701,-9188.438784
5986.745556,-1244.267752,3981.656806,-9552.147819
5986.748125,-382.851616,1607.976787,-10336.993632
5986.750693,2297.109696,3177.668413,-8977.870395
5986.753262,-172.283227,4039.084549,-8614.161360
5986.755830,5915.057467,-12806.386555,-12385.249778
5986.758398,-1148.554848,3407.379382,-9054.440718
5986.760967,3426.521963,-2526.820666,-10202.995566
5986.763535,880.558717,1435.693560,-9092.725880
5986.766104,1186.840010,4173.082614,-9418.149754
5986.768672,3426.521963,-1550.549045,-10317.851051
5986.771241,957.129040,-1780.260014,-9820.143950
5986.773809,363.709035,19.142581,-9762.716208
5986.776377,861.416136,191.425808,-9858.429112
5986.778946,344.566454,2507.678085,-9973.284597
5986.781514,937.986459,-803.988394,-10126.425243
5986.784083,2641.676150,-344.566454,-8997.012976
5986.786651,4728.217458,-1569.691626,-9858.429112
5986.789220,-191.425808,-1244.267752,-10566.704602
5986.791788,3177.668413,-6853.043926,-11121.839445
5986.794356,-497.707101,2986.242605,-8365.307810
5986.796925,765.703232,-5245.067139,-11179.267187
5986.799493,1071.984525,4096.512291,-9092.725880
5986.802062,-2871.387120,8997.012976,-8939.585234
5986.804630,2890.529701,-5168.496816,-11581.261384
5986.807199,-1282.552914,8212.167163,-7944.171032
5986.809767,-3905.086483,2641.676150,-9628.718142
5986.812335,-440.279358,-784.845813,-9992.427178
5986.814903,689.132909,2316.252277,-9169.296203
5986.817472,746.560651,-861.416136,-10375.278794
5986.820040,-1627.119368,1684.547110,-9877.571693
5986.822608,-1110.269686,3905.086483,-9265.009107
5986.825176,708.275490,-1148.554848,-10030.712339
5986.827744,172.283227,2143.969050,-9226.723946
5986.830312,-2507.678085,2469.392923,-9973.284597
5986.832880,-2354.537438,1052.841944,-10394.421374
5986.835448,-421.136778,2622.533570,-9437.292334
5986.838016,-765.703232,2679.961312,-9781.858789
5986.840585,-1837.687757,1684.547110,-10260.423309
5986.843153,2813.959378,-459.421939,-9858.429112
5986.845721,593.420005,5647.061336,-8039.883936
5986.848289,2756.531635,-10547.562021,-12136.396227
5986.850857,-440.279358,0.000000,-9724.431046
5986.853425,2794.816797,-1627.119368,-10049.854920
5986.855993,1110.269686,1186.840010,-9399.007173
5986.858561,1703.689691,3139.383251,-9839.286531
5986.861129,2699.103893,-1646.261949,-10298.708470
5986.863697,899.701298,-2392.822600,-10202.995566
5986.866266,1225.125171,-114.855485,-9686.145885
5986.868834,363.709035,612.562586,-10126.425243
5986.871402,344.566454,1837.687757,-10088.140082
5986.873970,2086.541307,-612.562586,-9724.431046
5986.876538,2756.531635,-114.855485,-9054.440718
5986.879106,4996.213589,-2373.680019,-10088.140082
5986.881674,421.136778,1952.543242,-9915.856854
5986.884242,3369.094221,-6833.901346,-11045.269122
5986.886810,-363.709035,-267.996131,-9150.153622
5986.889379,-1052.841944,-631.705166,-10336.993632
5986.891947,1799.402595,-3177.668413,-11198.409768
5986.894515,-3962.514226,13954.941403,-7542.176835
5986.897083,2009.970984,-1875.972918,-10738.987829
5986.899651,-2277.967115,3828.516160,-9131.011042
5986.902219,-1205.982590,2507.678085,-9705.288466
5986.904787,-650.847747,-1493.121302,-10202.995566
5986.907355,784.845813,2335.394858,-9418.149754
5986.909923,191.425808,-210.568389,-10394.421374
5986.912492,-1378.265818,1971.685822,-9533.005238
5986.915060,-382.851616,2545.963246,-9303.294269
5986.917608,-114.855485,-57.427742,-9801.001370
5986.920156,-784.845813,2507.678085,-9437.292334
5986.922705,-2699.103893,2890.529701,-10088.140082
5986.925253,248.853550,1167.697429,-10107.282662
5986.927801,-2928.814862,6642.475538,-8250.452325
5986.930350,708.275490,1512.263883,-10126.425243
5986.932898,-3962.514226,3235.096155,-9820.143950
5986.935446,5149.354235,-4728.217458,-10949.556218
5986.937995,5111.069074,-2373.680019,-10107.282662
5986.940543,-1550.549045,3522.234867,-8499.305875
5986.943091,1378.265818,-7140.182638,-11274.980091
5986.945640,3196.810994,669.990328,-9552.147819
5986.948188,1627.119368,-1167.697429,-10432.706536
5986.950736,995.414202,3349.951640,-9399.007173
5986.953285,2775.674216,2239.681954,-9590.432981
5986.955833,689.132909,-2660.818731,-9954.142016
5986.958381,1895.115499,-995.414202,-10088.140082
5986.960930,995.414202,2297.109696,-10107.282662
5986.963478,440.279358,535.992262,-10260.423309
5986.966026,2105.683888,-1014.556782,-9686.145885
5986.968575,4632.504554,-1263.410333,-9188.438784
5986.971123,708.275490,-1627.119368,-10279.565890
5986.973672,3388.236802,-6642.475538,-11542.976222
5986.976220,-401.994197,3139.383251,-8384.450390
5986.978768,2105.683888,-5245.067139,-10719.845248
5986.981317,-574.277424,5455.635528,-8767.302006
5986.983865,-2469.392923,5283.352301,-9341.579430
5986.986413,2220.539373,-3369.094221,-11485.548480
5986.988962,-1167.697429,8193.024582,-8135.596840
5986.991510,-4287.938099,2105.683888,-9513.862658
5986.994058,-631.705166,-593.420005,-10107.282662
5986.996607,823.130974,1684.547110,-9284.151688
5986.999155,880.558717,-1225.125171,-10375.278794
5987.001703,-650.847747,1359.123237,-9896.714274
5987.004252,-1990.828403,4115.654872,-8977.870395
5987.006800,114.855485,-133.998066,-9896.714274
5987.009348,-38.285162,1435.693560,-9590.432981
5987.011897,-2373.680019,2526.820666,-9686.145885
5987.014445,-95.712904,1569.691626,-10528.419440
5987.016993,-3522.234867,5206.781978,-9111.868461
5987.019544,555.134843,1607.976787,-10164.710405
5987.022095,-3675.375514,2660.818731,-9724.431046
5987.024645,5149.354235,-4058.227130,-10624.132344
5987.027196,3426.521963,5742.774240,-8556.733618
5987.029746,-842.273555,-4709.074877,-10604.989763
5987.032297,267.996131,-4153.940034,-10126.425243
5987.034847,2335.394858,-1033.699363,-9973.284597
5987.037398,1627.119368,-133.998066,-10107.282662
5987.039949,1339.980656,4421.936165,-9322.436850
5987.042499,2373.680019,2622.533570,-9494.720077
