#time,accel_x,accel_y,accel_z
135.111358,306.281293,210.568389,-10202.995566
135.113743,2411.965181,535.992262,-9820.143950
135.116129,-38.285162,1627.119368,-9303.294269
135.118514,1205.982590,19.142581,-10336.993632
135.120899,1895.115499,708.275490,-9743.573627
135.123284,382.851616,1378.265818,-9322.436850
135.125669,1818.545176,210.568389,-9973.284597
135.128054,2009.970984,650.847747,-9992.427178
135.130440,669.990328,1091.127106,-9820.143950
135.132899,-918.843878,516.849682,-10260.423309
135.135359,823.130974,574.277424,-9839.286531
135.137819,669.990328,1282.552914,-9647.860723
135.140279,612.562586,976.271621,-9934.999435
135.142738,1052.841944,-440.279358,-10088.140082
135.145198,-880.558717,2545.963246,-9150.153622
135.147658,1091.127106,344.566454,-10298.708470
135.150117,-191.425808,306.281293,-10241.280728
135.152577,-2220.539373,1741.974853,-9379.864592
135.155037,248.853550,57.427742,-10719.845248
135.157497,1397.408398,459.421939,-9762.716208
135.159956,114.855485,1627.119368,-9399.007173
135.162416,363.709035,-38.285162,-10585.847182
135.164876,-267.996131,631.705166,-9992.427178
135.167336,-1244.267752,1359.123237,-9456.434915
135.169795,995.414202,363.709035,-10336.993632
135.172255,880.558717,689.132909,-10068.997501
135.174715,-306.281293,1052.841944,-10183.852986
135.177174,-153.140646,555.134843,-10241.280728
135.179634,1550.549045,344.566454,-9609.575562
135.182094,-440.279358,1225.125171,-9934.999435
135.184554,803.988394,478.564520,-10260.423309
135.187013,-325.423874,363.709035,-9590.432981
135.189473,-612.562586,1454.836141,-9877.571693
135.191933,76.570323,382.851616,-10470.991698
135.194392,133.998066,421.136778,-9954.142016
135.196852,-1091.127106,1665.404530,-9954.142016
135.199312,-574.277424,38.285162,-10279.565890
135.201772,325.423874,689.132909,-9686.145885
135.204231,1799.402595,1110.269686,-9667.003304
135.206691,-306.281293,555.134843,-10375.278794
135.209151,861.416136,172.283227,-9647.860723
135.211610,-1186.840010,1416.550979,-9896.714274
135.214070,-1167.697429,306.281293,-10451.849117
135.216530,899.701298,153.140646,-9762.716208
135.218990,-287.138712,2584.248408,-9820.143950
135.221449,2239.681954,-382.851616,-10011.569758
135.223909,842.273555,229.710970,-9188.438784
135.226369,191.425808,2316.252277,-10375.278794
135.228829,2124.826469,-459.421939,-10183.852986
135.231406,555.134843,1493.121302,-9877.571693
135.233914,803.988394,2239.681954,-9494.720077
135.236421,306.281293,-1129.412267,-9667.003304
135.238929,-535.992262,2316.252277,-10068.997501
135.241437,1416.550979,976.271621,-10126.425243
135.243945,2641.676150,-899.701298,-9992.427178
135.246453,689.132909,1799.402595,-9456.434915
135.248960,153.140646,248.853550,-9896.714274
135.251468,19.142581,401.994197,-10222.138147
135.253976,1033.699363,1741.974853,-9877.571693
135.256484,2258.824534,516.849682,-9858.429112
135.258991,344.566454,382.851616,-9724.431046
135.261499,-57.427742,516.849682,-9801.001370
135.264007,631.705166,784.845813,-9973.284597
135.266515,803.988394,363.709035,-10432.706536
135.269023,803.988394,1339.980656,-9896.714274
135.271530,1071.984525,746.560651,-9647.860723
135.274038,574.277424,-210.568389,-10030.712339
135.276546,1129.412267,1799.402595,-9820.143950
135.279054,-401.994197,669.990328,-10068.997501
135.281561,995.414202,-248.853550,-10336.993632
135.284069,861.416136,2067.398726,-9533.005238
135.286577,2143.969050,363.709035,-9877.571693
135.289085,2009.970984,-210.568389,-10490.134278
135.291592,1378.265818,1837.687757,-9437.292334
135.294100,-899.701298,421.136778,-10088.140082
135.296608,1091.127106,-631.705166,-10566.704602
135.299116,1397.408398,2622.533570,-9226.723946
135.301624,2029.113565,-248.853550,-10202.995566
135.304131,-516.849682,-210.568389,-10164.710405
135.306639,669.990328,2737.389054,-9781.858789
135.309147,153.140646,612.562586,-10202.995566
135.311655,2392.822600,-229.710970,-10068.997501
135.314162,803.988394,2469.392923,-9207.581365
135.316670,2067.398726,-114.855485,-10183.852986
135.319178,-1244.267752,746.560651,-10470.991698
135.321686,-631.705166,1761.117434,-9150.153622
135.324193,210.568389,19.142581,-9475.577496
135.326701,-1473.978722,516.849682,-10738.987829
135.329209,1282.552914,2469.392923,-9590.432981
135.331749,1282.552914,-880.558717,-10126.425243
135.334289,-1301.695494,440.279358,-10068.997501
135.336829,842.273555,1454.836141,-9073.583299
135.339369,1225.125171,191.425808,-10930.413637
135.341909,-95.712904,612.562586,-10145.567824
135.344449,-325.423874,957.129040,-9245.866526
135.346989,-1722.832272,306.281293,-10145.567824
135.349530,382.851616,401.994197,-10260.423309
135.352070,1914.258080,1359.123237,-9667.003304
135.354610,478.564520,76.570323,-10202.995566
135.357150,-937.986459,593.420005,-9839.286531
135.359690,535.992262,1263.410333,-9724.431046
135.362230,-133.998066,153.140646,-10145.567824
135.364770,-19.142581,612.562586,-10145.567824
135.367310,957.129040,1703.689691,-9590.432981
135.369850,421.136778,-248.853550,-10509.276859
135.372390,-57.427742,708.275490,-9628.718142
135.374930,1416.550979,1244.267752,-9686.145885
135.377470,-631.705166,-440.279358,-10451.849117
135.380010,-803.988394,1282.552914,-9552.147819
135.382550,976.271621,1397.408398,-9609.575562
135.385090,-1110.269686,-574.277424,-10566.704602
135.387630,-861.416136,1263.410333,-9686.145885
135.390171,153.140646,1320.838075,-9820.143950
135.392711,-631.705166,-57.427742,-10470.991698
135.395251,2297.109696,574.277424,-9686.145885
135.397791,708.275490,1282.552914,-9839.286531
135.400331,306.281293,0.000000,-10260.423309
135.402871,-1646.261949,612.562586,-9858.429112
135.405411,-421.136778,1703.689691,-9801.001370
135.407951,861.416136,-689.132909,-10451.849117
135.410491,-803.988394,2182.254211,-9915.856854
135.413031,3560.520029,153.140646,-9628.718142
135.415571,-1014.556782,-861.416136,-9781.858789
135.418111,401.994197,1875.972918,-10222.138147
135.420651,2105.683888,918.843878,-9992.427178
135.423191,1014.556782,325.423874,-10260.423309
135.425731,114.855485,2354.537438,-9322.436850
135.428272,746.560651,-210.568389,-9533.005238
135.430812,-650.847747,1339.980656,-10566.704602
135.433372,612.562586,1301.695494,-9992.427178
135.435932,3292.523898,478.564520,-9954.142016
135.438492,803.988394,937.986459,-9552.147819
135.441052,287.138712,76.570323,-9877.571693
135.443612,-133.998066,1282.552914,-10241.280728
135.446172,918.843878,191.425808,-10260.423309
135.448732,2105.683888,1282.552914,-9647.860723
135.451292,1359.123237,669.990328,-9954.142016
135.453852,248.853550,-325.423874,-10068.997501
135.456412,95.712904,1722.832272,-9647.860723
135.458972,899.701298,976.271621,-10394.421374
135.461532,631.705166,-267.996131,-10356.136213
135.464092,401.994197,1607.976787,-9207.581365
135.466653,-76.570323,172.283227,-10145.567824
135.469213,2182.254211,516.849682,-10011.569758
135.471773,-497.707101,1531.406464,-9647.860723
135.474333,1627.119368,555.134843,-10279.565890
135.476893,1339.980656,-153.140646,-9896.714274
135.479453,1684.547110,1378.265818,-9379.864592
135.482013,1091.127106,746.560651,-10164.710405
135.484573,1110.269686,57.427742,-10241.280728
135.487133,1148.554848,1320.838075,-9571.290400
135.489693,1454.836141,-38.285162,-10164.710405
135.492253,-459.421939,133.998066,-10068.997501
135.494813,842.273555,2679.961312,-9322.436850
135.497373,746.560651,-593.420005,-10279.565890
135.499933,1186.840010,1378.265818,-9877.571693
135.502493,2354.537438,478.564520,-9494.720077
135.505054,-19.142581,344.566454,-10260.423309
135.507614,1895.115499,1569.691626,-9801.001370
135.510174,-2297.109696,153.140646,-9973.284597
135.512734,-669.990328,-516.849682,-10356.136213
135.515294,976.271621,1799.402595,-9552.147819
135.517854,-957.129040,-937.986459,-10949.556218
135.520414,-708.275490,2392.822600,-9781.858789
135.522974,1531.406464,-669.990328,-9571.290400
135.525534,-918.843878,899.701298,-10145.567824
135.528094,287.138712,957.129040,-9896.714274
135.530654,2354.537438,-421.136778,-10566.704602
135.533214,-363.709035,2067.398726,-9590.432981
135.535789,-1780.260014,-133.998066,-9858.429112
135.538363,-401.994197,631.705166,-10049.854920
135.540938,-95.712904,1837.687757,-10068.997501
135.543512,1588.834206,-287.138712,-10317.851051
135.546087,1569.691626,1110.269686,-9762.716208
135.548661,-516.849682,1225.125171,-9724.431046
135.551235,-267.996131,-401.994197,-10145.567824
135.553810,133.998066,1282.552914,-9801.001370
135.556384,650.847747,880.558717,-9915.856854
135.558959,727.418070,-57.427742,-10183.852986
135.561533,-727.418070,803.988394,-9915.856854
135.564108,440.279358,1359.123237,-9762.716208
135.566682,306.281293,19.142581,-10126.425243
135.569257,57.427742,937.986459,-10164.710405
135.571831,-478.564520,1282.552914,-9781.858789
135.574406,-612.562586,210.568389,-9877.571693
135.576980,-1799.402595,1052.841944,-10202.995566
135.579554,-248.853550,746.560651,-9915.856854
135.582129,2718.246474,19.142581,-10030.712339
135.584703,-114.855485,1627.119368,-9743.573627
135.587278,-191.425808,-19.142581,-9915.856854
135.589852,-363.709035,1110.269686,-9724.431046
135.592427,-1569.691626,325.423874,-10011.569758
135.595001,-784.845813,1320.838075,-10049.854920
135.597576,1646.261949,612.562586,-10088.140082
135.600150,1359.123237,574.277424,-9934.999435
135.602725,-1588.834206,57.427742,-9839.286531
135.605299,1225.125171,746.560651,-10260.423309
135.607873,3273.381317,-172.283227,-9877.571693
135.610448,-669.990328,2220.539373,-10030.712339
135.613022,1875.972918,-669.990328,-9781.858789
135.615597,76.570323,669.990328,-9303.294269
135.618171,-210.568389,1378.265818,-10183.852986
135.620746,631.705166,0.000000,-10432.706536
135.623320,1933.400661,1684.547110,-9858.429112
135.625895,1837.687757,1167.697429,-9647.860723
135.628469,842.273555,-440.279358,-10260.423309
135.631043,-593.420005,2220.539373,-9399.007173
135.633618,57.427742,689.132909,-10202.995566
135.636192,1129.412267,-172.283227,-10681.560086
135.638705,2239.681954,2105.683888,-9054.440718
135.641218,1186.840010,172.283227,-10126.425243
135.643731,-401.994197,-267.996131,-10164.710405
135.646244,574.277424,2201.396792,-9322.436850
135.648756,631.705166,57.427742,-10681.560086
135.651269,708.275490,689.132909,-9801.001370
135.653782,516.849682,1014.556782,-9379.864592
135.656295,421.136778,325.423874,-10394.421374
135.658808,1186.840010,918.843878,-10145.567824
135.661321,1454.836141,1014.556782,-9801.001370
135.663833,1435.693560,918.843878,-10068.997501
135.666346,1301.695494,306.281293,-9992.427178
135.668859,1052.841944,1263.410333,-9494.720077
135.671372,1071.984525,708.275490,-10030.712339
135.673885,1684.547110,38.285162,-10107.282662
135.676397,-593.420005,1244.267752,-9781.858789
135.678910,401.994197,1244.267752,-9877.571693
135.681423,1071.984525,-382.851616,-10011.569758
135.683936,1071.984525,2431.107762,-9647.860723
135.686449,2392.822600,-765.703232,-10202.995566
135.688962,401.994197,669.990328,-9839.286531
135.691474,1646.261949,2201.396792,-9628.718142
135.693987,-1914.258080,-861.416136,-9973.284597
135.696500,-650.847747,-76.570323,-10126.425243
135.699013,1014.556782,2565.105827,-9494.720077
135.701526,-1473.978722,-1741.974853,-11140.982026
135.704038,114.855485,2871.387120,-9513.862658
135.706551,1454.836141,-191.425808,-9609.575562
135.709064,-1512.263883,172.283227,-10260.423309
135.711577,612.562586,937.986459,-9686.145885
135.714090,1799.402595,803.988394,-10451.849117
135.716602,-478.564520,516.849682,-9858.429112
135.719115,-593.420005,899.701298,-9533.005238
135.721628,-995.414202,669.990328,-10068.997501
135.724141,-401.994197,478.564520,-10030.712339
135.726654,1167.697429,497.707101,-10145.567824
135.729167,918.843878,1205.982590,-9954.142016
135.731679,631.705166,153.140646,-9762.716208
135.734192,-210.568389,325.423874,-9992.427178
135.736705,95.712904,1646.261949,-9820.143950
135.739242,593.420005,114.855485,-10202.995566
135.741779,727.418070,1588.834206,-9801.001370
135.744316,-38.285162,382.851616,-9992.427178
135.746853,363.709035,516.849682,-9724.431046
135.749390,459.421939,1301.695494,-9858.429112
135.751927,-995.414202,593.420005,-10030.712339
135.754464,-1378.265818,861.416136,-9820.143950
135.757001,-593.420005,689.132909,-9858.429112
135.759538,-344.566454,976.271621,-9954.142016
135.762074,2526.820666,267.996131,-9934.999435
135.764611,114.855485,1512.263883,-9724.431046
135.767148,-593.420005,612.562586,-10088.140082
135.769685,-650.847747,172.283227,-9915.856854
135.772222,-1186.840010,1512.263883,-9686.145885
135.774759,0.000000,650.847747,-10356.136213
135.777296,899.701298,957.129040,-9934.999435
135.779833,3005.385186,363.709035,-9877.571693
135.782370,-1129.412267,-363.709035,-9801.001370
135.784907,459.421939,1244.267752,-10260.423309
135.787444,3158.525832,-153.140646,-9896.714274
135.789981,-153.140646,1875.972918,-10183.852986
135.792518,1148.554848,440.279358,-9686.145885
135.795055,746.560651,267.996131,-9437.292334
135.797592,-478.564520,2048.256146,-10336.993632
135.800129,708.275490,229.710970,-10260.423309
135.802666,2143.969050,1435.693560,-10030.712339
135.805203,1933.400661,1205.982590,-9552.147819
135.807740,861.416136,-478.564520,-10375.278794
135.810276,-172.283227,2009.970984,-9552.147819
135.812813,114.855485,555.134843,-9705.288466
135.815350,880.558717,19.142581,-10356.136213
135.817887,1473.978722,1761.117434,-9475.577496
135.820424,1933.400661,306.281293,-9762.716208
135.822961,95.712904,210.568389,-9934.999435
135.825498,574.277424,1416.550979,-9781.858789
135.828035,248.853550,248.853550,-10202.995566
135.830572,918.843878,1033.699363,-9896.714274
135.833109,574.277424,497.707101,-9724.431046
135.835646,574.277424,1052.841944,-10011.569758
135.838183,1186.840010,535.992262,-10356.136213
135.840738,2335.394858,1052.841944,-9820.143950
135.843293,574.277424,861.416136,-9839.286531
135.845848,1837.687757,19.142581,-10011.569758
135.848403,1761.117434,1493.121302,-9513.862658
135.850958,823.130974,-172.283227,-10336.993632
135.853513,-1837.687757,612.562586,-9992.427178
135.856068,1378.265818,2105.683888,-9724.431046
135.858624,708.275490,-1033.699363,-10317.851051
135.861179,1435.693560,842.273555,-9934.999435
135.863734,2029.113565,1167.697429,-9839.286531
135.866289,325.423874,-1033.699363,-10604.989763
135.868844,363.709035,2775.674216,-9915.856854
135.871399,-650.847747,861.416136,-9647.860723
135.873954,19.142581,-401.994197,-10068.997501
135.876509,-248.853550,2143.969050,-9647.860723
135.879064,1129.412267,-210.568389,-10432.706536
135.881619,-784.845813,1263.410333,-10049.854920
135.884174,363.709035,593.420005,-9379.864592
135.886730,191.425808,516.849682,-9705.288466
135.889285,133.998066,1339.980656,-10222.138147
135.891840,1818.545176,95.712904,-10298.708470
135.894395,114.855485,1091.127106,-9820.143950
135.896950,-689.132909,306.281293,-9973.284597
135.899505,-1244.267752,1033.699363,-9705.288466
135.902060,-133.998066,957.129040,-10260.423309
135.904615,1263.410333,459.421939,-10279.565890
135.907170,861.416136,937.986459,-9647.860723
135.909725,306.281293,516.849682,-9724.431046
135.912280,267.996131,574.277424,-9992.427178
135.914835,-153.140646,765.703232,-9934.999435
135.917391,478.564520,1033.699363,-10088.140082
135.919946,421.136778,516.849682,-9954.142016
135.922513,727.418070,995.414202,-9533.005238
135.925080,-1282.552914,669.990328,-9934.999435
135.927647,-574.277424,746.560651,-10068.997501
135.930214,-708.275490,861.416136,-10030.712339
135.932781,-1014.556782,631.705166,-10279.565890
135.935348,1071.984525,880.558717,-9743.573627
135.937915,976.271621,669.990328,-9762.716208
135.940483,-172.283227,191.425808,-10260.423309
135.943050,995.414202,1588.834206,-9418.149754
135.945617,-1607.976787,-421.136778,-9992.427178
135.948184,-1703.689691,1627.119368,-10011.569758
135.950751,2660.818731,-153.140646,-9781.858789
135.953318,-1110.269686,1799.402595,-9724.431046
135.955885,1627.119368,1129.412267,-9781.858789
135.958452,1780.260014,-19.142581,-9360.722011
135.961020,-95.712904,2086.541307,-10183.852986
135.963587,-210.568389,1588.834206,-10126.425243
135.966154,2220.539373,-612.562586,-9820.143950
135.968721,401.994197,1607.976787,-9667.003304
135.971288,133.998066,-746.560651,-10088.140082
135.973855,344.566454,1167.697429,-10202.995566
135.976422,823.130974,555.134843,-10202.995566
135.978989,2469.392923,-57.427742,-9858.429112
135.981556,1856.830338,995.414202,-9284.151688
135.984124,535.992262,267.996131,-10068.997501
135.986691,-555.134843,1167.697429,-9877.571693
135.989258,631.705166,421.136778,-10183.852986
135.991825,1435.693560,765.703232,-9973.284597
135.994392,1684.547110,823.130974,-9820.143950
135.996959,899.701298,172.283227,-9973.284597
135.999526,229.710970,1186.840010,-9954.142016
136.002093,727.418070,612.562586,-10145.567824
136.004661,689.132909,497.707101,-9954.142016
136.007228,995.414202,229.710970,-9858.429112
136.009795,1167.697429,861.416136,-9801.001370
136.012362,899.701298,937.986459,-10279.565890
136.014929,1205.982590,803.988394,-10145.567824
136.017496,2699.103893,306.281293,-9820.143950
136.020063,1186.840010,1339.980656,-9934.999435
136.022630,2029.113565,287.138712,-10088.140082
136.025207,-344.566454,899.701298,-9820.143950
136.027783,-746.560651,727.418070,-9954.142016
136.030359,1320.838075,-95.712904,-10317.851051
136.032936,1225.125171,1684.547110,-9858.429112
136.035512,2603.390989,-229.710970,-9628.718142
136.038088,612.562586,1110.269686,-9934.999435
136.040665,1378.265818,784.845813,-10164.710405
136.043241,-2373.680019,631.705166,-10011.569758
136.045817,-172.283227,593.420005,-9858.429112
136.048394,593.420005,516.849682,-9571.290400
136.050970,-1263.410333,880.558717,-10356.136213
136.053546,76.570323,2967.100024,-9781.858789
136.056123,1148.554848,-803.988394,-9915.856854
136.058699,-2316.252277,976.271621,-9781.858789
136.061275,1282.552914,689.132909,-9781.858789
136.063852,918.843878,401.994197,-10624.132344
136.066428,19.142581,1110.269686,-9686.145885
136.069004,574.277424,401.994197,-9801.001370
136.071581,-957.129040,516.849682,-10164.710405
136.074157,-1512.263883,1014.556782,-9705.288466
136.076733,746.560651,555.134843,-10356.136213
136.079310,937.986459,1129.412267,-10011.569758
136.081886,976.271621,497.707101,-9590.432981
136.084462,382.851616,727.418070,-9934.999435
136.087039,-191.425808,861.416136,-9896.714274
136.089615,-153.140646,555.134843,-10068.997501
136.092191,803.988394,1110.269686,-10011.569758
136.094768,267.996131,497.707101,-10068.997501
136.097344,-382.851616,669.990328,-9590.432981
136.099921,-899.701298,689.132909,-10049.854920
136.102497,-1378.265818,937.986459,-10068.997501
136.105073,-727.418070,823.130974,-9762.716208
136.107650,2392.822600,191.425808,-10126.425243
136.110226,0.000000,1454.836141,-9781.858789
136.112802,-306.281293,153.140646,-9781.858789
136.115379,-57.427742,1397.408398,-9973.284597
136.117955,-1205.982590,76.570323,-10183.852986
136.120531,-1359.123237,1320.838075,-9934.999435
136.123108,325.423874,1378.265818,-10145.567824
136.125684,3330.809059,133.998066,-9743.573627
136.128266,-1359.123237,-95.712904,-9858.429112
136.130848,1110.269686,957.129040,-10164.710405
136.133430,3541.377448,-287.138712,-10145.567824
136.136012,-574.277424,2124.826469,-9781.858789
136.138595,1301.695494,-880.558717,-9992.427178
136.141177,976.271621,861.416136,-9533.005238
136.143759,0.000000,689.132909,-9781.858789
136.146341,-114.855485,440.279358,-10432.706536
136.148923,1531.406464,1091.127106,-10030.712339
136.151505,3330.809059,727.418070,-9265.009107
136.154088,918.843878,708.275490,-10164.710405
136.156670,153.140646,842.273555,-10260.423309
136.159252,-650.847747,1186.840010,-9762.716208
136.161834,535.992262,267.996131,-10490.134278
136.164416,1952.543242,1244.267752,-9571.290400
136.166998,1780.260014,459.421939,-9801.001370
136.169580,-880.558717,210.568389,-10107.282662
136.172163,784.845813,1454.836141,-9609.575562
136.174745,995.414202,267.996131,-10375.278794
136.177327,133.998066,612.562586,-9839.286531
136.179909,957.129040,899.701298,-9360.722011
136.182491,842.273555,363.709035,-10222.138147
136.185073,248.853550,995.414202,-9915.856854
136.187656,2277.967115,784.845813,-9896.714274
136.190238,2852.244539,976.271621,-10222.138147
136.192820,784.845813,287.138712,-9820.143950
136.195402,-1933.400661,823.130974,-9533.005238
136.197984,1186.840010,1607.976787,-10241.280728
136.200566,1339.980656,-516.849682,-10164.710405
136.203148,1244.267752,1741.974853,-9399.007173
136.205731,2488.535504,114.855485,-9992.427178
136.208313,325.423874,-497.707101,-10222.138147
136.210895,612.562586,2794.816797,-9399.007173
136.213477,-1703.689691,0.000000,-10222.138147
136.216059,325.423874,-612.562586,-10126.425243
136.218641,708.275490,2699.103893,-9379.864592
136.221224,-1014.556782,-1569.691626,-11140.982026
136.223806,38.285162,2105.683888,-9609.575562
136.226388,899.701298,57.427742,-9475.577496
136.228970,-1780.260014,765.703232,-10375.278794
136.231548,880.558717,555.134843,-9743.573627
136.234135,1588.834206,765.703232,-9992.427178
136.236721,-153.140646,516.849682,-10068.997501
136.239308,76.570323,593.420005,-9743.573627
136.241895,-765.703232,1014.556782,-10145.567824
136.244481,-708.275490,689.132909,-10126.425243
136.247068,937.986459,861.416136,-10011.569758
136.249655,421.136778,1033.699363,-10068.997501
136.252241,-153.140646,535.992262,-9934.999435
136.254828,631.705166,440.279358,-9781.858789
136.257414,650.847747,1550.549045,-9743.573627
136.260001,-574.277424,95.712904,-10049.854920
136.262588,612.562586,995.414202,-10049.854920
136.265174,382.851616,650.847747,-9973.284597
136.267761,-1435.693560,306.281293,-9705.288466
136.270348,-1397.408398,1225.125171,-10375.278794
136.272934,803.988394,382.851616,-9820.143950
136.275521,459.421939,842.273555,-9954.142016
136.278107,440.279358,574.277424,-10260.423309
136.280694,784.845813,1359.123237,-9456.434915
136.283281,-1454.836141,-957.129040,-10145.567824
136.285867,-1320.838075,2048.256146,-10088.140082
136.288454,1703.689691,650.847747,-9954.142016
136.291041,-842.273555,689.132909,-9954.142016
136.293627,1473.978722,1818.545176,-9322.436850
136.296214,2009.970984,19.142581,-9150.153622
136.298800,-191.425808,995.414202,-10834.700733
136.301387,1684.547110,1435.693560,-9954.142016
136.303974,1569.691626,918.843878,-9743.573627
136.306560,38.285162,976.271621,-9934.999435
136.309147,306.281293,248.853550,-9571.290400
136.311734,478.564520,1875.972918,-9934.999435
136.314320,880.558717,306.281293,-10643.274925
136.316907,1186.840010,516.849682,-9265.009107
136.319493,3426.521963,937.986459,-9533.005238
136.322080,1167.697429,-19.142581,-10394.421374
136.324667,-823.130974,1320.838075,-9705.288466
136.327253,248.853550,631.705166,-9743.573627
136.329840,1665.404530,0.000000,-10470.991698
136.332427,957.129040,1148.554848,-9628.718142
136.335017,1339.980656,344.566454,-9647.860723
136.337607,689.132909,669.990328,-9858.429112
136.340197,918.843878,1110.269686,-9628.718142
136.342787,2067.398726,708.275490,-10432.706536
136.345377,344.566454,516.849682,-9954.142016
136.347967,918.843878,1110.269686,-9265.009107
136.350557,1741.974853,210.568389,-10049.854920
136.353146,2201.396792,899.701298,-10336.993632
136.355736,2488.535504,708.275490,-9494.720077
136.358326,937.986459,459.421939,-10068.997501
136.360916,-1014.556782,325.423874,-9686.145885
136.363506,555.134843,1722.832272,-9552.147819
136.366096,1282.552914,689.132909,-10451.849117
136.368686,2660.818731,-57.427742,-9858.429112
136.371276,1301.695494,2258.824534,-9054.440718
136.373866,727.418070,-918.843878,-10777.272990
136.376456,-689.132909,2105.683888,-9877.571693
136.379046,-1454.836141,1110.269686,-9245.866526
136.381636,-19.142581,-555.134843,-10509.276859
136.384226,-38.285162,1110.269686,-9992.427178
136.386816,976.271621,1186.840010,-9915.856854
136.389406,-555.134843,210.568389,-10336.993632
136.391996,172.283227,363.709035,-9456.434915
136.394586,-229.710970,1397.408398,-9494.720077
136.397176,-38.285162,535.992262,-10777.272990
136.399766,1952.543242,459.421939,-9934.999435
136.402356,114.855485,1225.125171,-9456.434915
136.404946,-555.134843,325.423874,-9896.714274
136.407536,-478.564520,1148.554848,-9954.142016
136.410126,210.568389,937.986459,-10049.854920
136.412716,-133.998066,325.423874,-10068.997501
136.415306,823.130974,842.273555,-9954.142016
136.417896,287.138712,899.701298,-9667.003304
136.420486,-306.281293,669.990328,-9743.573627
136.423076,172.283227,459.421939,-10202.995566
136.425666,1225.125171,1282.552914,-9743.573627
136.428256,-995.414202,555.134843,-9992.427178
136.430846,-1148.554848,784.845813,-10164.710405
136.433436,-669.990328,1167.697429,-9647.860723
136.436026,574.277424,-76.570323,-10222.138147
136.438617,-38.285162,1703.689691,-10068.997501
136.441209,650.847747,57.427742,-9973.284597
136.443800,918.843878,995.414202,-9571.290400
136.446391,-1703.689691,95.712904,-10049.854920
136.448982,-516.849682,1627.119368,-9877.571693
136.451574,1263.410333,-19.142581,-10126.425243
136.454165,-1531.406464,1761.117434,-9820.143950
136.456756,2297.109696,746.560651,-9781.858789
136.459348,1684.547110,-229.710970,-9667.003304
136.461939,-191.425808,2048.256146,-10394.421374
136.464530,2239.681954,574.277424,-9858.429112
136.467121,1110.269686,861.416136,-10088.140082
136.469713,-401.994197,1971.685822,-9552.147819
136.472304,1033.699363,-19.142581,-9552.147819
136.474895,153.140646,1473.978722,-10317.851051
136.477487,516.849682,918.843878,-9992.427178
136.480078,1837.687757,344.566454,-9992.427178
136.482669,2450.250342,363.709035,-9571.290400
136.485260,765.703232,823.130974,-9513.862658
136.487852,-248.853550,1052.841944,-10279.565890
136.490443,382.851616,210.568389,-10222.138147
136.493034,76.570323,1282.552914,-9820.143950
136.495626,1454.836141,1014.556782,-9801.001370
136.498217,1952.543242,57.427742,-10088.140082
136.500808,-535.992262,1167.697429,-9513.862658
136.503399,210.568389,574.277424,-10260.423309
136.505991,2067.398726,593.420005,-9973.284597
136.508582,-229.710970,1110.269686,-9533.005238
136.511173,1588.834206,516.849682,-9896.714274
136.513765,2507.678085,708.275490,-9896.714274
136.516356,2067.398726,899.701298,-9839.286531
136.518947,1186.840010,727.418070,-10049.854920
136.521538,-1416.550979,172.283227,-9781.858789
136.524130,708.275490,1722.832272,-9724.431046
136.526721,1225.125171,401.994197,-10068.997501
136.529312,2048.256146,95.712904,-9954.142016
136.531903,1454.836141,1684.547110,-9379.864592
136.534495,612.562586,-478.564520,-10604.989763
136.537086,918.843878,2086.541307,-9973.284597
136.539677,-2584.248408,459.421939,-9609.575562
136.542270,-133.998066,-210.568389,-10490.134278
136.544862,1244.267752,1971.685822,-9647.860723
136.547454,-172.283227,-95.712904,-10336.993632
136.550047,-689.132909,1454.836141,-10049.854920
136.552639,1339.980656,0.000000,-9418.149754
136.555231,-1818.545176,1263.410333,-9724.431046
136.557824,421.136778,669.990328,-10336.993632
136.560416,1569.691626,708.275490,-10088.140082
136.563008,191.425808,1359.123237,-9667.003304
136.565601,-95.712904,267.996131,-9896.714274
136.568193,-478.564520,727.418070,-9877.571693
136.570785,344.566454,918.843878,-10107.282662
136.573378,133.998066,535.992262,-10088.140082
136.575970,363.709035,344.566454,-10088.140082
136.578562,497.707101,1033.699363,-9418.149754
136.581155,478.564520,708.275490,-10030.712339
136.583747,-114.855485,363.709035,-10126.425243
136.586339,1052.841944,1512.263883,-9647.860723
136.588932,-689.132909,267.996131,-10241.280728
136.591524,-1378.265818,765.703232,-10145.567824
136.594116,-210.568389,1033.699363,-9647.860723
136.596709,669.990328,153.140646,-10298.708470
136.599301,-287.138712,1263.410333,-9954.142016
136.601893,306.281293,650.847747,-9781.858789
136.604486,191.425808,650.847747,-9896.714274
136.607078,-1205.982590,574.277424,-9820.143950
136.609670,-1205.982590,937.986459,-10126.425243
136.612263,1052.841944,555.134843,-10202.995566
136.614855,2890.529701,478.564520,-9686.145885
136.617447,-708.275490,-210.568389,-10107.282662
136.620040,1493.121302,957.129040,-9992.427178
136.622632,3215.953574,-267.996131,-10126.425243
136.625224,-803.988394,2105.683888,-10049.854920
136.627817,1416.550979,-957.129040,-9992.427178
136.630409,1110.269686,1301.695494,-9513.862658
136.633001,95.712904,325.423874,-9915.856854
136.635594,306.281293,421.136778,-10547.562021
136.638186,1033.699363,1531.406464,-9896.714274
136.640778,1914.258080,880.558717,-9552.147819
136.643371,2239.681954,-38.285162,-10183.852986
136.645964,593.420005,1493.121302,-9858.429112
136.648557,325.423874,803.988394,-10145.567824
136.651150,-574.277424,0.000000,-10356.136213
136.653744,784.845813,1493.121302,-9552.147819
136.656337,1818.545176,516.849682,-10088.140082
136.658930,765.703232,306.281293,-10126.425243
136.661523,1473.978722,1493.121302,-9590.432981
136.664116,210.568389,535.992262,-10202.995566
136.666709,612.562586,612.562586,-10011.569758
136.669303,2450.250342,765.703232,-9475.577496
136.671896,2431.107762,1091.127106,-10011.569758
136.674489,2124.826469,-76.570323,-10126.425243
136.677082,535.992262,1033.699363,-9820.143950
136.679675,-1225.125171,650.847747,-10011.569758
136.682269,995.414202,574.277424,-10164.710405
136.684862,861.416136,2124.826469,-9609.575562
136.687455,2622.533570,-325.423874,-9705.288466
136.690048,1359.123237,1493.121302,-9801.001370
136.692641,765.703232,1665.404530,-9724.431046
136.695235,-2163.111630,-401.994197,-10030.712339
136.697828,-210.568389,1033.699363,-9781.858789
136.700421,306.281293,1110.269686,-9303.294269
136.703014,-727.418070,114.855485,-10509.276859
136.705607,669.990328,1818.545176,-9992.427178
136.708201,-229.710970,401.994197,-9801.001370
136.710794,-382.851616,459.421939,-9743.573627
136.713387,-382.851616,1091.127106,-9858.429112
136.715980,497.707101,497.707101,-10260.423309
136.718573,918.843878,727.418070,-9992.427178
136.721167,727.418070,727.418070,-9915.856854
136.723760,-689.132909,957.129040,-9475.577496
136.726353,-957.129040,344.566454,-9839.286531
136.728946,708.275490,823.130974,-10356.136213
136.731539,153.140646,1339.980656,-9533.005238
136.734133,669.990328,-57.427742,-10145.567824
136.736726,267.996131,497.707101,-10049.854920
136.739319,612.562586,995.414202,-9552.147819
136.741912,287.138712,172.283227,-10624.132344
136.744505,-957.129040,1320.838075,-9801.001370
136.747099,-229.710970,650.847747,-9418.149754
136.749654,-191.425808,133.998066,-10375.278794
136.752210,-1071.984525,1263.410333,-9858.429112
136.754765,401.994197,516.849682,-9437.292334
136.757321,440.279358,689.132909,-10413.563955
136.759877,-287.138712,650.847747,-10049.854920
136.762432,-861.416136,1837.687757,-9801.001370
136.764988,1167.697429,153.140646,-10490.134278
136.767544,-1473.978722,1512.263883,-9667.003304
136.770099,3541.377448,421.136778,-9762.716208
136.772655,-114.855485,-363.709035,-10241.280728
136.775211,689.132909,1512.263883,-9686.145885
136.777766,4039.084549,-516.849682,-9877.571693
136.780322,-440.279358,2143.969050,-10202.995566
136.782878,-114.855485,-114.855485,-9647.860723
136.785433,1244.267752,689.132909,-9877.571693
136.787989,1071.984525,1416.550979,-9973.284597
136.790545,-172.283227,708.275490,-9820.143950
136.793100,1225.125171,1091.127106,-10413.563955
136.795656,1741.974853,497.707101,-9590.432981
136.798211,1607.976787,535.992262,-9494.720077
136.800767,1320.838075,1263.410333,-10260.423309
136.803323,-516.849682,459.421939,-10241.280728
136.805878,727.418070,976.271621,-9533.005238
136.808434,1071.984525,803.988394,-10068.997501
136.810990,1091.127106,-325.423874,-9915.856854
136.813545,-344.566454,1607.976787,-9724.431046
136.816101,1741.974853,746.560651,-10317.851051
136.818657,229.710970,-133.998066,-9973.284597
136.821212,1225.125171,1473.978722,-9437.292334
136.823768,2813.959378,574.277424,-10279.565890
136.826324,2029.113565,401.994197,-10030.712339
136.828879,1435.693560,1205.982590,-9226.723946
136.831435,267.996131,287.138712,-9973.284597
136.833991,478.564520,708.275490,-10049.854920
136.836546,708.275490,1493.121302,-9705.288466
136.839102,2316.252277,-76.570323,-9973.284597
136.841657,995.414202,1665.404530,-9609.575562
136.844213,1129.412267,-210.568389,-10317.851051
136.846769,-172.283227,2622.533570,-10011.569758
136.849324,-1799.402595,-95.712904,-9801.001370
136.851887,153.140646,650.847747,-9609.575562
136.854449,-19.142581,1091.127106,-9915.856854
136.857011,229.710970,19.142581,-10279.565890
136.859573,-325.423874,1799.402595,-9858.429112
136.862135,803.988394,-153.140646,-9571.290400
136.864698,-1397.408398,803.988394,-9858.429112
136.867260,421.136778,823.130974,-10375.278794
136.869822,1205.982590,708.275490,-9934.999435
136.872384,746.560651,440.279358,-10164.710405
136.874946,574.277424,784.845813,-9647.860723
136.877508,-708.275490,746.560651,-9801.001370
136.880071,-172.283227,382.851616,-10509.276859
136.882633,535.992262,1741.974853,-9533.005238
136.885195,593.420005,38.285162,-10107.282662
136.887757,-612.562586,631.705166,-9954.142016
136.890319,306.281293,1320.838075,-9590.432981
136.892882,574.277424,-76.570323,-10241.280728
136.895444,-95.712904,1167.697429,-10088.140082
136.898006,-1454.836141,631.705166,-9858.429112
136.900568,669.990328,210.568389,-10260.423309
136.903130,-1052.841944,1416.550979,-9762.716208
136.905693,-382.851616,-38.285162,-9973.284597
136.908255,2143.969050,1493.121302,-9705.288466
136.910817,-1531.406464,-363.709035,-10432.706536
136.913379,-1569.691626,1703.689691,-9609.575562
136.915941,2048.256146,-191.425808,-9877.571693
136.918503,-1990.828403,1301.695494,-10336.993632
136.921066,421.136778,1397.408398,-9781.858789
136.923628,3043.670347,344.566454,-9858.429112
136.926190,1512.263883,803.988394,-10279.565890
136.928752,516.849682,1722.832272,-9628.718142
136.931314,1722.832272,-267.996131,-10260.423309
136.933877,-248.853550,1646.261949,-9762.716208
136.936439,287.138712,-363.709035,-9647.860723
136.939001,1110.269686,1607.976787,-10375.278794
136.941563,918.843878,612.562586,-10145.567824
136.944125,650.847747,306.281293,-9552.147819
136.946688,1818.545176,918.843878,-9877.571693
136.949250,1875.972918,363.709035,-10107.282662
136.951812,574.277424,1339.980656,-9781.858789
136.954380,267.996131,210.568389,-10183.852986
136.956947,248.853550,957.129040,-9743.573627
136.959515,899.701298,1129.412267,-9647.860723
136.962083,727.418070,210.568389,-10183.852986
136.964651,172.283227,1244.267752,-9858.429112
136.967219,842.273555,172.283227,-10107.282662
136.969786,2067.398726,708.275490,-10068.997501
136.972354,1799.402595,957.129040,-9724.431046
136.974922,2143.969050,363.709035,-9877.571693
136.977490,1320.838075,650.847747,-10049.854920
136.980057,38.285162,516.849682,-10011.569758
136.982625,267.996131,1263.410333,-9934.999435
136.985193,976.271621,497.707101,-9858.429112
136.987761,2258.824534,19.142581,-9839.286531
136.990328,1091.127106,2067.398726,-9705.288466
136.992896,861.416136,-650.847747,-10624.132344
136.995464,-306.281293,2029.113565,-9590.432981
136.998032,-1320.838075,976.271621,-9609.575562
137.000600,-57.427742,-631.705166,-10107.282662
137.003167,497.707101,2143.969050,-9801.001370
137.005735,-325.423874,-248.853550,-10183.852986
137.008303,-267.996131,1225.125171,-10068.997501
137.010871,1397.408398,325.423874,-9494.720077
137.013438,-1435.693560,1071.984525,-9667.003304
137.016006,210.568389,38.285162,-10853.843314
137.018574,1646.261949,1320.838075,-9667.003304
137.021142,363.709035,440.279358,-9954.142016
137.023710,-401.994197,153.140646,-10068.997501
137.026277,114.855485,1225.125171,-9686.145885
137.028845,-574.277424,-19.142581,-10145.567824
137.031413,95.712904,918.843878,-10164.710405
137.033981,1282.552914,612.562586,-9954.142016
137.036548,287.138712,459.421939,-9781.858789
137.039116,-306.281293,1110.269686,-9896.714274
137.041684,957.129040,344.566454,-10356.136213
137.044252,-76.570323,1110.269686,-9724.431046
137.046819,-746.560651,306.281293,-10317.851051
137.049387,-650.847747,1205.982590,-9762.716208
137.051955,-459.421939,-191.425808,-10030.712339
137.054523,172.283227,899.701298,-10068.997501
137.057094,-421.136778,-133.998066,-10202.995566
137.059666,-478.564520,727.418070,-10241.280728
137.062237,1052.841944,612.562586,-9647.860723
137.064808,-1818.545176,1186.840010,-10049.854920
137.067380,2871.387120,-210.568389,-10164.710405
137.069951,-95.712904,210.568389,-9418.149754
137.072522,957.129040,1397.408398,-10222.138147
137.075094,4173.082614,-784.845813,-10241.280728
137.077665,-478.564520,2316.252277,-9724.431046
137.080236,-803.988394,1052.841944,-10145.567824
137.082808,1665.404530,287.138712,-9705.288466
137.085379,880.558717,1454.836141,-10011.569758
137.087951,19.142581,880.558717,-10260.423309
137.090522,2048.256146,631.705166,-10126.425243
137.093093,1627.119368,593.420005,-9379.864592
137.095665,382.851616,976.271621,-9896.714274
137.098236,1493.121302,861.416136,-10298.708470
137.100807,631.705166,555.134843,-9954.142016
137.103379,0.000000,937.986459,-9781.858789
137.105950,555.134843,516.849682,-9915.856854
137.108522,937.986459,497.707101,-9973.284597
137.111093,306.281293,1359.123237,-10011.569758
137.113664,1110.269686,287.138712,-9820.143950
137.116236,1550.549045,861.416136,-10164.710405
137.118807,1856.830338,1052.841944,-9609.575562
137.121378,2316.252277,440.279358,-9762.716208
137.123950,-172.283227,612.562586,-10164.710405
137.126521,1167.697429,2048.256146,-9686.145885
137.129092,1378.265818,-95.712904,-10107.282662
137.131664,-76.570323,1531.406464,-10011.569758
137.134235,2526.820666,-421.136778,-9705.288466
137.136807,1435.693560,1052.841944,-9781.858789
137.139378,1378.265818,1914.258080,-10107.282662
137.141949,-2392.822600,-440.279358,-9781.858789
137.144521,-95.712904,95.712904,-10222.138147
137.147092,172.283227,1818.545176,-9513.862658
137.149663,-1225.125171,-593.420005,-10700.702667
137.152235,-95.712904,2565.105827,-9647.860723
137.154806,669.990328,38.285162,-9896.714274
137.157377,-593.420005,248.853550,-9877.571693
137.159952,-306.281293,1895.115499,-9801.001370
137.162526,765.703232,76.570323,-10356.136213
137.165101,555.134843,1225.125171,-9513.862658
137.167675,784.845813,325.423874,-10145.567824
137.170249,-1033.699363,842.273555,-9915.856854
137.172824,382.851616,937.986459,-9399.007173
137.175398,382.851616,248.853550,-10451.849117
137.177973,-708.275490,1416.550979,-9954.142016
137.180547,937.986459,459.421939,-9877.571693
137.183121,995.414202,708.275490,-9858.429112
137.185696,-1205.982590,842.273555,-9590.432981
137.188270,-1091.127106,382.851616,-10164.710405
137.190845,823.130974,650.847747,-10145.567824
137.193419,-1550.549045,1186.840010,-9858.429112
137.195993,-708.275490,-57.427742,-9896.714274
137.198568,1320.838075,1607.976787,-9552.147819
137.201142,-210.568389,-229.710970,-10317.851051
137.203717,19.142581,1454.836141,-9667.003304
137.206291,1569.691626,440.279358,-9762.716208
137.208865,-1895.115499,1320.838075,-9992.427178
137.211440,2488.535504,555.134843,-9724.431046
137.214014,650.847747,0.000000,-9724.431046
137.216589,746.560651,1205.982590,-10260.423309
137.219163,3962.514226,-153.140646,-9934.999435
137.221737,-153.140646,2086.541307,-9858.429112
137.224312,-727.418070,153.140646,-9801.001370
137.226886,1722.832272,1129.412267,-9399.007173
137.229461,1033.699363,1339.980656,-10107.282662
137.232035,153.140646,631.705166,-10375.278794
137.234609,1378.265818,574.277424,-10011.569758
137.237184,1607.976787,861.416136,-9284.151688
137.239758,957.129040,401.994197,-10145.567824
137.242329,1703.689691,899.701298,-10126.425243
137.244906,669.990328,803.988394,-9877.571693
137.247483,287.138712,382.851616,-10049.854920
137.250060,957.129040,861.416136,-9743.573627
137.252637,823.130974,363.709035,-9992.427178
137.255215,1627.119368,1320.838075,-10030.712339
137.257792,114.855485,708.275490,-9915.856854
137.260369,1875.972918,440.279358,-9896.714274
137.262946,2239.681954,1110.269686,-9801.001370
137.265523,1569.691626,114.855485,-10202.995566
137.268100,363.709035,669.990328,-9533.005238
137.270677,803.988394,1875.972918,-10183.852986
137.273255,803.988394,-114.855485,-10375.278794
137.275832,2124.826469,76.570323,-9667.003304
137.278409,1148.554848,1569.691626,-9781.858789
137.280986,708.275490,-535.992262,-10260.423309
137.283563,784.845813,2105.683888,-9896.714274
137.286140,-1971.685822,765.703232,-9877.571693
137.288717,-172.283227,-287.138712,-9934.999435
137.291294,861.416136,1952.543242,-9801.001370
137.293872,-1454.836141,-918.843878,-10815.558152
137.296449,95.712904,2335.394858,-9533.005238
137.299026,1397.408398,95.712904,-9954.142016
137.301603,-957.129040,1071.984525,-9552.147819
137.304180,-612.562586,708.275490,-10241.280728
137.306757,765.703232,765.703232,-9954.142016
137.309334,746.560651,650.847747,-9705.288466
137.311912,-38.285162,401.994197,-9915.856854
137.314489,-401.994197,1205.982590,-9973.284597
137.317066,-344.566454,478.564520,-9934.999435
137.319643,631.705166,823.130974,-10126.425243
137.322220,555.134843,727.418070,-10126.425243
137.324797,-746.560651,229.710970,-9781.858789
137.327374,1071.984525,1186.840010,-9724.431046
137.329952,-918.843878,669.990328,-10030.712339
137.332529,-76.570323,727.418070,-10068.997501
137.335106,-803.988394,1339.980656,-10126.425243
137.337683,-1397.408398,382.851616,-10030.712339
137.340260,957.129040,1091.127106,-9475.577496
137.342837,114.855485,-57.427742,-10164.710405
137.345416,-880.558717,1837.687757,-9915.856854
137.347994,1607.976787,38.285162,-10183.852986
137.350573,-1646.261949,1416.550979,-9973.284597
137.353151,1971.685822,401.994197,-9513.862658
137.355730,287.138712,-172.283227,-9858.429112
137.358308,1071.984525,1856.830338,-10241.280728
137.360887,3943.371645,-535.992262,-9820.143950
137.363465,-382.851616,2182.254211,-9877.571693
137.366044,-899.701298,1033.699363,-9781.858789
137.368622,1320.838075,535.992262,-9552.147819
137.371201,727.418070,1512.263883,-10164.710405
137.373779,669.990328,593.420005,-10279.565890
137.376358,1167.697429,765.703232,-9992.427178
137.378936,1895.115499,689.132909,-9303.294269
137.381515,1282.552914,478.564520,-9801.001370
137.384093,-57.427742,1033.699363,-10126.425243
137.386671,1531.406464,1052.841944,-9724.431046
137.389250,1129.412267,210.568389,-9820.143950
137.391828,-191.425808,1110.269686,-9858.429112
137.394407,1990.828403,555.134843,-9839.286531
137.396985,421.136778,842.273555,-10030.712339
137.399564,1435.693560,937.986459,-10126.425243
137.402142,1971.685822,516.849682,-9801.001370
137.404721,2163.111630,765.703232,-9820.143950
137.407299,229.710970,0.000000,-9877.571693
137.409878,1454.836141,1569.691626,-9686.145885
137.412456,1359.123237,-191.425808,-10260.423309
137.415035,114.855485,1282.552914,-9781.858789
137.417613,2067.398726,248.853550,-9896.714274
137.420192,1205.982590,459.421939,-9858.429112
137.422770,861.416136,1607.976787,-9877.571693
137.425349,-1818.545176,-114.855485,-10183.852986
137.427927,-95.712904,440.279358,-9877.571693
137.430506,-497.707101,1397.408398,-9571.290400
137.433084,-516.849682,-19.142581,-10643.274925
137.435663,306.281293,2833.101958,-9341.579430
137.438241,650.847747,-306.281293,-9877.571693
137.440820,-306.281293,363.709035,-10260.423309
137.443398,-842.273555,1588.834206,-9762.716208
137.445976,-248.853550,-344.566454,-10451.849117
137.448556,-210.568389,1761.117434,-9724.431046
137.451136,1933.400661,0.000000,-10241.280728
137.453715,-708.275490,880.558717,-9724.431046
137.456295,325.423874,1378.265818,-10011.569758
137.458875,-191.425808,-76.570323,-10432.706536
137.461454,382.851616,1512.263883,-9647.860723
137.464034,401.994197,401.994197,-10279.565890
137.466613,-267.996131,306.281293,-10011.569758
137.469193,516.849682,1110.269686,-9667.003304
137.471773,-19.142581,382.851616,-10490.134278
137.474352,-1397.408398,1339.980656,-9915.856854
137.476932,-1091.127106,-344.566454,-10107.282662
137.479511,861.416136,1378.265818,-9705.288466
137.482091,-937.986459,-440.279358,-10145.567824
137.484671,-650.847747,1282.552914,-9992.427178
137.487250,1397.408398,612.562586,-9839.286531
137.489830,-1837.687757,1014.556782,-10145.567824
137.492409,2201.396792,401.994197,-9820.143950
137.494989,401.994197,344.566454,-9571.290400
137.497569,918.843878,995.414202,-10336.993632
137.500148,4019.941968,76.570323,-10030.712339
137.502728,-593.420005,1186.840010,-9686.145885
137.505307,-746.560651,1071.984525,-9896.714274
137.507887,1301.695494,861.416136,-9552.147819
137.510467,612.562586,1167.697429,-9973.284597
137.513046,382.851616,689.132909,-10145.567824
137.515626,1703.689691,1014.556782,-9934.999435
137.518205,2029.113565,497.707101,-9456.434915
137.520785,-191.425808,535.992262,-9839.286531
137.523365,899.701298,1071.984525,-10049.854920
137.525944,1627.119368,516.849682,-9858.429112
137.528524,-459.421939,746.560651,-10030.712339
137.531103,497.707101,1071.984525,-9801.001370
137.533683,1512.263883,440.279358,-9858.429112
137.536263,-382.851616,1014.556782,-9820.143950
137.538842,1665.404530,708.275490,-9820.143950
137.541422,2909.672282,401.994197,-9858.429112
137.544001,76.570323,478.564520,-9973.284597
137.546581,1952.543242,1359.123237,-9379.864592
137.549161,1435.693560,19.142581,-10126.425243
137.551741,-1167.697429,1473.978722,-10088.140082
137.554322,2718.246474,-95.712904,-9762.716208
137.556903,995.414202,1665.404530,-9915.856854
137.559484,669.990328,325.423874,-10068.997501
137.562065,-497.707101,765.703232,-9781.858789
137.564646,-210.568389,842.273555,-9801.001370
137.567226,-976.271621,229.710970,-9686.145885
137.569807,-133.998066,1244.267752,-10336.993632
137.572388,76.570323,382.851616,-9973.284597
137.574969,-344.566454,1148.554848,-9820.143950
137.577550,1416.550979,38.285162,-9801.001370
137.580131,-306.281293,1359.123237,-9647.860723
137.582711,-631.705166,-363.709035,-10719.845248
137.585292,133.998066,1550.549045,-9724.431046
137.587873,765.703232,287.138712,-9954.142016
137.590454,229.710970,95.712904,-10088.140082
137.593035,38.285162,1205.982590,-9609.575562
137.595615,-19.142581,-153.140646,-10356.136213
137.598196,114.855485,1320.838075,-9762.716208
137.600777,1895.115499,363.709035,-10317.851051
137.603358,-976.271621,421.136778,-9954.142016
137.605939,-861.416136,1263.410333,-9686.145885
137.608520,57.427742,325.423874,-10566.704602
137.611100,-1378.265818,1167.697429,-9781.858789
137.613681,-2048.256146,995.414202,-9915.856854
137.616262,2220.539373,1033.699363,-10164.710405
137.618843,-382.851616,0.000000,-9858.429112
137.621424,-1205.982590,1416.550979,-9896.714274
137.624004,2029.113565,440.279358,-10241.280728
137.626585,-1665.404530,1263.410333,-9973.284597
137.629166,382.851616,1129.412267,-10011.569758
137.631747,2354.537438,593.420005,-9437.292334
137.634328,1531.406464,765.703232,-10356.136213
137.636909,1531.406464,1033.699363,-10068.997501
137.639489,689.132909,823.130974,-10049.854920
137.642070,-612.562586,593.420005,-9762.716208
137.644651,918.843878,631.705166,-9647.860723
137.647232,1033.699363,1473.978722,-10356.136213
137.649813,727.418070,306.281293,-10260.423309
137.652394,957.129040,574.277424,-9647.860723
137.654974,2124.826469,784.845813,-9475.577496
137.657555,114.855485,172.283227,-10011.569758
137.660136,1071.984525,1148.554848,-9896.714274
137.662717,1052.841944,555.134843,-9781.858789
137.665298,-38.285162,459.421939,-10049.854920
137.667879,976.271621,976.271621,-9801.001370
137.670460,1454.836141,421.136778,-9801.001370
137.673041,1550.549045,1167.697429,-10088.140082
137.675622,1493.121302,957.129040,-9667.003304
137.678203,2450.250342,229.710970,-9973.284597
137.680784,114.855485,784.845813,-9724.431046
137.683365,1531.406464,1129.412267,-9954.142016
137.685946,1148.554848,459.421939,-9571.290400
137.688527,306.281293,861.416136,-9801.001370
137.691108,1148.554848,937.986459,-9973.284597
137.693689,842.273555,248.853550,-9801.001370
137.696270,1167.697429,2316.252277,-9686.145885
137.698851,-1703.689691,478.564520,-9781.858789
137.701432,-325.423874,-267.996131,-10260.423309
137.704013,421.136778,2316.252277,-9801.001370
137.706594,-823.130974,-746.560651,-10585.847182
137.709175,-210.568389,2029.113565,-9686.145885
137.711756,1033.699363,114.855485,-9667.003304
137.714337,133.998066,727.418070,-9781.858789
137.716918,-1186.840010,918.843878,-10241.280728
137.719499,19.142581,153.140646,-10068.997501
137.722080,842.273555,1761.117434,-9571.290400
137.724661,478.564520,-325.423874,-10164.710405
137.727242,287.138712,1454.836141,-9724.431046
137.729823,76.570323,918.843878,-9667.003304
137.732404,-76.570323,210.568389,-10470.991698
137.734985,-133.998066,1493.121302,-9762.716208
137.737566,1895.115499,229.710970,-9724.431046
137.740147,574.277424,497.707101,-10030.712339
137.742728,-1435.693560,1263.410333,-9839.286531
137.745309,-1052.841944,210.568389,-10260.423309
137.747890,-1091.127106,1148.554848,-10030.712339
137.750471,1895.115499,995.414202,-9781.858789
137.753052,-76.570323,-114.855485,-9858.429112
137.755632,-1205.982590,1205.982590,-9992.427178
137.758214,1416.550979,19.142581,-9877.571693
137.760795,-1761.117434,1914.258080,-9992.427178
137.763376,497.707101,612.562586,-10145.567824
137.765958,2947.957443,593.420005,-9188.438784
137.768539,1971.685822,899.701298,-10413.563955
137.771120,1339.980656,861.416136,-10202.995566
137.773702,1014.556782,669.990328,-9858.429112
137.776283,-899.701298,803.988394,-10011.569758
137.778864,1014.556782,-153.140646,-9724.431046
137.781446,1339.980656,1435.693560,-10011.569758
137.784027,459.421939,363.709035,-10432.706536
137.786608,1282.552914,382.851616,-9781.858789
137.789190,1129.412267,1186.840010,-9533.005238
137.791771,1780.260014,-19.142581,-10260.423309
137.794352,-191.425808,918.843878,-9915.856854
137.796933,1301.695494,899.701298,-9973.284597
137.799515,-325.423874,401.994197,-10145.567824
137.802096,1167.697429,612.562586,-10030.712339
137.804677,535.992262,1167.697429,-9647.860723
137.807259,784.845813,593.420005,-9954.142016
137.809840,1665.404530,842.273555,-10030.712339
137.812421,1339.980656,555.134843,-9667.003304
137.815003,1550.549045,1569.691626,-9934.999435
137.817584,1684.547110,-306.281293,-10241.280728
137.820165,-823.130974,1952.543242,-9667.003304
137.822747,1761.117434,-555.134843,-10068.997501
137.825328,1378.265818,1282.552914,-10317.851051
137.827909,957.129040,172.283227,-9934.999435
137.830490,593.420005,1148.554848,-9724.431046
137.833072,-325.423874,727.418070,-9609.575562
137.835653,-535.992262,899.701298,-9494.720077
137.838234,-535.992262,708.275490,-10681.560086
137.840816,-765.703232,937.986459,-9896.714274
137.843397,267.996131,937.986459,-9609.575562
137.845978,937.986459,248.853550,-9934.999435
137.848560,-689.132909,1244.267752,-9839.286531
137.851141,-1397.408398,574.277424,-10356.136213
137.853722,153.140646,535.992262,-10068.997501
137.856304,1550.549045,593.420005,-9647.860723
137.858885,-325.423874,363.709035,-10145.567824
137.861439,-248.853550,1148.554848,-9820.143950
137.863992,650.847747,172.283227,-9973.284597
137.866546,421.136778,1091.127106,-9896.714274
137.869100,-1588.834206,459.421939,-10336.993632
137.871654,1588.834206,325.423874,-9533.005238
137.874208,-516.849682,1129.412267,-9954.142016
137.876761,-1895.115499,593.420005,-10624.132344
137.879315,-1454.836141,1607.976787,-9552.147819
137.881869,1627.119368,1186.840010,-10202.995566
137.884423,-669.990328,-976.271621,-10126.425243
137.886977,-995.414202,2258.824534,-9265.009107
137.889531,2124.826469,-191.425808,-10432.706536
137.892084,-1780.260014,1378.265818,-9934.999435
137.894638,1512.263883,1014.556782,-9686.145885
137.897192,1359.123237,363.709035,-9590.432981
137.899746,631.705166,1244.267752,-10145.567824
137.902300,1569.691626,899.701298,-10260.423309
137.904853,1033.699363,1071.984525,-9705.288466
137.907407,-803.988394,153.140646,-9934.999435
137.909961,650.847747,669.990328,-9705.288466
137.912515,1244.267752,1531.406464,-10068.997501
137.915069,191.425808,-287.138712,-10413.563955
137.917622,1167.697429,1091.127106,-9590.432981
137.920176,1952.543242,957.129040,-9801.001370
137.922730,1473.978722,-19.142581,-10317.851051
137.925284,172.283227,1454.836141,-9992.427178
137.927838,1263.410333,535.992262,-9896.714274
137.930391,976.271621,191.425808,-10011.569758
137.932945,995.414202,1110.269686,-10011.569758
137.935499,995.414202,497.707101,-9877.571693
137.938053,1971.685822,248.853550,-9915.856854
137.940607,1990.828403,1110.269686,-9877.571693
137.943160,631.705166,153.140646,-9858.429112
137.945714,1665.404530,1263.410333,-10049.854920
137.948268,2067.398726,631.705166,-9839.286531
137.950822,-229.710970,803.988394,-9801.001370
137.953376,842.273555,593.420005,-10107.282662
137.955929,1454.836141,842.273555,-9877.571693
137.958483,1397.408398,1550.549045,-9801.001370
137.961037,-2584.248408,133.998066,-9954.142016
137.963595,440.279358,401.994197,-9724.431046
137.966153,172.283227,1761.117434,-9877.571693
137.968711,-1359.123237,-842.273555,-10968.698798
137.971269,38.285162,2928.814862,-9150.153622
137.973827,727.418070,-669.990328,-10049.854920
137.976386,-95.712904,421.136778,-10049.854920
137.978944,-248.853550,2124.826469,-9303.294269
137.981502,-784.845813,-555.134843,-10949.556218
137.984060,-631.705166,1569.691626,-9341.579430
137.986618,2297.109696,535.992262,-9743.573627
137.989176,-38.285162,229.710970,-10317.851051
137.991734,-803.988394,1071.984525,-9590.432981
137.994292,497.707101,363.709035,-10068.997501
137.996850,-1091.127106,1052.841944,-10279.565890
137.999408,957.129040,401.994197,-9858.429112
138.001966,133.998066,593.420005,-9667.003304
138.004524,-1378.265818,344.566454,-10241.280728
138.007082,-2239.681954,842.273555,-9724.431046
138.009640,1818.545176,1550.549045,-10049.854920
138.012198,-478.564520,-746.560651,-10336.993632
138.014757,-899.701298,1378.265818,-9533.005238
138.017315,2029.113565,535.992262,-9934.999435
138.019873,-1665.404530,995.414202,-10202.995566
138.022431,1895.115499,325.423874,-9858.429112
138.024989,267.996131,440.279358,-9781.858789
138.027547,1014.556782,765.703232,-10202.995566
138.030105,2775.674216,363.709035,-10030.712339
138.032663,612.562586,2029.113565,-10011.569758
138.035221,-1110.269686,-191.425808,-10068.997501
138.037779,1933.400661,1339.980656,-9245.866526
138.040337,669.990328,918.843878,-10470.991698
138.042895,555.134843,382.851616,-10260.423309
138.045453,1837.687757,1014.556782,-9513.862658
138.048011,1493.121302,746.560651,-9915.856854
138.050569,-344.566454,-267.996131,-10260.423309
138.053128,995.414202,1339.980656,-9839.286531
138.055686,1244.267752,899.701298,-10030.712339
138.058244,421.136778,-191.425808,-10145.567824
138.060802,823.130974,1186.840010,-9571.290400
138.063360,765.703232,1033.699363,-9954.142016
138.065922,1646.261949,-363.709035,-10356.136213
138.068484,1933.400661,1397.408398,-9743.573627
138.071046,1129.412267,880.558717,-10049.854920
138.073608,1263.410333,-76.570323,-10451.849117
138.076170,306.281293,1301.695494,-9456.434915
138.078732,1129.412267,459.421939,-9667.003304
138.081294,248.853550,1033.699363,-10394.421374
138.083856,746.560651,19.142581,-10088.140082
138.086418,1895.115499,2354.537438,-9647.860723
138.088980,-2163.111630,-497.707101,-10394.421374
138.091542,191.425808,287.138712,-9992.427178
138.094104,-38.285162,2450.250342,-9628.718142
138.096666,-1052.841944,-1148.554848,-11064.411702
138.099228,248.853550,2603.390989,-9111.868461
138.101790,1359.123237,-440.279358,-9705.288466
138.104352,-478.564520,344.566454,-10222.138147
138.106914,-708.275490,1722.832272,-9686.145885
138.109476,-421.136778,-191.425808,-10451.849117
138.112038,-306.281293,1167.697429,-9839.286531
138.114600,1837.687757,478.564520,-9762.716208
138.117162,555.134843,727.418070,-9992.427178
138.119724,-650.847747,650.847747,-9820.143950
138.122286,-191.425808,1033.699363,-10068.997501
138.124848,765.703232,937.986459,-10202.995566
138.127410,555.134843,497.707101,-9839.286531
138.129972,-1301.695494,1205.982590,-9781.858789
138.132534,-1033.699363,363.709035,-10068.997501
138.135096,-842.273555,784.845813,-9896.714274
138.137658,-440.279358,1454.836141,-10145.567824
138.140220,248.853550,229.710970,-9858.429112
138.142782,153.140646,497.707101,-9686.145885
138.145344,-248.853550,1627.119368,-9934.999435
138.147906,1454.836141,535.992262,-10068.997501
138.150468,-440.279358,-76.570323,-10241.280728
138.153030,2220.539373,2009.970984,-9341.579430
138.155592,3349.951640,-382.851616,-10260.423309
138.158154,0.000000,1320.838075,-10183.852986
138.160716,1339.980656,248.853550,-9667.003304
138.163278,727.418070,689.132909,-10030.712339
138.165840,-382.851616,172.283227,-10298.708470
138.168379,823.130974,1914.258080,-9705.288466
138.170918,1818.545176,-57.427742,-10049.854920
138.173457,842.273555,497.707101,-9877.571693
138.175996,1780.260014,1703.689691,-9762.716208
138.178535,1167.697429,-95.712904,-10183.852986
138.181074,-133.998066,784.845813,-9934.999435
138.183613,1359.123237,1435.693560,-10011.569758
138.186152,-38.285162,0.000000,-9973.284597
138.188691,1052.841944,937.986459,-9934.999435
138.191230,2794.816797,918.843878,-10030.712339
138.193770,765.703232,133.998066,-10030.712339
138.196309,1627.119368,765.703232,-9762.716208
138.198848,2622.533570,1263.410333,-10088.140082
138.201387,803.988394,133.998066,-9781.858789
138.203926,401.994197,363.709035,-9647.860723
138.206465,440.279358,1761.117434,-10049.854920
138.209004,306.281293,-861.416136,-10681.560086
138.211543,2163.111630,2335.394858,-9609.575562
138.214082,-1569.691626,689.132909,-9858.429112
138.216621,-344.566454,-995.414202,-10202.995566
138.219160,133.998066,2584.248408,-9513.862658
138.221699,-1225.125171,-727.418070,-10987.841379
138.224238,-191.425808,1607.976787,-9609.575562
138.226777,899.701298,153.140646,-9552.147819
138.229316,421.136778,650.847747,-9877.571693
138.231855,-1282.552914,995.414202,-10202.995566
138.234394,-574.277424,325.423874,-10260.423309
138.236933,842.273555,1875.972918,-9590.432981
138.239473,382.851616,-765.703232,-10336.993632
138.242012,382.851616,1512.263883,-9724.431046
138.244551,631.705166,1244.267752,-9686.145885
138.247090,-95.712904,-708.275490,-10681.560086
138.249629,287.138712,1684.547110,-9513.862658
138.252168,957.129040,861.416136,-9858.429112
138.254707,-459.421939,-325.423874,-10126.425243
138.257246,-2143.969050,1933.400661,-9341.579430
138.259785,478.564520,937.986459,-10222.138147
138.262324,-1052.841944,-574.277424,-10356.136213
138.264863,-593.420005,2163.111630,-9590.432981
138.267402,1895.115499,229.710970,-9858.429112
138.269914,-976.271621,1091.127106,-10030.712339
138.272435,2067.398726,497.707101,-9839.286531
138.274956,-133.998066,344.566454,-9877.571693
138.277477,267.996131,1052.841944,-10145.567824
138.279997,3579.662610,344.566454,-9820.143950
138.282518,861.416136,1914.258080,-9820.143950
138.285039,-1091.127106,-191.425808,-9954.142016
138.287560,2258.824534,1722.832272,-9207.581365
138.290080,-153.140646,459.421939,-10624.132344
138.292601,133.998066,784.845813,-10011.569758
138.295122,1703.689691,1320.838075,-9705.288466
138.297643,1837.687757,363.709035,-10164.710405
138.300163,842.273555,574.277424,-9667.003304
138.302684,1014.556782,1359.123237,-10298.708470
138.305205,727.418070,153.140646,-10164.710405
138.307726,669.990328,306.281293,-9475.577496
138.310246,555.134843,1416.550979,-9858.429112
138.312767,1607.976787,325.423874,-10068.997501
138.315288,1588.834206,191.425808,-10030.712339
138.317809,765.703232,1435.693560,-9781.858789
138.320330,3254.238736,1071.984525,-10164.710405
138.322850,1722.832272,267.996131,-9820.143950
138.325371,-210.568389,1473.978722,-9590.432981
138.327892,669.990328,57.427742,-10107.282662
138.330413,1129.412267,191.425808,-10088.140082
138.332933,1722.832272,2488.535504,-9609.575562
138.335454,-1493.121302,-669.990328,-10222.138147
138.337975,57.427742,19.142581,-9628.718142
138.340496,-957.129040,2163.111630,-9456.434915
138.343016,-478.564520,-267.996131,-10911.271056
138.345537,-440.279358,2220.539373,-9609.575562
138.348058,746.560651,918.843878,-9456.434915
138.350579,689.132909,-516.849682,-10049.854920
138.353099,57.427742,1933.400661,-9647.860723
138.355620,-1397.408398,708.275490,-10470.991698
138.358141,-669.990328,689.132909,-9915.856854
138.360662,1646.261949,937.986459,-9820.143950
138.363183,669.990328,765.703232,-9647.860723
138.365703,-746.560651,612.562586,-9934.999435
138.368224,593.420005,612.562586,-10298.708470
138.370755,918.843878,1397.408398,-9513.862658
138.373286,-1129.412267,229.710970,-10336.993632
138.375817,-1627.119368,842.273555,-9724.431046
138.378348,-861.416136,1014.556782,-9437.292334
138.380879,287.138712,287.138712,-10719.845248
138.383410,-1186.840010,727.418070,-9705.288466
138.385941,-669.990328,1129.412267,-9877.571693
138.388472,2201.396792,-631.705166,-10260.423309
138.391003,-1205.982590,2354.537438,-9284.151688
138.393534,1895.115499,153.140646,-10164.710405
138.396064,593.420005,-57.427742,-9667.003304
138.398595,1244.267752,1493.121302,-10068.997501
138.401126,2220.539373,210.568389,-10547.562021
138.403657,1071.984525,669.990328,-9762.716208
138.406188,-880.558717,861.416136,-9839.286531
138.408719,2335.394858,957.129040,-9686.145885
138.411250,248.853550,-76.570323,-10566.704602
138.413781,38.285162,1186.840010,-9992.427178
138.416312,1856.830338,937.986459,-9743.573627
138.418843,1933.400661,-191.425808,-10030.712339
138.421374,76.570323,1397.408398,-9781.858789
138.423905,918.843878,842.273555,-10566.704602
138.426436,899.701298,114.855485,-9934.999435
138.428967,593.420005,1397.408398,-9475.577496
138.431498,669.990328,478.564520,-10145.567824
138.434029,1148.554848,248.853550,-9839.286531
138.436560,1014.556782,880.558717,-9954.142016
138.439091,2947.957443,1722.832272,-10107.282662
138.441621,1895.115499,-287.138712,-10088.140082
138.444152,-1569.691626,2182.254211,-9743.573627
138.446683,1359.123237,-727.418070,-10183.852986
138.449214,1225.125171,1378.265818,-9743.573627
138.451745,535.992262,229.710970,-10681.560086
138.454276,1665.404530,1512.263883,-9820.143950
138.456807,-937.986459,459.421939,-9360.722011
138.459338,-1397.408398,153.140646,-9896.714274
138.461869,459.421939,1799.402595,-9973.284597
138.464400,-1033.699363,-937.986459,-10624.132344
138.466931,172.283227,1741.974853,-9877.571693
138.469462,1473.978722,-267.996131,-9743.573627
138.472001,-421.136778,765.703232,-9801.001370
138.474540,-1397.408398,1665.404530,-10164.710405
138.477079,-325.423874,-153.140646,-10490.134278
138.479618,-95.712904,1110.269686,-9705.288466
138.482157,918.843878,1225.125171,-9781.858789
138.484696,957.129040,229.710970,-10145.567824
138.487235,-593.420005,1014.556782,-9705.288466
138.489775,-401.994197,1244.267752,-9992.427178
138.492314,-57.427742,555.134843,-10068.997501
138.494853,-153.140646,574.277424,-10107.282662
138.497392,-1550.549045,1301.695494,-9628.718142
138.499931,516.849682,421.136778,-10049.854920
138.502470,-1856.830338,-172.283227,-10164.710405
138.505009,-1129.412267,2431.107762,-9839.286531
138.507548,1818.545176,-574.277424,-10356.136213
138.510087,-516.849682,1473.978722,-9609.575562
138.512626,1818.545176,650.847747,-9973.284597
138.515165,210.568389,-497.707101,-9724.431046
138.517704,784.845813,2029.113565,-9954.142016
138.520244,3981.656806,-363.709035,-10088.140082
138.522783,287.138712,2067.398726,-9839.286531
138.525322,-306.281293,-114.855485,-9647.860723
138.527861,1607.976787,1607.976787,-9265.009107
138.530400,440.279358,287.138712,-10624.132344
138.532939,153.140646,1205.982590,-10183.852986
138.535478,1933.400661,976.271621,-9743.573627
138.538017,1052.841944,-57.427742,-9801.001370
138.540556,612.562586,1014.556782,-9762.716208
138.543095,1761.117434,899.701298,-10222.138147
138.545634,-401.994197,344.566454,-10068.997501
138.548173,478.564520,1091.127106,-9781.858789
138.550713,2124.826469,497.707101,-9858.429112
138.553252,1244.267752,478.564520,-9801.001370
138.555791,344.566454,555.134843,-10107.282662
138.558330,3388.236802,1110.269686,-10030.712339
138.560869,3139.383251,95.712904,-9896.714274
138.563408,-1473.978722,1741.974853,-9915.856854
138.565947,1205.982590,-172.283227,-10011.569758
138.568486,1301.695494,1129.412267,-9781.858789
138.571025,497.707101,440.279358,-10375.278794
138.573572,1282.552914,1646.261949,-9839.286531
138.576118,-631.705166,535.992262,-9552.147819
138.578665,-1244.267752,1339.980656,-9418.149754
138.581211,-650.847747,440.279358,-10585.847182
138.583757,-1014.556782,440.279358,-10356.136213
138.586304,95.712904,1875.972918,-9667.003304
138.588850,1761.117434,-325.423874,-9992.427178
138.591397,-287.138712,727.418070,-9877.571693
138.593943,-1091.127106,1397.408398,-10241.280728
138.596490,-133.998066,401.994197,-10183.852986
138.599036,-689.132909,631.705166,-9954.142016
138.601582,248.853550,1416.550979,-9686.145885
138.604129,1148.554848,842.273555,-9934.999435
138.606675,210.568389,76.570323,-10049.854920
138.609222,-765.703232,1320.838075,-9552.147819
138.611768,363.709035,765.703232,-10164.710405
138.614315,-459.421939,95.712904,-9973.284597
138.616861,-1856.830338,1569.691626,-9552.147819
138.619408,-57.427742,440.279358,-10241.280728
138.621954,-899.701298,114.855485,-9781.858789
138.624500,-880.558717,899.701298,-10164.710405
138.627047,1071.984525,172.283227,-10336.993632
138.629593,421.136778,1512.263883,-9379.864592
138.632140,-325.423874,421.136778,-10317.851051
138.634686,1933.400661,1014.556782,-9571.290400
138.637233,1971.685822,727.418070,-10164.710405
138.639779,1435.693560,1052.841944,-10126.425243
138.642325,1378.265818,401.994197,-9743.573627
138.644872,-650.847747,421.136778,-9877.571693
138.647418,153.140646,1205.982590,-10088.140082
138.649965,1225.125171,153.140646,-10241.280728
138.652511,650.847747,995.414202,-9973.284597
138.655058,1512.263883,765.703232,-9915.856854
138.657604,1627.119368,76.570323,-10068.997501
138.660151,421.136778,995.414202,-9896.714274
138.662697,861.416136,957.129040,-10049.854920
138.665243,669.990328,210.568389,-10394.421374
138.667790,19.142581,842.273555,-9456.434915
138.670336,2067.398726,803.988394,-10145.567824
138.672883,880.558717,153.140646,-10164.710405
138.695856,-1531.406464,-535.992262,-9858.429112
138.698409,-95.712904,1952.543242,-9686.145885
138.700961,-325.423874,-478.564520,-10853.843314
138.703514,-172.283227,1588.834206,-9533.005238
138.706066,861.416136,325.423874,-9724.431046
138.708619,899.701298,535.992262,-10068.997501
138.711172,-842.273555,861.416136,-9934.999435
138.713724,-880.558717,306.281293,-10279.565890
138.716277,344.566454,1148.554848,-10030.712339
138.718829,823.130974,-172.283227,-9513.862658
138.721382,-38.285162,1378.265818,-10049.854920
138.723935,918.843878,650.847747,-10260.423309
138.726487,-133.998066,401.994197,-9667.003304
138.729040,-976.271621,1684.547110,-9839.286531
138.731592,-172.283227,287.138712,-10183.852986
138.734145,-823.130974,765.703232,-9743.573627
138.736698,-2029.113565,459.421939,-10336.993632
138.739250,-899.701298,1148.554848,-9915.856854
138.741803,-459.421939,516.849682,-9858.429112
138.744355,555.134843,1263.410333,-10107.282662
138.746908,880.558717,689.132909,-10030.712339
138.749461,-172.283227,421.136778,-9820.143950
138.752013,1761.117434,1627.119368,-9456.434915
138.754566,2584.248408,287.138712,-10662.417506
138.757118,1244.267752,803.988394,-9954.142016
138.759671,784.845813,-153.140646,-9801.001370
138.762223,861.416136,440.279358,-10049.854920
138.764776,114.855485,1416.550979,-9724.431046
138.767329,1320.838075,746.560651,-9915.856854
138.769881,995.414202,478.564520,-10394.421374
138.772434,1435.693560,765.703232,-9494.720077
138.774986,593.420005,976.271621,-9667.003304
138.777544,861.416136,95.712904,-10375.278794
138.780102,1186.840010,1397.408398,-9475.577496
138.782660,1512.263883,861.416136,-10126.425243
138.785218,-57.427742,363.709035,-9858.429112
138.787776,1014.556782,1129.412267,-9150.153622
138.790334,2029.113565,574.277424,-10011.569758
138.792892,2545.963246,478.564520,-9954.142016
138.795450,1607.976787,1052.841944,-9705.288466
138.798008,267.996131,689.132909,-10126.425243
138.800566,-497.707101,497.707101,-9915.856854
138.803124,976.271621,803.988394,-9820.143950
138.805682,3081.955509,1627.119368,-10068.997501
138.808240,-1971.685822,-248.853550,-10145.567824
138.810798,38.285162,784.845813,-9399.007173
138.813356,-899.701298,1263.410333,-9743.573627
138.815913,-1454.836141,-899.701298,-10624.132344
138.818471,-382.851616,2373.680019,-9705.288466
138.821029,1952.543242,-57.427742,-10126.425243
138.823587,-76.570323,-95.712904,-9533.005238
138.826145,-344.566454,2239.681954,-9494.720077
138.828703,-287.138712,-325.423874,-11121.839445
138.831261,-1033.699363,650.847747,-9590.432981
138.833819,631.705166,1607.976787,-9820.143950
138.836377,823.130974,-38.285162,-10202.995566
138.838935,669.990328,1512.263883,-9418.149754
138.841493,-593.420005,823.130974,-10298.708470
138.844051,-248.853550,459.421939,-10011.569758
138.846609,-306.281293,497.707101,-9820.143950
138.849167,-1148.554848,1014.556782,-10183.852986
138.851725,-19.142581,937.986459,-9781.858789
138.854283,-1416.550979,-382.851616,-10183.852986
138.856841,-1607.976787,1818.545176,-10088.140082
138.859403,1282.552914,-19.142581,-10317.851051
138.861965,19.142581,1225.125171,-9954.142016
138.864527,-38.285162,1225.125171,-9667.003304
138.867089,2182.254211,-76.570323,-9877.571693
138.869651,1990.828403,1033.699363,-10356.136213
138.872213,1454.836141,1263.410333,-10088.140082
138.874775,1378.265818,-210.568389,-9858.429112
138.877337,-823.130974,803.988394,-9915.856854
138.879900,1799.402595,1339.980656,-9781.858789
138.882462,1263.410333,19.142581,-10451.849117
138.885024,765.703232,1205.982590,-9743.573627
138.887586,1473.978722,555.134843,-9456.434915
138.890148,1205.982590,-19.142581,-10260.423309
138.892710,708.275490,1244.267752,-9877.571693
138.895272,344.566454,1339.980656,-9628.718142
138.897834,497.707101,-210.568389,-10509.276859
138.900396,1148.554848,1301.695494,-9609.575562
138.902958,823.130974,937.986459,-9571.290400
138.905521,2163.111630,325.423874,-10470.991698
138.908083,2756.531635,1110.269686,-9418.149754
138.910645,2679.961312,995.414202,-9973.284597
138.913207,-325.423874,153.140646,-10394.421374
138.915769,-191.425808,1186.840010,-9150.153622
138.918331,1167.697429,650.847747,-9781.858789
138.920893,1971.685822,1091.127106,-10394.421374
138.923455,-1359.123237,574.277424,-9590.432981
138.926017,172.283227,746.560651,-9456.434915
138.928579,-650.847747,1493.121302,-9858.429112
138.931142,-1225.125171,287.138712,-10107.282662
138.933704,-229.710970,1646.261949,-10088.140082
138.936266,1148.554848,-19.142581,-10164.710405
138.938828,708.275490,880.558717,-9226.723946
138.941390,-38.285162,1646.261949,-9705.288466
138.943952,-918.843878,-478.564520,-10853.843314
138.946514,-861.416136,1722.832272,-9016.155557
138.949076,995.414202,784.845813,-9973.284597
138.951638,555.134843,0.000000,-9934.999435
138.954200,210.568389,1722.832272,-9437.292334
138.956763,-191.425808,57.427742,-10585.847182
138.959325,344.566454,842.273555,-10011.569758
138.961890,-650.847747,1244.267752,-9399.007173
138.964456,-516.849682,153.140646,-10356.136213
138.967022,-1512.263883,-76.570323,-10107.282662
138.969587,-1014.556782,1665.404530,-9513.862658
138.972153,-421.136778,172.283227,-10375.278794
138.974719,-478.564520,1148.554848,-9839.286531
138.977284,2124.826469,937.986459,-9667.003304
138.979850,76.570323,-612.562586,-10145.567824
138.982416,1129.412267,1320.838075,-9667.003304
138.984981,3637.090352,497.707101,-9973.284597
138.987547,1052.841944,1531.406464,-10394.421374
138.990113,918.843878,-746.560651,-9647.860723
138.992678,95.712904,1665.404530,-9169.296203
138.995244,1071.984525,535.992262,-10834.700733
138.997810,593.420005,650.847747,-9686.145885
139.000375,1359.123237,2201.396792,-9667.003304
139.002941,1339.980656,-459.421939,-10413.563955
139.005507,880.558717,899.701298,-9456.434915
139.008072,1014.556782,1703.689691,-9858.429112
139.010638,574.277424,-19.142581,-10470.991698
139.013204,2469.392923,899.701298,-9820.143950
139.015769,-382.851616,1473.978722,-9513.862658
139.018335,1033.699363,-153.140646,-10183.852986
139.020900,3847.658741,1454.836141,-9781.858789
139.023466,2928.814862,1205.982590,-9590.432981
139.026032,-765.703232,765.703232,-10490.134278
139.028597,784.845813,-191.425808,-10030.712339
139.031163,612.562586,2431.107762,-9360.722011
139.033729,1052.841944,-1205.982590,-10815.558152
139.036294,1550.549045,1550.549045,-9839.286531
139.038860,-669.990328,1875.972918,-9341.579430
139.041426,-995.414202,-535.992262,-10375.278794
139.043991,-727.418070,1588.834206,-9667.003304
139.046557,-1531.406464,1033.699363,-9820.143950
139.049123,842.273555,363.709035,-10394.421374
139.051688,957.129040,612.562586,-9552.147819
139.054254,535.992262,1416.550979,-9743.573627
139.056820,-1378.265818,-95.712904,-10758.130410
139.059385,248.853550,1225.125171,-9915.856854
139.061951,-306.281293,1225.125171,-9686.145885
139.064519,-344.566454,-306.281293,-10260.423309
139.067087,880.558717,1703.689691,-9360.722011
139.069656,631.705166,248.853550,-10107.282662
139.072224,-650.847747,248.853550,-10490.134278
139.074792,-382.851616,1397.408398,-9245.866526
139.077360,-153.140646,459.421939,-9973.284597
139.079928,-1607.976787,-440.279358,-10624.132344
139.082496,-535.992262,1550.549045,-9207.581365
139.085065,-1110.269686,267.996131,-10394.421374
139.087633,-363.709035,593.420005,-10394.421374
139.090201,1684.547110,1359.123237,-9169.296203
139.092769,-306.281293,-95.712904,-10260.423309
139.095337,1397.408398,727.418070,-9973.284597
139.097906,3541.377448,957.129040,-9571.290400
139.100474,1531.406464,1512.263883,-10356.136213
139.103042,1110.269686,-899.701298,-10183.852986
139.105610,-459.421939,1301.695494,-9073.583299
139.108178,1320.838075,823.130974,-10911.271056
139.110747,918.843878,-153.140646,-10068.997501
139.113315,1493.121302,2373.680019,-9265.009107
139.115883,-114.855485,-114.855485,-10222.138147
139.118451,1512.263883,497.707101,-9839.286531
139.121019,918.843878,2029.113565,-9379.864592
139.123587,-38.285162,382.851616,-10490.134278
139.126156,1091.127106,612.562586,-10183.852986
139.128724,708.275490,1684.547110,-9169.296203
139.131292,1684.547110,-95.712904,-10241.280728
139.133860,2622.533570,267.996131,-9934.999435
139.136428,3311.666478,1627.119368,-9456.434915
139.138997,-287.138712,631.705166,-10183.852986
139.141565,57.427742,-267.996131,-9954.142016
139.144133,1780.260014,1933.400661,-9303.294269
139.146701,1473.978722,229.710970,-10356.136213
139.149269,95.712904,38.285162,-9934.999435
139.151837,-153.140646,1799.402595,-9169.296203
139.154406,-1225.125171,708.275490,-10011.569758
139.156974,-1014.556782,172.283227,-10490.134278
139.159542,-1493.121302,2124.826469,-9647.860723
139.162110,1493.121302,19.142581,-10222.138147
139.164678,1014.556782,-57.427742,-9686.145885
139.167242,57.427742,2373.680019,-9590.432981
139.169812,-1205.982590,-401.994197,-11026.126541
139.172382,478.564520,823.130974,-9609.575562
139.174953,-229.710970,1914.258080,-9533.005238
139.177523,-153.140646,-325.423874,-10356.136213
139.180094,114.855485,1320.838075,-9379.864592
139.182664,325.423874,976.271621,-9973.284597
139.185235,-899.701298,-95.712904,-10490.134278
139.187805,-1263.410333,995.414202,-9915.856854
139.190376,76.570323,861.416136,-10183.852986
139.192946,-1550.549045,-325.423874,-10183.852986
139.195517,-1454.836141,765.703232,-9992.427178
139.198087,2335.394858,1052.841944,-9858.429112
139.200657,-995.414202,459.421939,-10279.565890
139.203228,1435.693560,650.847747,-9801.001370
139.205798,803.988394,995.414202,-9035.298138
139.208369,918.843878,306.281293,-10777.272990
139.210939,4517.649069,191.425808,-10107.282662
139.213510,1799.402595,1282.552914,-9686.145885
139.216080,-1225.125171,-421.136778,-10413.563955
139.218651,823.130974,1761.117434,-9245.866526
139.221221,1588.834206,784.845813,-10451.849117
139.223791,708.275490,-153.140646,-10604.989763
139.226362,2297.109696,1741.974853,-9456.434915
139.228932,-38.285162,478.564520,-9781.858789
139.231503,325.423874,19.142581,-9973.284597
139.234073,1875.972918,1952.543242,-9609.575562
139.236644,1186.840010,153.140646,-10298.708470
139.239214,325.423874,19.142581,-10068.997501
139.241785,1110.269686,1837.687757,-9609.575562
139.244355,3369.094221,669.990328,-10068.997501
139.246926,2986.242605,-191.425808,-10126.425243
139.249496,-153.140646,2392.822600,-9820.143950
139.252066,823.130974,-248.853550,-10222.138147
139.254637,612.562586,727.418070,-9915.856854
139.257207,1952.543242,1569.691626,-9590.432981
139.259778,95.712904,0.000000,-10241.280728
139.262348,-401.994197,708.275490,-9590.432981
139.264919,-1569.691626,1205.982590,-9418.149754
139.267489,-535.992262,784.845813,-10241.280728
139.270062,-746.560651,-344.566454,-10470.991698
139.272634,459.421939,2373.680019,-9456.434915
139.275207,1186.840010,-191.425808,-9954.142016
139.277779,0.000000,191.425808,-10030.712339
139.280352,-765.703232,1550.549045,-10030.712339
139.282924,-153.140646,191.425808,-10145.567824
139.285497,-440.279358,401.994197,-10049.854920
139.288069,1703.689691,1799.402595,-9111.868461
139.290642,-19.142581,95.712904,-10241.280728
139.293214,-1607.976787,267.996131,-10451.849117
139.295787,861.416136,1837.687757,-9303.294269
139.298359,-1205.982590,306.281293,-10356.136213
139.300932,-267.996131,344.566454,-10011.569758
139.303504,-899.701298,1397.408398,-9322.436850
139.306077,-1052.841944,-287.138712,-10700.702667
139.308649,1990.828403,191.425808,-10049.854920
139.311222,-880.558717,2335.394858,-9418.149754
139.313794,1569.691626,-267.996131,-10470.991698
139.316367,516.849682,325.423874,-9322.436850
139.318939,727.418070,2067.398726,-9858.429112
139.321512,4728.217458,-497.707101,-10375.278794
139.324084,746.560651,1493.121302,-10011.569758
139.326657,-1052.841944,1129.412267,-9647.860723
139.329229,880.558717,421.136778,-9915.856854
139.331802,1665.404530,478.564520,-10298.708470
139.334374,861.416136,1550.549045,-9686.145885
139.336947,1971.685822,497.707101,-10049.854920
139.339520,325.423874,133.998066,-9743.573627
139.342092,516.849682,1914.258080,-9207.581365
139.344665,957.129040,19.142581,-10566.704602
139.347237,344.566454,784.845813,-9915.856854
139.349810,-1205.982590,497.707101,-10011.569758
139.352382,2182.254211,344.566454,-10164.710405
139.354955,3235.096155,1052.841944,-9265.009107
139.357527,2258.824534,803.988394,-10030.712339
139.360100,803.988394,248.853550,-10317.851051
139.362672,593.420005,535.992262,-9743.573627
139.365245,784.845813,1569.691626,-9686.145885
139.367817,2201.396792,-287.138712,-10490.134278
139.370390,-440.279358,631.705166,-9667.003304
139.372963,-191.425808,746.560651,-10222.138147
139.375537,-1320.838075,593.420005,-9839.286531
139.378111,-861.416136,823.130974,-10202.995566
139.380684,-1627.119368,1512.263883,-9973.284597
139.383258,1588.834206,-248.853550,-10375.278794
139.385832,229.710970,574.277424,-9379.864592
139.388405,95.712904,1818.545176,-9705.288466
139.390979,133.998066,-535.992262,-10930.413637
139.393553,-421.136778,1971.685822,-9284.151688
139.396126,516.849682,497.707101,-10451.849117
139.398700,478.564520,-421.136778,-9934.999435
139.401274,1186.840010,1665.404530,-9475.577496
139.403847,-1167.697429,459.421939,-10394.421374
139.406421,-1301.695494,95.712904,-9915.856854
139.408995,669.990328,1569.691626,-9705.288466
139.411568,-1033.699363,172.283227,-10317.851051
139.414142,-1684.547110,574.277424,-9915.856854
139.416716,1071.984525,1110.269686,-10088.140082
139.419289,803.988394,1167.697429,-10068.997501
139.421863,114.855485,-153.140646,-10049.854920
139.424437,-325.423874,880.558717,-9858.429112
139.427010,2545.963246,1186.840010,-9705.288466
139.429584,3254.238736,-746.560651,-10298.708470
139.432158,1531.406464,2526.820666,-9973.284597
139.434732,1646.261949,-497.707101,-10011.569758
139.437305,-995.414202,-57.427742,-9686.145885
139.439879,784.845813,1914.258080,-10241.280728
139.442453,2163.111630,-421.136778,-10509.276859
139.445026,784.845813,784.845813,-9877.571693
139.447600,1033.699363,1244.267752,-9590.432981
139.450174,1052.841944,95.712904,-10030.712339
139.452747,-76.570323,-153.140646,-10202.995566
139.455321,574.277424,1837.687757,-9667.003304
139.457895,1914.258080,0.000000,-10662.417506
139.460468,421.136778,-191.425808,-9973.284597
139.463042,2163.111630,2297.109696,-9265.009107
139.465616,3675.375514,-612.562586,-10604.989763
139.468189,-57.427742,1167.697429,-9571.290400
139.470763,325.423874,1033.699363,-9934.999435
139.473337,1359.123237,689.132909,-10260.423309
139.475911,1071.984525,-727.418070,-10183.852986
139.478486,899.701298,2316.252277,-9762.716208
139.481061,267.996131,459.421939,-9839.286531
139.483635,-1684.547110,-976.271621,-10241.280728
139.486210,-1435.693560,1952.543242,-9992.427178
139.488785,-880.558717,-114.855485,-10451.849117
139.491359,784.845813,995.414202,-9724.431046
139.493934,803.988394,1071.984525,-9418.149754
139.496509,899.701298,248.853550,-10375.278794
139.499083,-516.849682,669.990328,-9973.284597
139.501658,-1607.976787,1378.265818,-9858.429112
139.504233,210.568389,153.140646,-10260.423309
139.506807,1186.840010,574.277424,-9590.432981
139.509382,-746.560651,1263.410333,-9820.143950
139.511957,-459.421939,-38.285162,-10222.138147
139.514532,-363.709035,1091.127106,-9781.858789
139.517106,-612.562586,1722.832272,-10126.425243
139.519681,-1225.125171,-842.273555,-10088.140082
139.522256,-1359.123237,1933.400661,-9647.860723
139.524830,-76.570323,1167.697429,-10049.854920
139.527405,689.132909,-210.568389,-10298.708470
139.529980,-344.566454,1741.974853,-9552.147819
139.532554,-210.568389,0.000000,-9839.286531
139.535129,1684.547110,669.990328,-9820.143950
139.537704,3962.514226,593.420005,-9973.284597
139.540278,1454.836141,1952.543242,-10088.140082
139.542853,842.273555,-1033.699363,-9992.427178
139.545428,-401.994197,1263.410333,-9360.722011
139.548002,535.992262,1110.269686,-10068.997501
139.550577,1607.976787,-325.423874,-10336.993632
139.553152,1875.972918,1627.119368,-9571.290400
139.555726,1148.554848,229.710970,-9858.429112
139.558301,172.283227,-210.568389,-10068.997501
139.560876,899.701298,1627.119368,-9762.716208
139.563450,2679.961312,631.705166,-9781.858789
139.566025,-669.990328,-267.996131,-10336.993632
139.568600,1282.552914,1225.125171,-9475.577496
139.571175,3330.809059,689.132909,-9590.432981
139.573749,2813.959378,-325.423874,-10260.423309
139.576324,-38.285162,1914.258080,-9513.862658
139.578899,803.988394,133.998066,-10202.995566
139.581474,880.558717,516.849682,-10107.282662
139.584050,1569.691626,1990.828403,-9418.149754
139.586625,-114.855485,-191.425808,-10279.565890
139.589200,-210.568389,478.564520,-9647.860723
139.591776,-1780.260014,1263.410333,-9571.290400
139.594351,-803.988394,861.416136,-10413.563955
139.596926,-1167.697429,248.853550,-10183.852986
139.599502,1761.117434,1952.543242,-9494.720077
139.602077,784.845813,-612.562586,-10298.708470
139.604652,248.853550,1186.840010,-9571.290400
139.607227,-650.847747,957.129040,-10260.423309
139.609803,-1263.410333,210.568389,-9992.427178
139.612378,650.847747,669.990328,-9877.571693
139.614953,918.843878,1129.412267,-10030.712339
139.617529,-440.279358,401.994197,-10145.567824
139.620104,-1014.556782,746.560651,-9743.573627
139.622679,-267.996131,1531.406464,-9686.145885
139.625255,-1282.552914,440.279358,-10547.562021
139.627830,-1110.269686,-191.425808,-9513.862658
139.630405,-1339.980656,2124.826469,-9667.003304
139.632980,1837.687757,-669.990328,-10470.991698
139.635556,-995.414202,1952.543242,-9399.007173
139.638131,535.992262,995.414202,-10145.567824
139.640706,1091.127106,-306.281293,-9667.003304
139.643282,1359.123237,1454.836141,-9992.427178
139.645857,4268.795518,803.988394,-10298.708470
139.648432,976.271621,1033.699363,-9858.429112
139.651008,-1167.697429,210.568389,-9667.003304
139.653583,1091.127106,1971.685822,-9265.009107
139.656158,1933.400661,-535.992262,-10566.704602
139.658734,1665.404530,995.414202,-9954.142016
139.661309,382.851616,1397.408398,-9590.432981
139.663884,746.560651,-842.273555,-10126.425243
139.666459,861.416136,1531.406464,-9494.720077
139.669035,1205.982590,1129.412267,-10126.425243
139.671610,727.418070,-401.994197,-10298.708470
139.674185,1052.841944,1110.269686,-9494.720077
139.676761,2469.392923,1167.697429,-10107.282662
139.679336,2852.244539,440.279358,-9628.718142
139.681911,38.285162,1818.545176,-9667.003304
139.684487,1091.127106,0.000000,-10317.851051
139.687063,1435.693560,880.558717,-9647.860723
139.689638,1091.127106,516.849682,-10126.425243
139.692214,918.843878,1473.978722,-9743.573627
139.694789,-325.423874,516.849682,-9590.432981
139.697365,-1818.545176,287.138712,-9915.856854
139.699940,-1091.127106,2086.541307,-9896.714274
139.702516,-976.271621,210.568389,-10279.565890
139.705091,1033.699363,2239.681954,-9418.149754
139.707667,1378.265818,-229.710970,-9915.856854
139.710242,172.283227,440.279358,-10088.140082
139.712818,-1397.408398,1665.404530,-9839.286531
139.715393,421.136778,478.564520,-10202.995566
139.717969,-133.998066,325.423874,-9877.571693
139.720544,382.851616,1339.980656,-9590.432981
139.723120,306.281293,325.423874,-10183.852986
139.725696,-497.707101,401.994197,-10107.282662
139.728271,-1129.412267,1531.406464,-9533.005238
139.730847,-382.851616,516.849682,-10413.563955
139.733422,-1014.556782,-248.853550,-9858.429112
139.735998,-2182.254211,1837.687757,-9533.005238
139.738573,2833.101958,-57.427742,-10356.136213
139.741149,-823.130974,995.414202,-9934.999435
139.743724,478.564520,861.416136,-9877.571693
139.746300,1263.410333,76.570323,-9724.431046
139.748875,2086.541307,918.843878,-10088.140082
139.751451,3885.943902,861.416136,-9896.714274
139.754026,1225.125171,1435.693560,-9934.999435
139.756602,-1244.267752,-535.992262,-10183.852986
139.759177,459.421939,2201.396792,-8901.300072
139.761753,1875.972918,593.420005,-10853.843314
139.764329,1205.982590,-363.709035,-10260.423309
139.766904,1856.830338,2469.392923,-9111.868461
139.769480,612.562586,-516.849682,-10375.278794
139.772055,95.712904,937.986459,-9571.290400
139.774631,593.420005,1416.550979,-10011.569758
139.777206,1359.123237,-344.566454,-10432.706536
139.779782,1454.836141,1282.552914,-9399.007173
139.782357,1263.410333,937.986459,-10068.997501
139.784933,3637.090352,516.849682,-9877.571693
139.787509,248.853550,995.414202,-9609.575562
139.790084,689.132909,842.273555,-10011.569758
139.792660,612.562586,516.849682,-9915.856854
139.795236,2641.676150,1148.554848,-9571.290400
139.797811,-899.701298,899.701298,-9973.284597
139.800387,-727.418070,-306.281293,-10088.140082
139.802963,-1588.834206,1110.269686,-9379.864592
139.805539,-1282.552914,1569.691626,-10375.278794
139.808114,-1129.412267,-287.138712,-10681.560086
139.810690,1282.552914,1531.406464,-9226.723946
139.813266,1205.982590,669.990328,-9743.573627
139.815841,-555.134843,574.277424,-9896.714274
139.818417,-1665.404530,861.416136,-10126.425243
139.820993,38.285162,1225.125171,-10011.569758
139.823568,1052.841944,-114.855485,-10068.997501
139.826144,-76.570323,823.130974,-9513.862658
139.828720,-1493.121302,1378.265818,-10068.997501
139.831295,1129.412267,-76.570323,-10490.134278
139.833871,-1110.269686,1244.267752,-9686.145885
139.836447,-1397.408398,803.988394,-10202.995566
139.839023,-1263.410333,689.132909,-10049.854920
139.841598,-38.285162,1205.982590,-9590.432981
139.844174,957.129040,478.564520,-10356.136213
139.846750,-363.709035,784.845813,-9858.429112
139.849325,-555.134843,784.845813,-10126.425243
139.851901,2029.113565,1378.265818,-9437.292334
139.854477,2890.529701,-191.425808,-10356.136213
139.857052,2526.820666,1550.549045,-10183.852986
139.859628,1493.121302,803.988394,-9724.431046
139.862204,-976.271621,191.425808,-9801.001370
139.864779,19.142581,1875.972918,-9686.145885
139.867355,3120.240670,229.710970,-10279.565890
139.869931,1091.127106,153.140646,-10088.140082
139.872507,95.712904,1473.978722,-9456.434915
139.875082,1148.554848,555.134843,-9954.142016
139.877658,229.710970,210.568389,-10107.282662
139.880234,535.992262,1665.404530,-9839.286531
139.882809,1186.840010,631.705166,-10260.423309
139.885385,2986.242605,363.709035,-9801.001370
139.887961,2986.242605,1684.547110,-9379.864592
139.890537,669.990328,421.136778,-10088.140082
139.893113,1933.400661,-593.420005,-9915.856854
139.895689,555.134843,2833.101958,-9418.149754
139.898265,133.998066,-1091.127106,-10872.985894
139.900841,2450.250342,1646.261949,-9513.862658
139.903417,-995.414202,1378.265818,-9552.147819
139.905993,-1091.127106,-765.703232,-10547.562021
139.908569,-1397.408398,1837.687757,-9762.716208
139.911146,-440.279358,784.845813,-10222.138147
139.913722,19.142581,325.423874,-10011.569758
139.916298,535.992262,325.423874,-9686.145885
139.918874,803.988394,1205.982590,-9494.720077
139.921450,172.283227,823.130974,-10298.708470
139.924026,-1914.258080,-172.283227,-10490.134278
139.926602,76.570323,2029.113565,-9245.866526
139.929178,1301.695494,-478.564520,-10413.563955
139.931754,-1320.838075,861.416136,-9801.001370
139.934330,-153.140646,1856.830338,-9667.003304
139.936906,-210.568389,-191.425808,-10604.989763
139.939482,-1799.402595,803.988394,-9915.856854
139.942058,-1454.836141,1703.689691,-9245.866526
139.944634,-842.273555,-133.998066,-10643.274925
139.947210,2699.103893,363.709035,-9743.573627
139.949786,-1110.269686,2316.252277,-9265.009107
139.952362,-631.705166,-325.423874,-10509.276859
139.954938,1665.404530,957.129040,-9016.155557
139.957514,2431.107762,1205.982590,-10260.423309
139.960090,3407.379382,-191.425808,-10719.845248
139.962667,1378.265818,1339.980656,-9226.723946
139.965243,-1607.976787,555.134843,-10183.852986
139.967819,344.566454,287.138712,-9934.999435
139.970395,1952.543242,918.843878,-10145.567824
139.972971,1569.691626,823.130974,-10011.569758
139.975547,1014.556782,-153.140646,-9839.286531
139.978123,593.420005,1091.127106,-9475.577496
139.980699,172.283227,650.847747,-10317.851051
139.983275,1818.545176,-19.142581,-10260.423309
139.985851,880.558717,1263.410333,-9590.432981
139.988427,2009.970984,957.129040,-10088.140082
139.991003,2737.389054,-191.425808,-10183.852986
139.993580,1244.267752,1627.119368,-9341.579430
139.996156,1263.410333,306.281293,-10719.845248
139.998733,842.273555,765.703232,-9954.142016
140.001309,842.273555,287.138712,-9915.856854
140.003885,1933.400661,1799.402595,-10030.712339
140.006462,-861.416136,-114.855485,-10049.854920
140.009038,-1722.832272,401.994197,-9743.573627
140.011615,-1435.693560,2316.252277,-9743.573627
140.014191,-344.566454,-1684.547110,-11217.552349
140.016767,-382.851616,1684.547110,-9341.579430
140.019344,1627.119368,382.851616,-9992.427178
140.021920,765.703232,-344.566454,-10049.854920
140.024497,-38.285162,2354.537438,-9609.575562
140.027073,-1780.260014,382.851616,-10643.274925
140.029649,191.425808,210.568389,-10011.569758
140.032226,1359.123237,1550.549045,-9226.723946
140.034802,95.712904,57.427742,-10260.423309
140.037379,-1856.830338,631.705166,-9973.284597
140.039955,1014.556782,1684.547110,-9494.720077
140.042531,-2277.967115,-344.566454,-10470.991698
140.045108,-2297.109696,803.988394,-9667.003304
140.047684,937.986459,1186.840010,-9437.292334
140.050261,1263.410333,497.707101,-10547.562021
140.052837,-133.998066,-38.285162,-9896.714274
140.055413,-784.845813,1110.269686,-9839.286531
140.057990,2182.254211,535.992262,-10279.565890
140.060566,4345.365842,-229.710970,-9686.145885
140.063143,2239.681954,2565.105827,-9801.001370
140.065719,937.986459,-746.560651,-10336.993632
140.068295,-1244.267752,344.566454,-9494.720077
140.070872,248.853550,2182.254211,-9494.720077
140.073448,2890.529701,-19.142581,-10585.847182
140.076025,957.129040,1454.836141,-9533.005238
140.078601,421.136778,995.414202,-9820.143950
140.081178,689.132909,440.279358,-9992.427178
140.083754,535.992262,899.701298,-9973.284597
140.086331,765.703232,1473.978722,-9839.286531
140.088907,2431.107762,708.275490,-10260.423309
140.091484,2201.396792,-57.427742,-9552.147819
140.094060,1875.972918,1933.400661,-9552.147819
140.096637,1607.976787,-708.275490,-10317.851051
140.099213,593.420005,1378.265818,-9609.575562
140.101790,287.138712,1052.841944,-9877.571693
140.104366,3024.527766,612.562586,-9896.714274
140.106943,-803.988394,459.421939,-10068.997501
140.109519,-1186.840010,880.558717,-9896.714274
140.112095,-2086.541307,593.420005,-9743.573627
140.114672,-1282.552914,650.847747,-10566.704602
140.117248,-746.560651,1990.828403,-9877.571693
140.119825,2450.250342,267.996131,-9839.286531
140.122401,995.414202,248.853550,-9992.427178
140.124978,-823.130974,1818.545176,-9705.288466
140.127554,574.277424,-746.560651,-10604.989763
140.130131,-267.996131,1607.976787,-9571.290400
140.132707,-497.707101,823.130974,-10030.712339
140.135284,-153.140646,-612.562586,-9839.286531
140.137860,631.705166,1646.261949,-9705.288466
140.140437,-631.705166,957.129040,-10356.136213
140.143013,-2411.965181,-650.847747,-10298.708470
140.145590,-1684.547110,2182.254211,-9533.005238
140.148166,-191.425808,-382.851616,-10241.280728
140.150743,1990.828403,-210.568389,-10107.282662
140.153319,-995.414202,2411.965181,-9552.147819
140.155896,306.281293,38.285162,-10375.278794
140.158472,210.568389,-95.712904,-9609.575562
140.161049,2067.398726,1990.828403,-9934.999435
140.163625,5570.491013,-191.425808,-10279.565890
140.166202,1263.410333,287.138712,-9839.286531
140.168778,-2067.398726,1033.699363,-9705.288466
140.171355,363.709035,823.130974,-9915.856854
140.173931,1990.828403,-19.142581,-10624.132344
140.176482,2048.256146,1378.265818,-9724.431046
140.179037,650.847747,1052.841944,-9705.288466
140.181593,267.996131,-746.560651,-10298.708470
140.184149,363.709035,2182.254211,-9360.722011
140.186705,918.843878,325.423874,-10470.991698
140.189261,2048.256146,344.566454,-10107.282662
140.191816,2431.107762,1378.265818,-9092.725880
140.194372,2622.533570,95.712904,-10394.421374
140.196928,689.132909,823.130974,-9915.856854
140.199484,861.416136,957.129040,-9647.860723
140.202040,1703.689691,669.990328,-10183.852986
140.204595,1914.258080,57.427742,-10030.712339
140.207151,267.996131,1301.695494,-9571.290400
140.209707,-191.425808,689.132909,-9877.571693
140.212263,-2067.398726,1225.125171,-9379.864592
140.214819,-1416.550979,1129.412267,-10394.421374
140.217375,-1129.412267,708.275490,-10375.278794
140.219930,1837.687757,937.986459,-9456.434915
140.222486,440.279358,669.990328,-9571.290400
140.225042,0.000000,957.129040,-10394.421374
140.227598,-19.142581,497.707101,-10088.140082
140.230154,-1071.984525,1761.117434,-9647.860723
140.232709,-267.996131,191.425808,-10470.991698
140.235265,1205.982590,497.707101,-9437.292334
140.237821,-287.138712,1722.832272,-9858.429112
140.240377,-727.418070,57.427742,-10528.419440
140.242933,-1301.695494,440.279358,-9667.003304
140.245488,-2067.398726,1818.545176,-9839.286531
140.248044,-1071.984525,-248.853550,-10375.278794
140.250600,2699.103893,267.996131,-9590.432981
140.253156,-861.416136,2641.676150,-9590.432981
140.255712,-325.423874,-459.421939,-10777.272990
140.258267,1435.693560,1397.408398,-9399.007173
140.260823,2641.676150,1378.265818,-10145.567824
140.263379,3885.943902,-497.707101,-10375.278794
140.265935,1531.406464,1435.693560,-9360.722011
140.268491,-1282.552914,842.273555,-10183.852986
140.271046,-918.843878,57.427742,-9781.858789
140.273602,1703.689691,1091.127106,-10011.569758
140.276158,2947.957443,957.129040,-10145.567824
140.278696,153.140646,267.996131,-9590.432981
140.281235,-478.564520,669.990328,-10164.710405
140.283773,1186.840010,1378.265818,-9801.001370
140.286312,1225.125171,-153.140646,-10145.567824
140.288850,1646.261949,1110.269686,-10202.995566
140.291389,3024.527766,1071.984525,-9743.573627
140.293927,1684.547110,-306.281293,-9954.142016
140.296466,861.416136,1052.841944,-9705.288466
140.299004,1493.121302,1033.699363,-10126.425243
140.301543,708.275490,-516.849682,-10375.278794
140.304081,2909.672282,2507.678085,-9494.720077
140.306620,-612.562586,57.427742,-9877.571693
140.309158,-1454.836141,-669.990328,-10279.565890
140.311697,-2756.531635,2852.244539,-9494.720077
140.314235,-593.420005,-363.709035,-10777.272990
140.316774,-1129.412267,803.988394,-9820.143950
140.319312,1818.545176,1761.117434,-9475.577496
140.321851,842.273555,-133.998066,-9954.142016
140.324389,-1531.406464,1512.263883,-9686.145885
140.326927,-765.703232,976.271621,-10068.997501
140.329466,421.136778,765.703232,-10126.425243
140.332004,574.277424,76.570323,-10088.140082
140.334543,306.281293,1110.269686,-9341.579430
140.337081,-382.851616,899.701298,-9801.001370
140.339620,-535.992262,210.568389,-10490.134278
140.342158,-2335.394858,593.420005,-9954.142016
140.344697,-1607.976787,1684.547110,-9609.575562
140.347235,1588.834206,-535.992262,-10394.421374
140.349774,325.423874,2411.965181,-9054.440718
140.352312,363.709035,0.000000,-10490.134278
140.354851,-1148.554848,-497.707101,-10298.708470
140.357389,2143.969050,2507.678085,-9150.153622
140.359928,4977.071008,-555.134843,-10279.565890
140.362466,2411.965181,957.129040,-10049.854920
140.365005,1282.552914,784.845813,-9341.579430
140.367543,-1454.836141,248.853550,-9992.427178
140.370082,440.279358,1091.127106,-10317.851051
140.372620,2258.824534,765.703232,-9781.858789
140.375158,2660.818731,555.134843,-10088.140082
140.377697,-689.132909,325.423874,-9915.856854
140.380241,-133.998066,995.414202,-9628.718142
140.382785,1014.556782,995.414202,-10183.852986
140.385328,1952.543242,191.425808,-10183.852986
140.387872,1722.832272,1435.693560,-9839.286531
140.390416,2565.105827,650.847747,-9781.858789
140.392960,114.855485,918.843878,-9667.003304
140.395504,1799.402595,287.138712,-10011.569758
140.398048,1416.550979,1320.838075,-10088.140082
140.400591,1741.974853,-516.849682,-10317.851051
140.403135,1665.404530,2086.541307,-9360.722011
140.405679,-746.560651,459.421939,-9781.858789
140.408223,-2507.678085,-325.423874,-10126.425243
140.410767,-1627.119368,2641.676150,-9628.718142
140.413311,-593.420005,-1071.984525,-10432.706536
140.415855,1225.125171,1416.550979,-9456.434915
140.418398,1320.838075,784.845813,-9724.431046
140.420942,689.132909,191.425808,-10011.569758
140.423486,-1780.260014,1129.412267,-10030.712339
140.426030,-593.420005,1225.125171,-10068.997501
140.428574,1684.547110,325.423874,-10030.712339
140.431118,248.853550,497.707101,-9705.288466
140.433661,-957.129040,1244.267752,-9743.573627
140.436205,-172.283227,823.130974,-10126.425243
140.438749,-2354.537438,-153.140646,-10470.991698
140.441293,-2029.113565,2258.824534,-9533.005238
140.443837,-57.427742,-382.851616,-10183.852986
140.446381,1320.838075,784.845813,-10049.854920
140.448924,-114.855485,574.277424,-10126.425243
140.451468,-1205.982590,-363.709035,-10356.136213
140.454012,1837.687757,1952.543242,-9399.007173
140.456556,4881.358104,-38.285162,-10049.854920
140.459100,2833.101958,899.701298,-9934.999435
140.461644,1167.697429,440.279358,-9571.290400
140.464187,-1550.549045,459.421939,-9858.429112
140.466731,-803.988394,516.849682,-10049.854920
140.469275,2679.961312,765.703232,-10413.563955
140.471819,2986.242605,1014.556782,-9839.286531
140.474363,-497.707101,267.996131,-9762.716208
140.476907,-229.710970,1014.556782,-9915.856854
140.479450,1454.836141,1129.412267,-10049.854920
140.481999,1818.545176,421.136778,-9992.427178
140.484548,1933.400661,957.129040,-9915.856854
140.487096,2967.100024,918.843878,-9705.288466
140.489645,-153.140646,478.564520,-9839.286531
140.492193,1569.691626,555.134843,-9973.284597
140.494742,1818.545176,1263.410333,-10183.852986
140.497291,2335.394858,-363.709035,-10222.138147
140.499839,669.990328,1473.978722,-9360.722011
140.502388,-229.710970,689.132909,-9705.288466
140.504937,-2794.816797,-287.138712,-10068.997501
140.507485,-2373.680019,2335.394858,-9877.571693
140.510034,-478.564520,-344.566454,-10624.132344
140.512582,1301.695494,325.423874,-9686.145885
140.515131,746.560651,1473.978722,-9533.005238
140.517680,248.853550,823.130974,-10088.140082
140.520228,-1205.982590,497.707101,-10164.710405
140.522777,-593.420005,1627.119368,-9743.573627
140.525325,1205.982590,823.130974,-9973.284597
140.527874,-1186.840010,76.570323,-9839.286531
140.530423,306.281293,1646.261949,-9494.720077
140.532971,76.570323,1033.699363,-10241.280728
140.535520,-3101.098090,-631.705166,-10509.276859
140.538069,-1550.549045,2545.963246,-9360.722011
140.540617,2258.824534,-325.423874,-10279.565890
140.543166,267.996131,1359.123237,-9743.573627
140.545714,153.140646,918.843878,-9877.571693
140.548263,-1339.980656,-325.423874,-10394.421374
140.550812,1914.258080,1569.691626,-9743.573627
140.553360,5436.492947,-95.712904,-10011.569758
140.555909,2890.529701,1282.552914,-10088.140082
140.558457,1263.410333,-19.142581,-9686.145885
140.561006,-1627.119368,708.275490,-9839.286531
140.563555,-248.853550,1091.127106,-10624.132344
140.566103,2258.824534,555.134843,-10145.567824
140.568652,3369.094221,1052.841944,-9571.290400
140.571201,-899.701298,229.710970,-9858.429112
140.573749,133.998066,708.275490,-10126.425243
140.576298,1607.976787,1282.552914,-9954.142016
140.578846,784.845813,287.138712,-10088.140082
140.581395,2660.818731,440.279358,-10049.854920
140.583948,1971.685822,784.845813,-9686.145885
140.586501,823.130974,-38.285162,-10068.997501
140.589054,344.566454,1435.693560,-9934.999435
140.591607,1416.550979,727.418070,-10183.852986
140.594159,3062.812928,918.843878,-9992.427178
140.596712,-727.418070,708.275490,-9801.001370
140.599265,-708.275490,382.851616,-9781.858789
140.601818,-3101.098090,880.558717,-10011.569758
140.604371,-2009.970984,1129.412267,-10394.421374
140.606924,-823.130974,1397.408398,-9839.286531
140.609477,2354.537438,842.273555,-9571.290400
140.612030,574.277424,76.570323,-9590.432981
140.614582,-19.142581,1856.830338,-9801.001370
140.617135,-1052.841944,-229.710970,-10547.562021
140.619688,-478.564520,1454.836141,-9533.005238
140.622241,1091.127106,1378.265818,-9896.714274
140.624794,-382.851616,-401.994197,-10164.710405
140.627347,-803.988394,1569.691626,-9494.720077
140.629900,-1359.123237,325.423874,-10566.704602
140.632453,-1761.117434,497.707101,-9896.714274
140.635005,-2105.683888,1263.410333,-9590.432981
140.637558,3254.238736,-210.568389,-10336.993632
140.640111,-689.132909,1722.832272,-9437.292334
140.642664,-669.990328,440.279358,-10049.854920
140.645217,-133.998066,478.564520,-9667.003304
140.647770,1914.258080,1435.693560,-10126.425243
140.650323,5589.633594,-19.142581,-9877.571693
140.652876,1473.978722,1225.125171,-9705.288466
140.655428,-995.414202,-210.568389,-9954.142016
140.657981,-765.703232,1493.121302,-9628.718142
140.660534,1875.972918,727.418070,-10758.130410
140.663087,1875.972918,248.853550,-9801.001370
140.665640,1895.115499,1301.695494,-9303.294269
140.668193,-325.423874,191.425808,-10183.852986
140.670746,229.710970,727.418070,-9724.431046
140.673299,2488.535504,1531.406464,-9915.856854
140.675852,2622.533570,-210.568389,-10049.854920
140.678404,2526.820666,1014.556782,-9533.005238
140.680957,325.423874,1282.552914,-10030.712339
140.683510,1339.980656,-440.279358,-10107.282662
140.686066,1512.263883,1588.834206,-9667.003304
140.688623,1512.263883,287.138712,-10490.134278
140.691179,1818.545176,1244.267752,-9858.429112
140.693735,-306.281293,861.416136,-9016.155557
140.696291,-2813.959378,229.710970,-10126.425243
140.698847,-2239.681954,727.418070,-10432.706536
140.701404,-727.418070,861.416136,-10298.708470
140.703960,1627.119368,746.560651,-9628.718142
140.706516,478.564520,650.847747,-9628.718142
140.709072,765.703232,306.281293,-10088.140082
140.711629,287.138712,1722.832272,-9896.714274
140.714185,-1033.699363,267.996131,-10049.854920
140.716741,287.138712,535.992262,-10126.425243
140.719297,1071.984525,1186.840010,-9781.858789
140.721854,-459.421939,306.281293,-9801.001370
140.724410,-1225.125171,1205.982590,-10145.567824
140.726966,-1799.402595,555.134843,-9915.856854
140.729522,-1818.545176,401.994197,-10183.852986
140.732078,1837.687757,861.416136,-9858.429112
140.734635,248.853550,1435.693560,-9743.573627
140.737191,516.849682,-516.849682,-10183.852986
140.739747,-1895.115499,746.560651,-9915.856854
140.742303,2622.533570,1531.406464,-9858.429112
140.744860,6125.625856,-574.277424,-10336.993632
140.747416,1148.554848,2775.674216,-9245.866526
140.749972,-995.414202,-440.279358,-10011.569758
140.752528,-459.421939,976.271621,-9494.720077
140.755084,-191.425808,1971.685822,-10547.562021
140.757641,2986.242605,-57.427742,-10164.710405
140.760197,2182.254211,842.273555,-9590.432981
140.762753,-574.277424,631.705166,-9877.571693
140.765309,287.138712,861.416136,-10375.278794
140.767866,2029.113565,1186.840010,-10279.565890
140.770422,2220.539373,574.277424,-9552.147819
140.772978,2354.537438,440.279358,-10011.569758
140.775534,746.560651,918.843878,-10049.854920
140.778090,957.129040,497.707101,-9686.145885
140.780647,1473.978722,1339.980656,-10068.997501
140.783203,1454.836141,-784.845813,-10815.558152
140.785759,2009.970984,2124.826469,-9686.145885
140.788318,-746.560651,708.275490,-10049.854920
140.790878,-2469.392923,-76.570323,-9839.286531
140.793437,-2277.967115,1914.258080,-9647.860723
140.795996,-401.994197,-19.142581,-10834.700733
140.798555,784.845813,344.566454,-9801.001370
140.801114,574.277424,1454.836141,-9188.438784
140.803673,765.703232,-306.281293,-10451.849117
140.806233,153.140646,1378.265818,-9992.427178
140.808792,-1895.115499,861.416136,-9973.284597
140.811351,382.851616,650.847747,-10547.562021
140.813910,516.849682,689.132909,-9188.438784
140.816469,38.285162,1244.267752,-9456.434915
140.819029,-2201.396792,363.709035,-10662.417506
140.821588,-2143.969050,1014.556782,-9724.431046
140.824147,-1588.834206,1110.269686,-9781.858789
140.826706,2392.822600,-95.712904,-10451.849117
140.829265,-153.140646,1722.832272,-9418.149754
140.831825,459.421939,344.566454,-9686.145885
140.834384,57.427742,306.281293,-9934.999435
140.836943,2239.681954,1550.549045,-9667.003304
140.839502,6049.055533,153.140646,-10241.280728
140.842061,1397.408398,1454.836141,-9896.714274
140.844621,-1397.408398,-19.142581,-9533.005238
140.847180,-38.285162,1665.404530,-9552.147819
140.849739,19.142581,937.986459,-11121.839445
140.852298,2986.242605,19.142581,-9686.145885
140.854857,2852.244539,1952.543242,-9571.290400
140.857417,-1033.699363,-267.996131,-9973.284597
140.859976,248.853550,689.132909,-9609.575562
140.862535,2909.672282,1799.402595,-10030.712339
140.865094,2201.396792,-191.425808,-10470.991698
140.867653,823.130974,1531.406464,-9552.147819
140.870212,1818.545176,0.000000,-10126.425243
140.872772,880.558717,708.275490,-9609.575562
140.875331,-133.998066,784.845813,-10202.995566
140.877890,4000.799387,1895.115499,-10068.997501
140.880449,-593.420005,-727.418070,-9839.286531
140.883008,-1722.832272,516.849682,-9628.718142
140.885568,-2143.969050,1607.976787,-9667.003304
140.888127,-1473.978722,-248.853550,-11006.983960
140.890688,-1397.408398,2086.541307,-9762.716208
140.893250,2718.246474,1052.841944,-9513.862658
140.895811,1416.550979,-803.988394,-10011.569758
140.898373,-2450.250342,2335.394858,-9628.718142
140.900934,191.425808,153.140646,-10432.706536
140.903496,1473.978722,459.421939,-9858.429112
140.906057,-57.427742,1684.547110,-9896.714274
140.908618,0.000000,-440.279358,-10356.136213
140.911180,-38.285162,1091.127106,-9494.720077
140.913741,-1856.830338,937.986459,-10049.854920
140.916303,-2641.676150,248.853550,-10547.562021
140.918864,918.843878,842.273555,-9667.003304
140.921426,899.701298,1531.406464,-9571.290400
140.923987,382.851616,-191.425808,-10317.851051
140.926549,-1799.402595,153.140646,-10068.997501
140.929110,2354.537438,1895.115499,-9437.292334
140.931672,4575.076811,-287.138712,-10624.132344
140.934233,1837.687757,2239.681954,-9418.149754
140.936794,287.138712,325.423874,-9533.005238
140.939356,-1339.980656,363.709035,-10049.854920
140.941917,-210.568389,1320.838075,-10068.997501
140.944479,2660.818731,1225.125171,-9973.284597
140.947040,2335.394858,478.564520,-10107.282662
140.949602,-306.281293,363.709035,-9533.005238
140.952163,-229.710970,1531.406464,-9590.432981
140.954725,1818.545176,765.703232,-10451.849117
140.957286,2641.676150,516.849682,-10030.712339
140.959847,2335.394858,1473.978722,-9801.001370
140.962409,1320.838075,650.847747,-9743.573627
140.964970,1225.125171,-248.853550,-9667.003304
140.967532,784.845813,2201.396792,-9954.142016
140.970093,1741.974853,-535.992262,-10624.132344
140.972655,1397.408398,1359.123237,-9686.145885
140.975216,-421.136778,1493.121302,-9303.294269
140.977778,-2354.537438,-861.416136,-10145.567824
140.980339,-1799.402595,1148.554848,-10585.847182
140.982901,-784.845813,1091.127106,-10164.710405
140.985462,1148.554848,-133.998066,-9762.716208
140.988023,593.420005,937.986459,-9762.716208
140.990585,1129.412267,1091.127106,-9839.286531
140.993149,-765.703232,172.283227,-10145.567824
140.995712,-918.843878,1091.127106,-9915.856854
140.998276,1397.408398,1205.982590,-10030.712339
141.000839,-497.707101,-248.853550,-10222.138147
141.003403,-267.996131,1761.117434,-9494.720077
141.005967,-1818.545176,0.000000,-10030.712339
141.008530,-2737.389054,344.566454,-10413.563955
141.011094,-842.273555,1244.267752,-9973.284597
141.013658,1741.974853,593.420005,-9858.429112
141.016221,-612.562586,287.138712,-9954.142016
141.018785,-669.990328,1014.556782,-9973.284597
141.021348,1856.830338,1512.263883,-9628.718142
141.023912,2737.389054,-248.853550,-10719.845248
141.026476,2718.246474,2124.826469,-9705.288466
141.029039,1588.834206,-153.140646,-9686.145885
141.031603,-1416.550979,-478.564520,-10241.280728
141.034166,-459.421939,2009.970984,-9628.718142
141.036730,2277.967115,421.136778,-10413.563955
141.039294,2316.252277,-306.281293,-10375.278794
141.041857,708.275490,1741.974853,-9073.583299
141.044421,57.427742,0.000000,-9820.143950
141.046985,1378.265818,535.992262,-10088.140082
141.049548,2660.818731,1263.410333,-9743.573627
141.052112,2660.818731,555.134843,-10241.280728
141.054675,1033.699363,976.271621,-9762.716208
141.057239,1454.836141,248.853550,-9552.147819
141.059803,1282.552914,1569.691626,-9934.999435
141.062366,1301.695494,-727.418070,-10604.989763
141.064930,1837.687757,2297.109696,-9647.860723
141.067494,-421.136778,746.560651,-9533.005238
141.070057,-2507.678085,-1033.699363,-10088.140082
141.072621,-2124.826469,1780.260014,-10202.995566
141.075184,-172.283227,76.570323,-10681.560086
141.077748,516.849682,-76.570323,-9839.286531
141.080312,-57.427742,1703.689691,-9456.434915
141.082875,2201.396792,-57.427742,-10336.993632
141.085439,-1397.408398,574.277424,-10049.854920
141.088003,-1301.695494,1550.549045,-9839.286531
141.090566,2182.254211,382.851616,-10298.708470
141.093130,133.998066,248.853550,-10107.282662
141.095676,-1052.841944,1397.408398,-9533.005238
141.098222,-1971.685822,-210.568389,-10336.993632
141.100768,-2029.113565,880.558717,-10088.140082
141.103314,-957.129040,1339.980656,-9801.001370
141.105860,1856.830338,382.851616,-10260.423309
141.108406,38.285162,267.996131,-9973.284597
141.110952,-1148.554848,1129.412267,-9590.432981
141.113498,2143.969050,880.558717,-10088.140082
141.116044,4881.358104,-267.996131,-10260.423309
141.118590,2182.254211,2488.535504,-9494.720077
141.121136,1244.267752,-899.701298,-10183.852986
141.123682,-976.271621,440.279358,-9647.860723
141.126228,-267.996131,2335.394858,-9456.434915
141.128775,1588.834206,-401.994197,-11026.126541
141.131321,2584.248408,631.705166,-9954.142016
141.133867,555.134843,1665.404530,-9016.155557
141.136413,-57.427742,-497.707101,-10413.563955
141.138959,1856.830338,1531.406464,-9934.999435
141.141505,2392.822600,1129.412267,-10011.569758
141.144051,2277.967115,-38.285162,-10049.854920
141.146597,1052.841944,976.271621,-9647.860723
141.149143,1588.834206,612.562586,-9781.858789
141.151689,1129.412267,153.140646,-10279.565890
141.154235,2105.683888,1052.841944,-10068.997501
141.156781,382.851616,918.843878,-9877.571693
141.159327,-593.420005,19.142581,-9877.571693
141.161873,-2603.390989,2411.965181,-9169.296203
141.164419,-1129.412267,287.138712,-10930.413637
141.166965,-1416.550979,421.136778,-10164.710405
141.169511,1473.978722,1646.261949,-9341.579430
141.172057,287.138712,401.994197,-10068.997501
141.174604,976.271621,555.134843,-9915.856854
141.177150,-459.421939,1225.125171,-9934.999435
141.179696,-1244.267752,1129.412267,-10088.140082
141.182242,1320.838075,172.283227,-10088.140082
141.184788,2297.109696,1665.404530,-9494.720077
141.187334,-1856.830338,612.562586,-9896.714274
141.189880,-3120.240670,287.138712,-10394.421374
141.192426,-1454.836141,1512.263883,-9801.001370
141.194972,1952.543242,593.420005,-10202.995566
141.197518,-612.562586,746.560651,-10011.569758
141.200069,1512.263883,669.990328,-9609.575562
141.202619,-1244.267752,401.994197,-9801.001370
141.205169,1416.550979,1148.554848,-9954.142016
141.207720,5455.635528,746.560651,-9954.142016
141.210270,2009.970984,1971.685822,-9590.432981
141.212820,-1110.269686,-976.271621,-10222.138147
141.215371,-650.847747,2048.256146,-9016.155557
141.217921,918.843878,1282.552914,-10566.704602
141.220471,1837.687757,-229.710970,-10796.415571
141.223021,1761.117434,1895.115499,-9245.866526
141.225572,172.283227,363.709035,-9686.145885
141.228122,1435.693560,325.423874,-10164.710405
141.230672,2239.681954,1665.404530,-9494.720077
141.233223,2239.681954,-38.285162,-10662.417506
141.235773,1627.119368,1397.408398,-9628.718142
141.238323,2086.541307,57.427742,-9245.866526
141.240874,842.273555,1722.832272,-9915.856854
141.243424,363.709035,-555.134843,-10681.560086
141.245974,2297.109696,2718.246474,-9360.722011
141.248524,-1148.554848,267.996131,-10011.569758
141.251075,-1780.260014,-1148.554848,-9686.145885
141.253625,-1550.549045,2909.672282,-9245.866526
141.256175,133.998066,-784.845813,-11274.980091
141.258726,-880.558717,516.849682,-9686.145885
141.261276,1244.267752,2029.113565,-8882.157491
141.263826,1588.834206,-1071.984525,-10719.845248
141.266377,-1244.267752,1129.412267,-9801.001370
141.268927,38.285162,1531.406464,-9360.722011
141.271477,593.420005,-76.570323,-10624.132344
141.274028,-401.994197,669.990328,-9533.005238
141.276578,-708.275490,1339.980656,-9743.573627
141.279128,-1665.404530,191.425808,-10451.849117
141.281678,-2718.246474,574.277424,-10030.712339
141.284229,-267.996131,1569.691626,-9743.573627
141.286779,95.712904,574.277424,-10030.712339
141.289329,1588.834206,-248.853550,-9820.143950
141.291880,-1416.550979,1014.556782,-9724.431046
141.294430,2067.398726,746.560651,-10107.282662
141.296980,4747.360038,-57.427742,-9973.284597
141.299534,2354.537438,2584.248408,-9705.288466
141.302088,995.414202,-1397.408398,-10164.710405
141.304643,-727.418070,708.275490,-9341.579430
141.307197,210.568389,2029.113565,-9877.571693
141.309751,803.988394,-669.990328,-10643.274925
141.312305,2507.678085,1684.547110,-9724.431046
141.314859,650.847747,1014.556782,-9437.292334
141.317413,-57.427742,-57.427742,-9896.714274
141.319967,1110.269686,1550.549045,-9973.284597
141.322522,2679.961312,1014.556782,-10183.852986
141.325076,1684.547110,421.136778,-10107.282662
141.327630,2297.109696,363.709035,-9628.718142
141.330184,937.986459,2048.256146,-9647.860723
141.332738,210.568389,-1071.984525,-10738.987829
141.335292,1780.260014,2679.961312,-9781.858789
141.337846,-765.703232,612.562586,-9724.431046
141.340400,-2124.826469,-1512.263883,-10279.565890
141.342955,-1799.402595,3426.521963,-9284.151688
141.345509,153.140646,-861.416136,-11006.983960
141.348063,-1033.699363,267.996131,-10068.997501
141.350617,1071.984525,1895.115499,-9360.722011
141.353171,976.271621,-478.564520,-10126.425243
141.355725,-516.849682,612.562586,-10126.425243
141.358279,-880.558717,1703.689691,-9647.860723
141.360834,555.134843,306.281293,-10164.710405
141.363388,-478.564520,287.138712,-10126.425243
141.365942,325.423874,1607.976787,-9456.434915
141.368496,-1856.830338,555.134843,-9896.714274
141.371050,-3043.670347,382.851616,-10509.276859
141.373604,-19.142581,1646.261949,-9896.714274
141.376158,1052.841944,1263.410333,-9724.431046
141.378712,1071.984525,-823.130974,-10394.421374
141.381251,-1225.125171,1473.978722,-9016.155557
141.383789,2258.824534,861.416136,-10088.140082
141.386328,4804.787781,-555.134843,-10451.849117
141.388866,2086.541307,2737.389054,-9265.009107
141.391405,803.988394,-669.990328,-10145.567824
141.393943,-535.992262,76.570323,-9781.858789
141.396481,-497.707101,2163.111630,-9590.432981
141.399020,1684.547110,-57.427742,-10547.562021
141.401558,2833.101958,1129.412267,-9590.432981
141.404097,535.992262,1359.123237,-9092.725880
141.406635,-574.277424,38.285162,-10279.565890
141.409174,2718.246474,1282.552914,-10068.997501
141.411712,2584.248408,1512.263883,-9590.432981
141.414250,459.421939,459.421939,-10317.851051
141.416789,2584.248408,76.570323,-9781.858789
141.419327,1703.689691,2163.111630,-9188.438784
141.421866,344.566454,-612.562586,-10604.989763
141.424404,1282.552914,1588.834206,-9896.714274
141.426943,-516.849682,1359.123237,-9245.866526
141.429481,-2794.816797,-842.273555,-10336.993632
141.432019,-1301.695494,2009.970984,-9418.149754
141.434558,-114.855485,516.849682,-10336.993632
141.437096,-995.414202,95.712904,-10413.563955
141.439635,1473.978722,1397.408398,-9322.436850
141.442173,153.140646,325.423874,-9801.001370
141.444712,-76.570323,-95.712904,-10279.565890
141.447250,-861.416136,1263.410333,-9667.003304
141.449789,1052.841944,1071.984525,-9858.429112
141.452327,-363.709035,363.709035,-10126.425243
141.454865,-823.130974,306.281293,-9896.714274
141.457404,-1761.117434,1780.260014,-9322.436850
141.459942,-2699.103893,-95.712904,-10681.560086
141.462481,1339.980656,478.564520,-10222.138147
141.465019,-76.570323,2584.248408,-9111.868461
141.467558,937.986459,-650.847747,-10490.134278
141.470096,-76.570323,957.129040,-9379.864592
141.472634,2163.111630,1875.972918,-9896.714274
141.475173,5072.783912,-937.986459,-10604.989763
141.477711,1167.697429,2545.963246,-9571.290400
141.480250,248.853550,-38.285162,-9934.999435
141.482793,-612.562586,325.423874,-9590.432981
141.485337,918.843878,1607.976787,-10145.567824
141.487881,1416.550979,516.849682,-10317.851051
141.490425,1761.117434,440.279358,-9552.147819
141.492969,689.132909,1110.269686,-9552.147819
141.495512,842.273555,593.420005,-10088.140082
141.498056,1607.976787,459.421939,-9934.999435
141.500600,3273.381317,1205.982590,-9858.429112
141.503144,1473.978722,995.414202,-9954.142016
141.505688,1933.400661,-344.566454,-9801.001370
141.508231,1780.260014,1110.269686,-9552.147819
141.510775,1052.841944,784.845813,-10241.280728
141.513319,-1454.836141,-210.568389,-10241.280728
141.515863,-880.558717,880.558717,-9724.431046
141.518407,-2086.541307,1129.412267,-9609.575562
141.520950,-1225.125171,-210.568389,-10758.130410
141.523494,-1033.699363,1914.258080,-9801.001370
141.526038,842.273555,325.423874,-10030.712339
141.528582,382.851616,172.283227,-10068.997501
141.531126,-19.142581,1780.260014,-9571.290400
141.533669,-153.140646,287.138712,-10413.563955
141.536213,478.564520,382.851616,-9934.999435
141.538757,-38.285162,1990.828403,-9762.716208
141.541301,880.558717,229.710970,-10164.710405
141.543845,-2392.822600,19.142581,-9781.858789
141.546388,-2335.394858,1971.685822,-9781.858789
141.548932,-1167.697429,344.566454,-10375.278794
141.551476,153.140646,344.566454,-10202.995566
141.554020,-669.990328,1952.543242,-9494.720077
141.556564,306.281293,363.709035,-10068.997501
141.559107,2622.533570,746.560651,-10030.712339
141.561651,3732.803256,880.558717,-9915.856854
141.564195,2488.535504,803.988394,-10260.423309
141.566739,957.129040,-38.285162,-9781.858789
141.569283,-1091.127106,976.271621,-9552.147819
141.571826,-765.703232,765.703232,-10183.852986
141.574370,3483.949706,95.712904,-10413.563955
