#time,accel_x,accel_y,accel_z
926.644995,-478.564520,-191.425808,-9877.571693
926.647572,708.275490,918.843878,-9494.720077
926.650148,957.129040,1052.841944,-9533.005238
926.652725,478.564520,-325.423874,-10088.140082
926.655302,-114.855485,1091.127106,-9245.866526
926.657879,708.275490,1550.549045,-9303.294269
926.660455,535.992262,-880.558717,-10336.993632
926.663032,57.427742,1933.400661,-9379.864592
926.665609,784.845813,229.710970,-9379.864592
926.668186,995.414202,-1665.404530,-10260.423309
926.670762,-95.712904,-650.847747,-9743.573627
926.673339,191.425808,306.281293,-9437.292334
926.675916,1493.121302,-2584.248408,-9992.427178
926.678498,-363.709035,38.285162,-9188.438784
926.681080,95.712904,-2354.537438,-9877.571693
926.683662,401.994197,-650.847747,-10336.993632
926.686244,-153.140646,3311.666478,-9131.011042
926.688826,95.712904,2067.398726,-9303.294269
926.691408,1703.689691,5072.783912,-9073.583299
926.693991,555.134843,1952.543242,-9628.718142
926.696573,-976.271621,4555.934230,-9188.438784
926.699155,1167.697429,-784.845813,-10336.993632
926.701737,1148.554848,1033.699363,-8863.014910
926.704319,-382.851616,861.416136,-9609.575562
926.706901,478.564520,-765.703232,-10432.706536
926.709483,842.273555,765.703232,-9245.866526
926.712065,229.710970,-114.855485,-9973.284597
926.714647,382.851616,-95.712904,-10241.280728
926.717229,899.701298,2909.672282,-8786.444587
926.719811,133.998066,727.418070,-9915.856854
926.722394,440.279358,1244.267752,-9934.999435
926.724976,1033.699363,1148.554848,-9188.438784
926.727558,401.994197,-535.992262,-9705.288466
926.730140,133.998066,1799.402595,-9475.577496
926.732722,1071.984525,574.277424,-9992.427178
926.735304,593.420005,133.998066,-9743.573627
926.737886,-344.566454,1091.127106,-9226.723946
926.740468,-38.285162,-229.710970,-10088.140082
926.743050,1339.980656,1914.258080,-9494.720077
926.745632,497.707101,1895.115499,-9762.716208
926.748214,-344.566454,1856.830338,-9475.577496
926.750797,823.130974,1071.984525,-9207.581365
926.753379,478.564520,2450.250342,-9609.575562
926.755961,229.710970,4096.512291,-9533.005238
926.758543,1052.841944,880.558717,-9915.856854
926.761125,574.277424,2775.674216,-9035.298138
926.763707,440.279358,1531.406464,-9360.722011
926.766289,-229.710970,3483.949706,-9399.007173
926.768871,2124.826469,-2048.256146,-10260.423309
926.771453,-3713.660675,2813.959378,-9820.143950
926.774035,3177.668413,-1703.689691,-9399.007173
926.776617,1569.691626,-1359.123237,-9571.290400
926.779200,-2450.250342,-727.418070,-10298.708470
926.781785,1493.121302,-918.843878,-9571.290400
926.784371,1416.550979,631.705166,-9035.298138
926.786957,727.418070,-2660.818731,-10585.847182
926.789543,267.996131,803.988394,-9781.858789
926.792129,191.425808,2277.967115,-8920.442653
926.794714,1014.556782,-2316.252277,-10260.423309
926.797300,823.130974,2220.539373,-9513.862658
926.799886,-114.855485,1110.269686,-9724.431046
926.802472,1167.697429,440.279358,-9801.001370
926.805058,-555.134843,-191.425808,-9552.147819
926.807644,1129.412267,-114.855485,-9762.716208
926.810229,1722.832272,-363.709035,-9954.142016
926.812815,-1186.840010,325.423874,-9801.001370
926.815401,459.421939,957.129040,-9207.581365
926.817987,1780.260014,-95.712904,-9628.718142
926.820573,-287.138712,1244.267752,-9456.434915
926.823158,-440.279358,-114.855485,-9896.714274
926.825744,1397.408398,1799.402595,-9360.722011
926.828330,306.281293,746.560651,-9743.573627
926.830916,-363.709035,-555.134843,-9896.714274
926.833502,957.129040,2411.965181,-8843.872330
926.836088,899.701298,-995.414202,-10260.423309
926.838673,-172.283227,765.703232,-9877.571693
926.841259,306.281293,2354.537438,-8958.727814
926.843845,1454.836141,-1569.691626,-9954.142016
926.846431,172.283227,1282.552914,-9590.432981
926.849017,-1091.127106,-421.136778,-9743.573627
926.851602,2354.537438,-2297.109696,-10049.854920
926.854188,57.427742,612.562586,-9456.434915
926.856774,172.283227,-3694.518094,-9915.856854
926.859360,1091.127106,421.136778,-9533.005238
926.861946,1167.697429,-1129.412267,-9667.003304
926.864532,-1110.269686,-516.849682,-9724.431046
926.867117,1531.406464,-133.998066,-9552.147819
926.869703,1225.125171,-2297.109696,-10126.425243
926.872289,-401.994197,5283.352301,-9207.581365
926.874875,1014.556782,1646.261949,-9801.001370
926.877461,1990.828403,784.845813,-9552.147819
926.880046,-899.701298,3905.086483,-8863.014910
926.882632,-306.281293,-1531.406464,-10719.845248
926.885218,2373.680019,1971.685822,-8767.302006
926.887803,-593.420005,3388.236802,-9494.720077
926.890389,248.853550,-1416.550979,-10260.423309
926.892974,1531.406464,1914.258080,-9016.155557
926.895560,937.986459,1033.699363,-9379.864592
926.898145,-689.132909,976.271621,-9934.999435
926.900731,1607.976787,2201.396792,-9360.722011
926.903316,172.283227,-229.710970,-9839.286531
926.905902,-727.418070,1818.545176,-9628.718142
926.908488,1186.840010,3273.381317,-8939.585234
926.911073,1014.556782,1435.693560,-9724.431046
926.913659,-363.709035,401.994197,-9934.999435
926.916244,248.853550,1607.976787,-9284.151688
926.918830,1550.549045,-555.134843,-9743.573627
926.921415,631.705166,1148.554848,-9781.858789
926.924001,-746.560651,1205.982590,-9533.005238
926.926586,1359.123237,-803.988394,-9647.860723
926.929172,746.560651,2277.967115,-9150.153622
926.931757,-459.421939,306.281293,-10164.710405
926.934343,669.990328,133.998066,-9667.003304
926.936928,727.418070,1205.982590,-8997.012976
926.939514,-57.427742,689.132909,-10030.712339
926.942099,1110.269686,1397.408398,-9801.001370
926.944685,535.992262,2124.826469,-9265.009107
926.947271,-861.416136,1320.838075,-10011.569758
926.949856,382.851616,1263.410333,-9781.858789
926.952442,2163.111630,4862.215523,-8518.448456
926.955027,-459.421939,1052.841944,-10336.993632
926.957613,-1071.984525,2182.254211,-9724.431046
926.960198,1875.972918,3541.377448,-8327.022648
926.962784,95.712904,1569.691626,-9686.145885
926.965369,382.851616,-995.414202,-10470.991698
926.967955,-516.849682,3503.092286,-8805.587168
926.970540,2622.533570,-3981.656806,-10145.567824
926.973126,784.845813,-1799.402595,-10413.563955
926.975711,-2660.818731,478.564520,-9475.577496
926.978297,2392.822600,-2947.957443,-9762.716208
926.980882,-248.853550,669.990328,-9628.718142
926.983468,19.142581,-1359.123237,-9954.142016
926.986054,1244.267752,1416.550979,-9781.858789
926.988638,-708.275490,440.279358,-9647.860723
926.991223,133.998066,803.988394,-9226.723946
926.993809,2469.392923,574.277424,-9552.147819
926.996394,-612.562586,976.271621,-9820.143950
926.998980,-516.849682,0.000000,-9915.856854
927.001565,1301.695494,-574.277424,-9667.003304
927.004151,899.701298,191.425808,-9322.436850
927.006736,-229.710970,153.140646,-9896.714274
927.009322,1014.556782,229.710970,-9992.427178
927.011907,1282.552914,-918.843878,-9475.577496
927.014493,-76.570323,1167.697429,-9762.716208
927.017078,880.558717,650.847747,-9839.286531
927.019664,880.558717,363.709035,-9379.864592
927.022249,-535.992262,593.420005,-9513.862658
927.024835,1014.556782,1856.830338,-9628.718142
927.027420,1301.695494,153.140646,-9724.431046
927.030006,0.000000,172.283227,-9226.723946
927.032591,-574.277424,2354.537438,-9111.868461
927.035177,1493.121302,-574.277424,-10011.569758
927.037762,-153.140646,1052.841944,-9667.003304
927.040348,-19.142581,535.992262,-9418.149754
927.042933,1225.125171,-803.988394,-9571.290400
927.045519,976.271621,-1722.832272,-9839.286531
927.048104,-1282.552914,689.132909,-9647.860723
927.050690,-689.132909,-38.285162,-9667.003304
927.053275,2067.398726,-5111.069074,-10068.997501
927.055861,421.136778,1454.836141,-9322.436850
927.058446,-1110.269686,-1703.689691,-10394.421374
927.061032,2909.672282,3311.666478,-8882.157491
927.063617,-1205.982590,1607.976787,-9150.153622
927.066203,-2756.531635,-114.855485,-10394.421374
927.068788,3139.383251,5608.776174,-8422.735552
927.071374,-861.416136,-593.420005,-10260.423309
927.073959,-612.562586,4058.227130,-9303.294269
927.076545,1780.260014,746.560651,-9303.294269
927.079130,1473.978722,57.427742,-9609.575562
927.081716,-995.414202,976.271621,-10222.138147
927.084301,-172.283227,2335.394858,-9552.147819
927.086887,1837.687757,-1339.980656,-9667.003304
927.089472,-133.998066,459.421939,-10222.138147
927.091978,-823.130974,1435.693560,-9379.864592
927.094484,2373.680019,880.558717,-9169.296203
927.096990,95.712904,210.568389,-10298.708470
927.099496,-344.566454,2105.683888,-9513.862658
927.102001,1684.547110,2411.965181,-8901.300072
927.104507,1397.408398,1186.840010,-9762.716208
927.107013,-631.705166,1378.265818,-9513.862658
927.109519,803.988394,-114.855485,-9781.858789
927.112024,1225.125171,727.418070,-9647.860723
927.114530,-114.855485,1301.695494,-9915.856854
927.117036,765.703232,172.283227,-9762.716208
927.119542,1014.556782,650.847747,-9150.153622
927.122048,-459.421939,689.132909,-9781.858789
927.124553,727.418070,0.000000,-10222.138147
927.127059,1052.841944,1033.699363,-9475.577496
927.129565,38.285162,842.273555,-9743.573627
927.132071,76.570323,1225.125171,-9456.434915
927.134577,746.560651,1014.556782,-9265.009107
927.137082,976.271621,2584.248408,-9820.143950
927.139588,-267.996131,1971.685822,-9973.284597
927.142094,421.136778,3062.812928,-8901.300072
927.144600,1320.838075,3407.379382,-9169.296203
927.147105,-1780.260014,1990.828403,-9743.573627
927.149611,-248.853550,1990.828403,-9399.007173
927.152117,2641.676150,-306.281293,-9973.284597
927.154623,-1148.554848,1531.406464,-9877.571693
927.157129,1933.400661,-2718.246474,-9590.432981
927.159634,497.707101,1588.834206,-9456.434915
927.162140,1914.258080,-3062.812928,-10777.272990
927.164646,-1416.550979,-803.988394,-9399.007173
927.167152,229.710970,-1512.263883,-9820.143950
927.169658,1741.974853,-1722.832272,-9992.427178
927.172163,-401.994197,3273.381317,-9322.436850
927.174669,650.847747,-1091.127106,-10164.710405
927.177175,1339.980656,1971.685822,-9188.438784
927.179681,-650.847747,1493.121302,-9284.151688
927.182186,880.558717,-1205.982590,-10049.854920
927.184692,918.843878,1320.838075,-9609.575562
927.187198,-287.138712,746.560651,-9533.005238
927.189704,574.277424,0.000000,-9705.288466
927.192161,899.701298,689.132909,-9188.438784
927.194618,727.418070,-1416.550979,-9934.999435
927.197075,-363.709035,957.129040,-9801.001370
927.199532,1091.127106,669.990328,-9667.003304
927.201989,650.847747,746.560651,-9494.720077
927.204446,57.427742,593.420005,-9533.005238
927.206903,803.988394,1397.408398,-9494.720077
927.209360,612.562586,-76.570323,-10107.282662
927.211817,-248.853550,937.986459,-9609.575562
927.214274,-593.420005,1033.699363,-9571.290400
927.216731,1416.550979,-210.568389,-9820.143950
927.219188,-459.421939,1091.127106,-9475.577496
927.221645,95.712904,-133.998066,-9724.431046
927.224102,2297.109696,-880.558717,-9877.571693
927.226559,95.712904,-401.994197,-9801.001370
927.229016,-708.275490,-306.281293,-9552.147819
927.231473,1627.119368,-995.414202,-9513.862658
927.233930,612.562586,-4575.076811,-10260.423309
927.236387,19.142581,1550.549045,-9245.866526
927.238845,1359.123237,-2277.967115,-10432.706536
927.241302,2316.252277,1971.685822,-8843.872330
927.243759,57.427742,3369.094221,-8748.159426
927.246216,-1722.832272,-1665.404530,-10585.847182
927.248673,2526.820666,7446.463931,-8173.882002
927.251130,-957.129040,-1205.982590,-10796.415571
927.253587,-38.285162,3541.377448,-9169.296203
927.256044,823.130974,3139.383251,-8729.016845
927.258501,-19.142581,172.283227,-9954.142016
927.260958,-191.425808,2239.681954,-9896.714274
927.263415,1378.265818,497.707101,-9513.862658
927.265872,880.558717,-1722.832272,-9954.142016
927.268329,-306.281293,803.988394,-9781.858789
927.270786,1148.554848,1071.984525,-9207.581365
927.273243,1741.974853,401.994197,-9801.001370
927.275700,-995.414202,1665.404530,-9762.716208
927.278157,478.564520,1665.404530,-9284.151688
927.280614,1129.412267,2143.969050,-9609.575562
927.283071,-535.992262,842.273555,-9724.431046
927.285528,803.988394,1397.408398,-9265.009107
927.287985,1033.699363,-612.562586,-10011.569758
927.290475,-133.998066,1493.121302,-9418.149754
927.292965,248.853550,-191.425808,-9628.718142
927.295455,1378.265818,1129.412267,-9360.722011
927.297945,-325.423874,803.988394,-9628.718142
927.300435,38.285162,708.275490,-9552.147819
927.302925,1569.691626,1091.127106,-9245.866526
927.305416,153.140646,1110.269686,-9877.571693
927.307906,-306.281293,1856.830338,-9379.864592
927.310396,1071.984525,1205.982590,-9188.438784
927.312886,248.853550,1225.125171,-9877.571693
927.315376,153.140646,4843.072942,-9284.151688
927.317866,516.849682,2201.396792,-9801.001370
927.320356,287.138712,1416.550979,-9647.860723
927.322846,306.281293,3464.807125,-9092.725880
927.325336,-401.994197,2852.244539,-9360.722011
927.327826,2086.541307,-1052.841944,-10222.138147
927.330316,-2967.100024,2794.816797,-9762.716208
927.332806,2258.824534,-3598.805190,-9743.573627
927.335296,248.853550,401.994197,-9360.722011
927.337786,-708.275490,-1990.828403,-10432.706536
927.340276,-19.142581,-1627.119368,-9686.145885
927.342766,918.843878,440.279358,-9494.720077
927.345256,1301.695494,-2986.242605,-10375.278794
927.347746,-421.136778,3101.098090,-9399.007173
927.350236,765.703232,114.855485,-9801.001370
927.352726,1359.123237,861.416136,-9322.436850
927.355216,210.568389,1722.832272,-9303.294269
927.357706,459.421939,-918.843878,-9992.427178
927.360196,976.271621,1588.834206,-9647.860723
927.362686,-363.709035,-76.570323,-9590.432981
927.365176,133.998066,-1071.984525,-9820.143950
927.367666,1071.984525,1493.121302,-9341.579430
927.370156,421.136778,-1205.982590,-9934.999435
927.372646,-593.420005,880.558717,-9686.145885
927.375136,1531.406464,1225.125171,-9475.577496
927.377626,631.705166,172.283227,-9839.286531
927.380117,-325.423874,535.992262,-9552.147819
927.382607,899.701298,1205.982590,-9533.005238
927.385097,1110.269686,382.851616,-9973.284597
927.387587,-153.140646,191.425808,-9801.001370
927.390102,-957.129040,1091.127106,-9437.292334
927.392617,2086.541307,-172.283227,-9552.147819
927.395132,574.277424,-229.710970,-9820.143950
927.397647,76.570323,669.990328,-9647.860723
927.400162,1703.689691,-1014.556782,-9724.431046
927.402677,765.703232,-2890.529701,-9954.142016
927.405193,-459.421939,2392.822600,-8939.585234
927.407708,1703.689691,-4575.076811,-10164.710405
927.410223,1091.127106,-669.990328,-9686.145885
927.412738,-2067.398726,-1282.552914,-9934.999435
927.415253,-727.418070,-3273.381317,-10509.276859
927.417768,2641.676150,5953.342629,-8441.878133
927.420283,-1569.691626,-401.994197,-10490.134278
927.422798,1550.549045,4153.940034,-9379.864592
927.425314,650.847747,2679.961312,-9150.153622
927.427829,210.568389,823.130974,-10030.712339
927.430344,-1512.263883,3828.516160,-9092.725880
927.432859,1952.543242,784.845813,-9360.722011
927.435374,1014.556782,708.275490,-9877.571693
927.437889,-746.560651,1454.836141,-9839.286531
927.440404,784.845813,612.562586,-9475.577496
927.442919,937.986459,-191.425808,-9724.431046
927.445435,-306.281293,1014.556782,-9820.143950
927.447950,516.849682,1569.691626,-9418.149754
927.450465,708.275490,2660.818731,-9494.720077
927.452980,-95.712904,153.140646,-9934.999435
927.455495,708.275490,2526.820666,-9265.009107
927.458010,765.703232,19.142581,-9915.856854
927.460525,-535.992262,1014.556782,-9705.288466
927.463040,784.845813,1282.552914,-9552.147819
927.465556,918.843878,-287.138712,-9915.856854
927.468071,19.142581,1110.269686,-9437.292334
927.470550,0.000000,880.558717,-9322.436850
927.473028,1186.840010,-38.285162,-9571.290400
927.475507,535.992262,1856.830338,-9724.431046
927.477986,153.140646,1301.695494,-9762.716208
927.480465,1110.269686,-248.853550,-9303.294269
927.482944,880.558717,3215.953574,-8920.442653
927.485422,-191.425808,823.130974,-9858.429112
927.487901,1741.974853,3866.801322,-9265.009107
927.490380,1512.263883,3809.373579,-9016.155557
927.492859,-2124.826469,1837.687757,-9801.001370
927.495338,1761.117434,-38.285162,-9667.003304
927.497816,861.416136,4651.647134,-9073.583299
927.500295,-1397.408398,-555.134843,-10509.276859
927.502774,861.416136,459.421939,-9379.864592
927.505253,248.853550,1301.695494,-8709.874264
927.507732,2220.539373,-4326.223261,-10585.847182
927.510211,-2201.396792,-612.562586,-10011.569758
927.512689,1263.410333,-3062.812928,-9628.718142
927.515168,-401.994197,1378.265818,-9360.722011
927.517647,-497.707101,478.564520,-9992.427178
927.520126,287.138712,708.275490,-9628.718142
927.522605,382.851616,1148.554848,-9647.860723
927.525083,-248.853550,784.845813,-9667.003304
927.527562,1110.269686,2545.963246,-9456.434915
927.530041,1244.267752,-1052.841944,-10011.569758
927.532520,-1014.556782,267.996131,-9647.860723
927.534999,1052.841944,306.281293,-9303.294269
927.537477,1741.974853,-2258.824534,-10145.567824
927.539956,-708.275490,1741.974853,-9494.720077
927.542435,-248.853550,535.992262,-9686.145885
927.544914,1761.117434,440.279358,-9360.722011
927.547393,-248.853550,1167.697429,-9705.288466
927.549871,-421.136778,555.134843,-9571.290400
927.552350,1952.543242,842.273555,-9188.438784
927.554829,1454.836141,-229.710970,-9781.858789
927.557308,-650.847747,1359.123237,-9724.431046
927.559787,325.423874,1091.127106,-9494.720077
927.562265,1263.410333,-976.271621,-9609.575562
927.564744,325.423874,440.279358,-9743.573627
927.567223,-19.142581,-153.140646,-9992.427178
927.569728,803.988394,-497.707101,-9686.145885
927.572234,-133.998066,-650.847747,-9628.718142
927.574739,957.129040,-4230.510357,-10183.852986
927.577244,1148.554848,478.564520,-9092.725880
927.579749,-765.703232,-1646.261949,-10202.995566
927.582255,1225.125171,1914.258080,-9284.151688
927.584760,287.138712,727.418070,-9207.581365
927.587265,-1263.410333,-76.570323,-9992.427178
927.589770,325.423874,6010.770371,-8729.016845
927.592276,153.140646,-650.847747,-10528.419440
927.594781,1607.976787,5608.776174,-8786.444587
927.597286,-746.560651,2124.826469,-9896.714274
927.599791,1493.121302,191.425808,-9647.860723
927.602296,-114.855485,3388.236802,-9265.009107
927.604802,612.562586,-1359.123237,-10088.140082
927.607307,669.990328,-535.992262,-9877.571693
927.609812,1416.550979,1014.556782,-9379.864592
927.612317,-114.855485,-765.703232,-9705.288466
927.614823,497.707101,1205.982590,-9609.575562
927.617328,1646.261949,918.843878,-9724.431046
927.619833,-57.427742,1875.972918,-9877.571693
927.622338,-382.851616,3311.666478,-9092.725880
927.624844,1301.695494,669.990328,-9379.864592
927.627349,421.136778,535.992262,-9513.862658
927.629854,-516.849682,1435.693560,-9915.856854
927.632359,153.140646,497.707101,-10088.140082
927.634865,1780.260014,133.998066,-9533.005238
927.637370,0.000000,1205.982590,-9360.722011
927.639875,-574.277424,937.986459,-9762.716208
927.642380,1512.263883,-210.568389,-9781.858789
927.644886,229.710970,1722.832272,-9456.434915
927.647391,-153.140646,1761.117434,-9552.147819
927.649896,803.988394,-191.425808,-9667.003304
927.652401,516.849682,4230.510357,-8901.300072
927.654906,535.992262,1646.261949,-10145.567824
927.657412,-95.712904,2335.394858,-9667.003304
927.659917,861.416136,5264.209720,-8671.589102
927.662422,-344.566454,1933.400661,-9571.290400
927.664927,2029.113565,-95.712904,-9686.145885
927.667433,-1397.408398,3062.812928,-9456.434915
927.669959,1167.697429,-3885.943902,-10490.134278
927.672485,-306.281293,957.129040,-9552.147819
927.675010,1588.834206,-2450.250342,-10068.997501
927.677536,-612.562586,-1397.408398,-9762.716208
927.680062,-191.425808,-2909.672282,-10011.569758
927.682588,669.990328,-2086.541307,-9896.714274
927.685114,727.418070,2143.969050,-9667.003304
927.687640,133.998066,631.705166,-9705.288466
927.690166,-555.134843,1856.830338,-8920.442653
927.692692,918.843878,363.709035,-9858.429112
927.695218,306.281293,1129.412267,-9533.005238
927.697744,918.843878,746.560651,-9475.577496
927.700270,363.709035,-191.425808,-9743.573627
927.702796,-210.568389,-899.701298,-9552.147819
927.705322,1263.410333,1052.841944,-8958.727814
927.707847,1091.127106,-612.562586,-9954.142016
927.710373,-421.136778,2143.969050,-9590.432981
927.712899,669.990328,-803.988394,-9762.716208
927.715425,1263.410333,535.992262,-9131.011042
927.717951,-114.855485,1952.543242,-9781.858789
927.720477,19.142581,-957.129040,-10317.851051
927.723003,1454.836141,995.414202,-8901.300072
927.725529,153.140646,1148.554848,-9839.286531
927.728055,248.853550,-765.703232,-10222.138147
927.730581,937.986459,459.421939,-9188.438784
927.733107,612.562586,114.855485,-9801.001370
927.735633,-133.998066,-3426.521963,-10490.134278
927.738158,765.703232,2488.535504,-8882.157491
927.740684,861.416136,-3311.666478,-10145.567824
927.743210,-325.423874,-2718.246474,-10164.710405
927.745736,708.275490,-1282.552914,-9437.292334
927.748262,861.416136,-1167.697429,-10145.567824
927.750788,1014.556782,4211.367776,-8997.012976
927.753314,-1148.554848,-1091.127106,-10088.140082
927.755840,1799.402595,6489.334891,-8441.878133
927.758366,-803.988394,2603.390989,-9456.434915
927.760892,-57.427742,1435.693560,-9839.286531
927.763418,-497.707101,4785.645200,-8633.303941
927.765944,1014.556782,344.566454,-9992.427178
927.768470,918.843878,1971.685822,-9169.296203
927.771011,516.849682,153.140646,-9781.858789
927.773552,344.566454,-1339.980656,-9954.142016
927.776093,0.000000,1761.117434,-9265.009107
927.778634,1225.125171,-842.273555,-9628.718142
927.781175,133.998066,1435.693560,-9628.718142
927.783716,-516.849682,3101.098090,-9303.294269
927.786257,593.420005,1665.404530,-9801.001370
927.788798,1397.408398,1646.261949,-9513.862658
927.791339,-516.849682,880.558717,-9667.003304
927.793881,401.994197,-382.851616,-9571.290400
927.796422,1627.119368,1722.832272,-9494.720077
927.798963,-210.568389,382.851616,-10413.563955
927.801504,382.851616,153.140646,-9533.005238
927.804045,1052.841944,842.273555,-8901.300072
927.806586,-172.283227,191.425808,-10049.854920
927.809127,1052.841944,995.414202,-9877.571693
927.811668,957.129040,2718.246474,-9226.723946
927.814209,306.281293,133.998066,-9762.716208
927.816750,-459.421939,3522.234867,-9035.298138
927.819292,1607.976787,3388.236802,-9265.009107
927.821833,-612.562586,861.416136,-10451.849117
927.824374,382.851616,3637.090352,-9207.581365
927.826915,899.701298,4957.928427,-8480.163294
927.829456,2297.109696,-1416.550979,-10183.852986
927.831997,-3158.525832,3120.240670,-9437.292334
927.834538,-1741.974853,1933.400661,-9188.438784
927.837079,4096.512291,-5034.498750,-10624.132344
927.839620,-1914.258080,-1416.550979,-10164.710405
927.842161,-325.423874,-2239.681954,-9399.007173
927.844703,1933.400661,-172.283227,-9322.436850
927.847244,-76.570323,-1875.972918,-10624.132344
927.849785,57.427742,2316.252277,-9647.860723
927.852326,2526.820666,-57.427742,-9667.003304
927.854867,-2220.539373,1761.117434,-9245.866526
927.857408,593.420005,669.990328,-9475.577496
927.859949,2048.256146,114.855485,-10068.997501
927.862490,574.277424,267.996131,-9628.718142
927.865031,-746.560651,440.279358,-9341.579430
927.867572,937.986459,-1225.125171,-9686.145885
927.870114,1110.269686,478.564520,-9590.432981
927.872667,-382.851616,1550.549045,-9934.999435
927.875220,631.705166,-19.142581,-9839.286531
927.877774,1263.410333,976.271621,-8901.300072
927.880327,-478.564520,669.990328,-9801.001370
927.882880,306.281293,344.566454,-10030.712339
927.885434,899.701298,1052.841944,-9475.577496
927.887987,1033.699363,-248.853550,-9801.001370
927.890540,-114.855485,1148.554848,-9399.007173
927.893093,899.701298,-191.425808,-9590.432981
927.895647,363.709035,516.849682,-9781.858789
927.898200,-401.994197,-1990.828403,-9934.999435
927.900753,918.843878,574.277424,-9303.294269
927.903307,899.701298,-2067.398726,-9801.001370
927.905860,-574.277424,-2507.678085,-9992.427178
927.908413,1110.269686,-1971.685822,-9705.288466
927.910967,669.990328,-2373.680019,-10241.280728
927.913520,1129.412267,5015.356170,-8939.585234
927.916073,-1071.984525,421.136778,-9973.284597
927.918627,1952.543242,3407.379382,-9207.581365
927.921180,-1263.410333,4287.938099,-8958.727814
927.923733,95.712904,459.421939,-10298.708470
927.926287,0.000000,5283.352301,-8480.163294
927.928840,0.000000,1397.408398,-9724.431046
927.931393,1129.412267,899.701298,-9456.434915
927.933947,957.129040,-19.142581,-9781.858789
927.936500,-172.283227,-976.271621,-9877.571693
927.939053,-593.420005,133.998066,-9839.286531
927.941607,1665.404530,727.418070,-9724.431046
927.944160,459.421939,248.853550,-9571.290400
927.946713,-363.709035,1071.984525,-9934.999435
927.949267,842.273555,2718.246474,-9533.005238
927.951820,1320.838075,1569.691626,-9533.005238
927.954373,95.712904,861.416136,-9915.856854
927.956927,401.994197,478.564520,-9533.005238
927.959480,1033.699363,669.990328,-9418.149754
927.962033,-19.142581,899.701298,-10183.852986
927.964587,-861.416136,1780.260014,-9513.862658
927.967140,1167.697429,248.853550,-9303.294269
927.969693,516.849682,38.285162,-9705.288466
927.972247,-191.425808,2201.396792,-9705.288466
927.974813,823.130974,1875.972918,-9781.858789
927.977376,689.132909,2220.539373,-9284.151688
927.979939,306.281293,3771.088418,-9092.725880
927.982502,-574.277424,2124.826469,-9590.432981
927.985065,2277.967115,1071.984525,-9934.999435
927.987628,-631.705166,5761.916821,-9226.723946
927.990191,363.709035,-535.992262,-9915.856854
927.992754,1799.402595,1110.269686,-8958.727814
927.995318,-1129.412267,555.134843,-9456.434915
927.997881,1780.260014,-3388.236802,-10547.562021
928.000444,-1512.263883,-1435.693560,-10030.712339
928.003007,574.277424,-3541.377448,-9801.001370
928.005570,-401.994197,1148.554848,-9150.153622
928.008133,1186.840010,-1359.123237,-10202.995566
928.010696,976.271621,918.843878,-9896.714274
928.013259,-133.998066,1301.695494,-9954.142016
928.015822,-363.709035,1971.685822,-9016.155557
928.018385,1416.550979,-172.283227,-9533.005238
928.020948,-38.285162,1225.125171,-9915.856854
928.023512,-114.855485,287.138712,-9915.856854
928.026075,1244.267752,-1148.554848,-9858.429112
928.028638,1129.412267,191.425808,-9475.577496
928.031201,-459.421939,114.855485,-9590.432981
928.033764,1225.125171,1378.265818,-9513.862658
928.036327,421.136778,382.851616,-10049.854920
928.038890,-535.992262,880.558717,-9341.579430
928.041453,1359.123237,306.281293,-9284.151688
928.044016,325.423874,842.273555,-9973.284597
928.046579,-191.425808,478.564520,-9896.714274
928.049143,1282.552914,937.986459,-9226.723946
928.051706,574.277424,-937.986459,-9915.856854
928.054269,-306.281293,287.138712,-9820.143950
928.056832,440.279358,-803.988394,-9877.571693
928.059395,803.988394,-746.560651,-9762.716208
928.061958,95.712904,-1684.547110,-9647.860723
928.064521,440.279358,-2526.820666,-9781.858789
928.067084,1148.554848,-2699.103893,-10145.567824
928.069647,-899.701298,-1378.265818,-10241.280728
928.072210,1741.974853,4804.787781,-8518.448456
928.074773,516.849682,-1952.543242,-10183.852986
928.077344,1071.984525,3905.086483,-9226.723946
928.079915,-1895.115499,4173.082614,-9150.153622
928.082486,1359.123237,497.707101,-10202.995566
928.085057,191.425808,5302.494882,-8595.018779
928.087628,-478.564520,1359.123237,-9781.858789
928.090199,1416.550979,1282.552914,-9379.864592
928.092770,535.992262,-497.707101,-9896.714274
928.095341,248.853550,-631.705166,-9820.143950
928.097912,76.570323,1416.550979,-9494.720077
928.100483,1052.841944,-1071.984525,-9647.860723
928.103053,-631.705166,1761.117434,-9494.720077
928.105624,76.570323,918.843878,-9724.431046
928.108195,918.843878,1875.972918,-9513.862658
928.110766,248.853550,2986.242605,-9533.005238
928.113337,-19.142581,-267.996131,-9858.429112
928.115908,1282.552914,937.986459,-9035.298138
928.118479,287.138712,1320.838075,-9705.288466
928.121050,-612.562586,-210.568389,-10624.132344
928.123621,899.701298,1569.691626,-9054.440718
928.126192,1473.978722,-421.136778,-9360.722011
928.128763,-937.986459,1416.550979,-10126.425243
928.131333,-650.847747,2220.539373,-9360.722011
928.133904,2354.537438,2871.387120,-9226.723946
928.136475,995.414202,1684.547110,-9839.286531
928.139046,-1703.689691,2182.254211,-9284.151688
928.141617,1569.691626,5398.207786,-8556.733618
928.144188,823.130974,2048.256146,-10088.140082
928.146759,-210.568389,1703.689691,-9724.431046
928.149330,-38.285162,3005.385186,-9207.581365
928.151901,2469.392923,-4326.223261,-10451.849117
928.154472,-2201.396792,2354.537438,-9188.438784
928.157042,-976.271621,-918.843878,-10088.140082
928.159613,2947.957443,-2335.394858,-9571.290400
928.162184,-842.273555,-2373.680019,-10049.854920
928.164755,-267.996131,-1091.127106,-9743.573627
928.167326,2411.965181,1301.695494,-9341.579430
928.169897,-287.138712,1033.699363,-9858.429112
928.172468,-1416.550979,1110.269686,-9686.145885
928.175039,2258.824534,1454.836141,-9226.723946
928.177610,-267.996131,497.707101,-9781.858789
928.180186,-19.142581,-133.998066,-9954.142016
928.182762,1071.984525,-631.705166,-9724.431046
928.185338,823.130974,574.277424,-9265.009107
928.187914,172.283227,-784.845813,-9743.573627
928.190490,1282.552914,1837.687757,-9571.290400
928.193066,382.851616,-325.423874,-10030.712339
928.195642,-76.570323,555.134843,-9418.149754
928.198218,708.275490,1378.265818,-9456.434915
928.200795,1378.265818,-287.138712,-10145.567824
928.203371,-440.279358,593.420005,-9667.003304
928.205947,746.560651,1397.408398,-9322.436850
928.208523,1895.115499,-440.279358,-9686.145885
928.211099,382.851616,-459.421939,-9667.003304
928.213675,-1110.269686,1244.267752,-9552.147819
928.216251,1435.693560,-3885.943902,-10336.993632
928.218827,1129.412267,421.136778,-9035.298138
928.221403,-1378.265818,-2029.113565,-9877.571693
928.223979,1856.830338,-765.703232,-9934.999435
928.226555,497.707101,-3388.236802,-10279.565890
928.229132,1186.840010,3541.377448,-9245.866526
928.231708,708.275490,325.423874,-9992.427178
928.234284,1071.984525,1301.695494,-9628.718142
928.236860,669.990328,7082.754896,-8537.591037
928.239436,440.279358,689.132909,-10260.423309
928.242012,1684.547110,2411.965181,-9169.296203
928.244588,-669.990328,3062.812928,-9341.579430
928.247164,899.701298,-76.570323,-9705.288466
928.249740,1416.550979,1129.412267,-9131.011042
928.252316,76.570323,-1320.838075,-10183.852986
928.254892,-210.568389,421.136778,-9743.573627
928.257469,1627.119368,459.421939,-9552.147819
928.260045,823.130974,-191.425808,-9781.858789
928.262621,-555.134843,2928.814862,-9647.860723
928.265197,-248.853550,2986.242605,-9475.577496
928.267773,1684.547110,-57.427742,-9877.571693
928.270349,248.853550,1244.267752,-9494.720077
928.272925,593.420005,727.418070,-9571.290400
928.275501,1205.982590,478.564520,-9705.288466
928.278077,19.142581,1378.265818,-9705.288466
928.280653,-19.142581,229.710970,-9418.149754
928.283234,1665.404530,1282.552914,-9322.436850
928.285814,593.420005,823.130974,-9686.145885
928.288395,-1129.412267,3043.670347,-9552.147819
928.290975,1588.834206,2794.816797,-9552.147819
928.293556,287.138712,497.707101,-9647.860723
928.296136,-803.988394,5072.783912,-8958.727814
928.298716,689.132909,3560.520029,-9360.722011
928.301297,1799.402595,363.709035,-10030.712339
928.303877,-2641.676150,3713.660675,-9513.862658
928.306458,3081.955509,-3924.229064,-10241.280728
928.309038,-784.845813,1205.982590,-9188.438784
928.311619,-363.709035,-1129.412267,-10183.852986
928.314199,861.416136,-1493.121302,-9379.864592
928.316780,880.558717,-2545.963246,-9743.573627
928.319360,267.996131,-1703.689691,-10126.425243
928.321941,631.705166,1971.685822,-9360.722011
928.324521,1244.267752,612.562586,-9628.718142
928.327101,-153.140646,1110.269686,-9590.432981
928.329682,-363.709035,2048.256146,-9456.434915
928.332262,746.560651,650.847747,-9533.005238
928.334843,1531.406464,306.281293,-9781.858789
928.337423,-267.996131,57.427742,-9743.573627
928.340004,-401.994197,-1320.838075,-9915.856854
928.342584,1684.547110,-803.988394,-9571.290400
928.345165,440.279358,1780.260014,-9341.579430
928.347745,-593.420005,612.562586,-9954.142016
928.350325,1473.978722,38.285162,-9303.294269
928.352906,459.421939,1531.406464,-9188.438784
928.355486,-516.849682,-153.140646,-10088.140082
928.358067,1186.840010,1091.127106,-9552.147819
928.360647,287.138712,382.851616,-9724.431046
928.363228,-765.703232,516.849682,-9647.860723
928.365808,957.129040,-440.279358,-9418.149754
928.368389,899.701298,-1339.980656,-9992.427178
928.370969,-803.988394,-918.843878,-10030.712339
928.373550,746.560651,-2852.244539,-9820.143950
928.376130,1320.838075,-2775.674216,-9667.003304
928.378710,-1378.265818,-2679.961312,-10375.278794
928.381291,1684.547110,4345.365842,-8863.014910
928.383871,650.847747,-1091.127106,-10164.710405
928.386454,1454.836141,3847.658741,-9245.866526
928.389037,-1435.693560,4766.502619,-8671.589102
928.391620,1320.838075,1014.556782,-10030.712339
928.394203,-76.570323,5053.641331,-9035.298138
928.396785,-229.710970,1780.260014,-9686.145885
928.399368,1378.265818,1473.978722,-9360.722011
928.401951,191.425808,-765.703232,-9954.142016
928.404534,19.142581,-880.558717,-10049.854920
928.407117,0.000000,880.558717,-9839.286531
928.409699,1684.547110,899.701298,-9609.575562
928.412282,-153.140646,765.703232,-9552.147819
928.414865,-76.570323,976.271621,-9839.286531
928.417448,1512.263883,2297.109696,-9169.296203
928.420031,440.279358,1837.687757,-9647.860723
928.422613,-248.853550,650.847747,-9839.286531
928.425196,1129.412267,497.707101,-9303.294269
928.427779,382.851616,1339.980656,-9705.288466
928.430362,76.570323,382.851616,-10126.425243
928.432945,38.285162,2009.970984,-8997.012976
928.435527,995.414202,-459.421939,-9705.288466
928.438110,899.701298,1741.974853,-9762.716208
928.440693,-38.285162,2354.537438,-9552.147819
928.443276,2086.541307,2833.101958,-9494.720077
928.445859,-1110.269686,3101.098090,-9399.007173
928.448442,823.130974,976.271621,-9628.718142
928.451024,1071.984525,5647.061336,-8958.727814
928.453607,-153.140646,612.562586,-10241.280728
928.456190,689.132909,-1454.836141,-9801.001370
928.458773,-708.275490,3483.949706,-8805.587168
928.461356,3101.098090,-4843.072942,-10470.991698
928.463938,-3024.527766,-1856.830338,-10145.567824
928.466521,861.416136,-3522.234867,-10183.852986
928.469104,3503.092286,-133.998066,-9073.583299
928.471687,-535.992262,-1186.840010,-10164.710405
928.474270,-516.849682,1263.410333,-9686.145885
928.476852,2201.396792,918.843878,-9628.718142
928.479435,-823.130974,823.130974,-9667.003304
928.482018,669.990328,1339.980656,-9647.860723
928.484601,1339.980656,1684.547110,-9456.434915
928.487184,421.136778,746.560651,-9552.147819
928.489768,-497.707101,-1301.695494,-9915.856854
928.492353,1493.121302,1301.695494,-9169.296203
928.494938,689.132909,-842.273555,-9839.286531
928.497523,-114.855485,1397.408398,-9667.003304
928.500107,823.130974,1110.269686,-9590.432981
928.502692,1282.552914,-574.277424,-9724.431046
928.505277,-440.279358,1378.265818,-9226.723946
928.507861,669.990328,459.421939,-9858.429112
928.510446,1741.974853,248.853550,-9590.432981
928.513031,306.281293,497.707101,-9647.860723
928.515616,-689.132909,-38.285162,-9590.432981
928.518200,1435.693560,-2450.250342,-9762.716208
928.520785,631.705166,0.000000,-9379.864592
928.523370,-1091.127106,-2507.678085,-10279.565890
928.525954,1588.834206,-1741.974853,-9877.571693
928.528539,-574.277424,-3541.377448,-10126.425243
928.531124,1052.841944,3522.234867,-8977.870395
928.533709,421.136778,2335.394858,-9552.147819
928.536293,1186.840010,2871.387120,-9437.292334
928.538878,-401.994197,5838.487144,-8767.302006
928.541463,535.992262,516.849682,-10107.282662
928.544047,937.986459,4919.643266,-8518.448456
928.546632,-765.703232,1761.117434,-9992.427178
928.549217,401.994197,880.558717,-9609.575562
928.551802,803.988394,650.847747,-9226.723946
928.554386,689.132909,-861.416136,-10145.567824
928.556971,-421.136778,631.705166,-9628.718142
928.559556,1186.840010,133.998066,-9456.434915
928.562140,1205.982590,842.273555,-9705.288466
928.564725,-114.855485,2565.105827,-9571.290400
928.567310,459.421939,1167.697429,-9494.720077
928.569895,880.558717,114.855485,-9724.431046
928.572479,57.427742,1359.123237,-9513.862658
928.575064,803.988394,1148.554848,-9590.432981
928.577649,842.273555,-421.136778,-10049.854920
928.580234,-153.140646,1588.834206,-9456.434915
928.582818,593.420005,574.277424,-9494.720077
928.585403,1512.263883,-57.427742,-9877.571693
928.587988,-306.281293,2622.533570,-9533.005238
928.590572,-172.283227,2679.961312,-9705.288466
928.593159,1378.265818,1741.974853,-9399.007173
928.595745,612.562586,2526.820666,-9303.294269
928.598331,-535.992262,5627.918755,-9150.153622
928.600917,2775.674216,497.707101,-10107.282662
928.603504,-784.845813,4938.785846,-8709.874264
928.606090,-133.998066,-1895.115499,-10088.140082
928.608676,2354.537438,-1607.976787,-9839.286531
928.611262,153.140646,-421.136778,-9609.575562
928.613849,861.416136,-2411.965181,-9915.856854
928.616435,631.705166,-1473.978722,-9628.718142
928.619021,1359.123237,-2258.824534,-9915.856854
928.621608,-114.855485,1359.123237,-9628.718142
928.624194,248.853550,727.418070,-9743.573627
928.626780,880.558717,1378.265818,-9131.011042
928.629366,459.421939,823.130974,-9705.288466
928.631953,-574.277424,1454.836141,-9341.579430
928.634539,1167.697429,1339.980656,-9379.864592
928.637125,669.990328,-1435.693560,-10145.567824
928.639711,-516.849682,-172.283227,-9724.431046
928.642298,287.138712,650.847747,-9628.718142
928.644884,2009.970984,38.285162,-9647.860723
928.647470,-727.418070,1722.832272,-9705.288466
928.650056,708.275490,-76.570323,-9743.573627
928.652643,1780.260014,401.994197,-9111.868461
928.655229,-287.138712,937.986459,-9705.288466
928.657815,593.420005,153.140646,-10088.140082
928.660401,593.420005,-344.566454,-9399.007173
928.662988,-689.132909,803.988394,-9494.720077
928.665574,344.566454,-3943.371645,-10432.706536
928.668160,1569.691626,-287.138712,-9456.434915
928.670747,-555.134843,-2163.111630,-10011.569758
928.673333,861.416136,-248.853550,-9743.573627
928.675920,842.273555,-1646.261949,-9475.577496
928.678506,-38.285162,-363.709035,-10011.569758
928.681093,172.283227,3445.664544,-9590.432981
928.683680,-76.570323,1971.685822,-9820.143950
928.686267,2258.824534,6087.340694,-8307.880067
928.688853,803.988394,746.560651,-10260.423309
928.691440,-306.281293,4096.512291,-10107.282662
928.694027,765.703232,2928.814862,-9226.723946
928.696614,1990.828403,-899.701298,-10049.854920
928.699200,-229.710970,1875.972918,-8997.012976
928.701787,1435.693560,-306.281293,-9839.286531
928.704374,593.420005,-95.712904,-9743.573627
928.706961,-861.416136,2373.680019,-9169.296203
928.709547,1225.125171,-172.283227,-9820.143950
928.712134,746.560651,937.986459,-9877.571693
928.714721,-727.418070,2277.967115,-9475.577496
928.717308,306.281293,172.283227,-9801.001370
928.719894,1339.980656,650.847747,-9245.866526
928.722481,153.140646,1531.406464,-9571.290400
928.725068,114.855485,535.992262,-9934.999435
928.727655,1282.552914,823.130974,-9226.723946
928.730241,1205.982590,1148.554848,-9418.149754
928.732828,-1301.695494,2258.824534,-9456.434915
928.735415,1435.693560,2660.818731,-9169.296203
928.738002,76.570323,1512.263883,-9705.288466
928.740588,-516.849682,4115.654872,-9207.581365
928.743175,1665.404530,6087.340694,-8652.446522
928.745762,2622.533570,267.996131,-9973.284597
928.748349,-2316.252277,4498.506488,-9245.866526
928.750935,1091.127106,-1071.984525,-9839.286531
928.753522,2201.396792,-1684.547110,-9934.999435
928.756109,-899.701298,-497.707101,-9858.429112
928.758696,918.843878,-1646.261949,-9341.579430
928.761282,1339.980656,-4268.795518,-10088.140082
928.763869,-57.427742,-1071.984525,-9915.856854
928.766456,172.283227,937.986459,-9571.290400
928.769043,995.414202,-210.568389,-9839.286531
928.771629,287.138712,1339.980656,-9265.009107
928.774216,-19.142581,1282.552914,-9609.575562
928.776803,842.273555,823.130974,-9820.143950
928.779390,842.273555,-995.414202,-10030.712339
928.781977,-191.425808,1665.404530,-9379.864592
928.784564,689.132909,-172.283227,-9667.003304
928.787151,823.130974,0.000000,-9705.288466
928.789738,-248.853550,421.136778,-9705.288466
928.792325,995.414202,1378.265818,-9590.432981
928.794912,1071.984525,459.421939,-9609.575562
928.797499,210.568389,-133.998066,-9705.288466
928.800086,-229.710970,1129.412267,-9437.292334
928.802673,803.988394,746.560651,-9628.718142
928.805260,995.414202,-1071.984525,-9973.284597
928.807847,-765.703232,-1148.554848,-9781.858789
928.810434,-287.138712,-459.421939,-9609.575562
928.813021,1244.267752,-2775.674216,-9858.429112
928.815608,440.279358,-1703.689691,-10068.997501
928.818195,-1569.691626,-4153.940034,-10643.274925
928.820782,3292.523898,2603.390989,-8863.014910
928.823369,-631.705166,-727.418070,-10375.278794
928.825956,-172.283227,5149.354235,-9265.009107
928.828543,899.701298,1665.404530,-9265.009107
928.831130,842.273555,2469.392923,-9533.005238
928.833717,-612.562586,6757.331022,-8652.446522
928.836304,1186.840010,2009.970984,-9762.716208
928.838891,1493.121302,1071.984525,-9265.009107
928.841478,-689.132909,-325.423874,-9973.284597
928.844065,1148.554848,995.414202,-9418.149754
928.846652,421.136778,-210.568389,-9915.856854
928.849239,-363.709035,401.994197,-9954.142016
928.851826,880.558717,2086.541307,-8901.300072
928.854414,1378.265818,-631.705166,-9781.858789
928.857001,-574.277424,1703.689691,-9934.999435
928.859588,133.998066,1895.115499,-9475.577496
928.862175,1186.840010,-76.570323,-9475.577496
928.864762,1014.556782,631.705166,-9724.431046
928.867349,-650.847747,1684.547110,-9954.142016
928.869936,631.705166,-114.855485,-9743.573627
928.872523,1627.119368,593.420005,-9341.579430
928.875110,-555.134843,1818.545176,-9686.145885
928.877697,1588.834206,2488.535504,-9628.718142
928.880284,287.138712,1665.404530,-9418.149754
928.882871,-344.566454,3177.668413,-9265.009107
928.885458,1071.984525,4938.785846,-8901.300072
928.888045,2277.967115,880.558717,-9705.288466
928.890632,-593.420005,4326.223261,-9073.583299
928.893220,-1014.556782,918.843878,-9360.722011
928.895807,3713.660675,-3541.377448,-10030.712339
928.898394,-1186.840010,-421.136778,-9934.999435
928.900981,306.281293,-1703.689691,-9705.288466
928.903568,1473.978722,-2852.244539,-9609.575562
928.906156,267.996131,-2143.969050,-10145.567824
928.908743,287.138712,248.853550,-9915.856854
928.911330,1512.263883,899.701298,-9494.720077
928.913917,918.843878,631.705166,-9379.864592
928.916504,765.703232,382.851616,-9781.858789
928.919091,-631.705166,1186.840010,-9571.290400
928.921679,765.703232,784.845813,-9494.720077
928.924266,38.285162,-133.998066,-9954.142016
928.926853,287.138712,995.414202,-9284.151688
928.929440,995.414202,76.570323,-9667.003304
928.932027,516.849682,803.988394,-9896.714274
928.934614,-363.709035,1244.267752,-9418.149754
928.937202,1856.830338,-325.423874,-9456.434915
928.939789,1473.978722,784.845813,-9475.577496
928.942376,-727.418070,76.570323,-9934.999435
928.944963,899.701298,-650.847747,-9839.286531
928.947550,1531.406464,574.277424,-9341.579430
928.950137,-689.132909,-2947.957443,-10432.706536
928.952725,631.705166,-880.558717,-9781.858789
928.955312,478.564520,-2048.256146,-9533.005238
928.957899,765.703232,-172.283227,-9418.149754
928.960486,95.712904,-1914.258080,-9973.284597
928.963073,497.707101,-363.709035,-9954.142016
928.965661,1665.404530,4536.791650,-9150.153622
928.968248,-440.279358,-153.140646,-10222.138147
928.970835,957.129040,5953.342629,-8403.592971
928.973422,1167.697429,3790.230998,-9207.581365
928.976009,-823.130974,746.560651,-10566.704602
928.978596,229.710970,4326.223261,-8977.870395
928.981184,1780.260014,-1110.269686,-9820.143950
928.983771,-306.281293,1167.697429,-9265.009107
928.986329,880.558717,784.845813,-9781.858789
928.988886,1052.841944,-1339.980656,-10088.140082
928.991443,325.423874,1799.402595,-9494.720077
928.994000,-401.994197,1761.117434,-9399.007173
928.996556,1148.554848,-516.849682,-9781.858789
928.999113,842.273555,1703.689691,-9226.723946
929.001670,38.285162,153.140646,-9973.284597
929.004227,976.271621,784.845813,-9590.432981
929.006783,1205.982590,1646.261949,-9169.296203
929.009340,-459.421939,38.285162,-10011.569758
929.011897,1607.976787,1359.123237,-9418.149754
929.014453,401.994197,1741.974853,-9456.434915
929.017010,-880.558717,2431.107762,-9820.143950
929.019567,-746.560651,2431.107762,-9245.866526
929.022124,2163.111630,1167.697429,-9513.862658
929.024680,-478.564520,5838.487144,-9207.581365
929.027237,114.855485,1244.267752,-10011.569758
929.029794,1301.695494,3943.371645,-8671.589102
929.032350,-229.710970,612.562586,-9628.718142
929.034907,1071.984525,-2316.252277,-10202.995566
929.037464,421.136778,267.996131,-9322.436850
929.040021,1799.402595,-2048.256146,-9571.290400
929.042577,-287.138712,-3407.379382,-10164.710405
929.045134,-1110.269686,-1722.832272,-10049.854920
929.047691,2335.394858,-497.707101,-9647.860723
929.050248,497.707101,823.130974,-9973.284597
929.052804,-727.418070,1607.976787,-9303.294269
929.055361,1703.689691,95.712904,-9571.290400
929.057918,325.423874,1493.121302,-9475.577496
929.060474,-306.281293,-363.709035,-9934.999435
929.063031,1569.691626,516.849682,-9762.716208
929.065588,765.703232,535.992262,-9647.860723
929.068145,-248.853550,19.142581,-9839.286531
929.070701,765.703232,1359.123237,-9399.007173
929.073258,995.414202,918.843878,-9590.432981
929.075815,-382.851616,-287.138712,-10145.567824
929.078372,1091.127106,937.986459,-9245.866526
929.080928,593.420005,-459.421939,-9590.432981
929.083485,-229.710970,-19.142581,-10107.282662
929.086042,803.988394,-842.273555,-9858.429112
929.088603,593.420005,363.709035,-9169.296203
929.091164,-497.707101,-3005.385186,-10317.851051
929.093726,421.136778,-2297.109696,-9399.007173
929.096287,-114.855485,-4249.652938,-10413.563955
929.098848,1914.258080,1722.832272,-9667.003304
929.101409,-344.566454,708.275490,-9513.862658
929.103971,1435.693560,3675.375514,-9111.868461
929.106532,861.416136,3771.088418,-9054.440718
929.109093,-631.705166,1435.693560,-9724.431046
929.111654,19.142581,7063.612315,-8537.591037
929.114216,1895.115499,-76.570323,-10317.851051
929.116777,-650.847747,2794.816797,-9073.583299
929.119338,497.707101,-76.570323,-9590.432981
929.121899,1703.689691,937.986459,-9456.434915
929.124461,133.998066,937.986459,-10030.712339
929.127022,-191.425808,382.851616,-9954.142016
929.129583,1339.980656,1014.556782,-8958.727814
929.132145,478.564520,899.701298,-9571.290400
929.134706,-287.138712,1186.840010,-9934.999435
929.137267,1148.554848,669.990328,-9647.860723
929.139828,191.425808,669.990328,-9418.149754
929.142390,-172.283227,708.275490,-9724.431046
929.144951,1110.269686,880.558717,-9571.290400
929.147512,1875.972918,1110.269686,-9322.436850
929.150073,-784.845813,899.701298,-10107.282662
929.152635,248.853550,3005.385186,-9360.722011
929.155196,861.416136,1531.406464,-9341.579430
929.157757,306.281293,727.418070,-10126.425243
929.160319,-497.707101,6431.907149,-8748.159426
929.162880,2488.535504,1129.412267,-9628.718142
929.165441,-535.992262,3464.807125,-9609.575562
929.168002,-861.416136,1971.685822,-8997.012976
929.170564,3196.810994,-2833.101958,-10030.712339
929.173125,153.140646,-2297.109696,-9973.284597
929.175686,-478.564520,-1091.127106,-9494.720077
929.178247,880.558717,-2373.680019,-9781.858789
929.180809,937.986459,-2545.963246,-10068.997501
929.183370,-306.281293,842.273555,-9418.149754
929.185931,1110.269686,267.996131,-10049.854920
929.188492,650.847747,440.279358,-9647.860723
929.191058,95.712904,1282.552914,-9379.864592
929.193623,57.427742,57.427742,-9954.142016
929.196188,1244.267752,57.427742,-9628.718142
929.198754,555.134843,669.990328,-9724.431046
929.201319,-459.421939,-76.570323,-9934.999435
929.203884,1339.980656,823.130974,-9150.153622
929.206450,746.560651,1129.412267,-9571.290400
929.209015,-267.996131,153.140646,-10107.282662
929.211580,976.271621,1263.410333,-9092.725880
929.214145,267.996131,803.988394,-9399.007173
929.216711,555.134843,-1627.119368,-10298.708470
929.219276,478.564520,2258.824534,-9131.011042
929.221841,784.845813,-2584.248408,-10049.854920
929.224407,1263.410333,-2852.244539,-10241.280728
929.226972,-1741.974853,-1722.832272,-9609.575562
929.229537,2048.256146,-1722.832272,-9590.432981
929.232103,1339.980656,631.705166,-9399.007173
929.234668,-2431.107762,-1244.267752,-10088.140082
929.237233,803.988394,4153.940034,-9571.290400
929.239798,1110.269686,880.558717,-9494.720077
929.242364,172.283227,3445.664544,-9379.864592
929.244929,784.845813,6183.053598,-8920.442653
929.247494,1359.123237,-133.998066,-10107.282662
929.250060,-2239.681954,4536.791650,-9054.440718
929.252625,880.558717,-2029.113565,-10183.852986
929.255190,1569.691626,1493.121302,-8652.446522
929.257755,-650.847747,1512.263883,-10183.852986
929.260321,229.710970,-631.705166,-10451.849117
929.262886,1339.980656,1359.123237,-8786.444587
929.265451,555.134843,0.000000,-9820.143950
929.268017,-153.140646,880.558717,-9934.999435
929.270582,689.132909,1320.838075,-9494.720077
929.273147,650.847747,-421.136778,-9839.286531
929.275713,-57.427742,1148.554848,-9360.722011
929.278278,535.992262,1895.115499,-9207.581365
929.280843,1071.984525,574.277424,-9820.143950
929.283408,-248.853550,1071.984525,-9628.718142
929.285974,516.849682,3445.664544,-9169.296203
929.288539,1339.980656,2833.101958,-9341.579430
929.291104,1205.982590,746.560651,-9781.858789
929.293645,-918.843878,5647.061336,-9035.298138
929.296185,440.279358,1435.693560,-9934.999435
929.298726,1933.400661,2201.396792,-9188.438784
929.301266,-2086.541307,4536.791650,-8633.303941
929.303807,2105.683888,-5302.494882,-10872.985894
929.306347,-153.140646,-803.988394,-9533.005238
929.308888,-267.996131,-1454.836141,-9399.007173
929.311428,1397.408398,-2947.957443,-9858.429112
929.313969,669.990328,-1397.408398,-9418.149754
929.316509,153.140646,880.558717,-9686.145885
929.319050,746.560651,210.568389,-10164.710405
929.321590,593.420005,1129.412267,-9207.581365
929.324131,-153.140646,287.138712,-9513.862658
929.326671,440.279358,1359.123237,-9724.431046
929.329212,1320.838075,-114.855485,-9628.718142
929.331752,-363.709035,267.996131,-9992.427178
929.334293,76.570323,191.425808,-9475.577496
929.336833,1416.550979,937.986459,-9169.296203
929.339374,1052.841944,-382.851616,-9877.571693
929.341914,-363.709035,1205.982590,-9475.577496
929.344454,784.845813,1091.127106,-9533.005238
929.346995,995.414202,-2009.970984,-10049.854920
929.349535,-516.849682,1818.545176,-9265.009107
929.352076,1378.265818,-2048.256146,-9934.999435
929.354616,1167.697429,-669.990328,-9781.858789
929.357157,-1071.984525,-708.275490,-9628.718142
929.359697,1359.123237,-937.986459,-9590.432981
929.362238,612.562586,-5245.067139,-10662.417506
929.364778,995.414202,2182.254211,-9705.288466
929.367319,401.994197,1531.406464,-9628.718142
929.369859,1588.834206,1741.974853,-9724.431046
929.372400,1320.838075,6068.198114,-8327.022648
929.374940,-325.423874,1052.841944,-10088.140082
929.377481,823.130974,5436.492947,-9054.440718
929.380021,1186.840010,2335.394858,-9533.005238
929.382562,-669.990328,440.279358,-9858.429112
929.385102,689.132909,-19.142581,-9245.866526
929.387643,861.416136,1933.400661,-9379.864592
929.390183,-535.992262,612.562586,-10566.704602
929.392724,306.281293,1971.685822,-9054.440718
929.395271,1071.984525,-248.853550,-9073.583299
929.397819,19.142581,401.994197,-9954.142016
929.400366,574.277424,2737.389054,-9456.434915
929.402914,803.988394,-306.281293,-9858.429112
929.405461,114.855485,229.710970,-9513.862658
929.408009,-19.142581,1990.828403,-8939.585234
929.410557,1933.400661,803.988394,-9667.003304
929.413104,210.568389,1205.982590,-10088.140082
929.415652,-937.986459,2909.672282,-9533.005238
929.418199,114.855485,2143.969050,-9494.720077
929.420747,2316.252277,-478.564520,-9934.999435
929.423294,-555.134843,6125.625856,-9073.583299
929.425842,-153.140646,1684.547110,-10145.567824
929.428389,2086.541307,2392.822600,-9265.009107
929.430937,-1110.269686,3771.088418,-8595.018779
929.433485,1359.123237,-4613.361973,-10700.702667
929.436032,746.560651,-1052.841944,-9609.575562
929.438580,114.855485,-459.421939,-9150.153622
929.441127,-133.998066,-3809.373579,-10241.280728
929.443675,382.851616,-1186.840010,-9590.432981
929.446222,1110.269686,861.416136,-9284.151688
929.448770,363.709035,-133.998066,-10662.417506
929.451317,861.416136,1569.691626,-9226.723946
929.453865,784.845813,1033.699363,-9226.723946
929.456412,-478.564520,-612.562586,-10356.136213
929.458960,516.849682,1071.984525,-9360.722011
929.461508,1435.693560,459.421939,-9494.720077
929.464055,-267.996131,-133.998066,-10222.138147
929.466603,612.562586,1875.972918,-9360.722011
929.469150,1722.832272,-708.275490,-9552.147819
929.471698,516.849682,708.275490,-9781.858789
929.474245,-1033.699363,2220.539373,-9437.292334
929.476793,1512.263883,-1856.830338,-9820.143950
929.479340,535.992262,1205.982590,-9322.436850
929.481888,-765.703232,-1761.117434,-9915.856854
929.484436,1971.685822,-2239.681954,-9992.427178
929.486983,-1761.117434,-976.271621,-9954.142016
929.489531,1052.841944,-38.285162,-9322.436850
929.492078,1186.840010,-2507.678085,-9628.718142
929.494626,-1205.982590,-1971.685822,-10317.851051
929.497179,-497.707101,4517.649069,-9399.007173
929.499733,153.140646,-287.138712,-10298.708470
929.502287,1761.117434,4747.360038,-8480.163294
929.504841,-210.568389,4134.797453,-9341.579430
929.507394,-746.560651,1990.828403,-10451.849117
929.509948,1512.263883,3637.090352,-8843.872330
929.512502,478.564520,-1320.838075,-10030.712339
929.515055,-76.570323,995.414202,-9150.153622
929.517609,1091.127106,1703.689691,-9590.432981
929.520163,765.703232,-612.562586,-10126.425243
929.522717,38.285162,1799.402595,-8939.585234
929.525270,1110.269686,880.558717,-9513.862658
929.527824,325.423874,-229.710970,-10202.995566
929.530378,-172.283227,1761.117434,-9379.864592
929.532931,1454.836141,1071.984525,-9552.147819
929.535485,363.709035,19.142581,-9973.284597
929.538039,-191.425808,1416.550979,-9303.294269
929.540592,363.709035,1607.976787,-9360.722011
929.543146,1435.693560,784.845813,-10107.282662
929.545700,-440.279358,2258.824534,-9513.862658
929.548254,-478.564520,1607.976787,-9552.147819
929.550807,1378.265818,4804.787781,-8920.442653
929.553361,2105.683888,2048.256146,-9533.005238
929.555915,-2794.816797,5340.780043,-9169.296203
929.558468,2277.967115,-976.271621,-9896.714274
929.561022,1225.125171,-459.421939,-9609.575562
929.563576,-1244.267752,612.562586,-9322.436850
929.566129,2488.535504,-2813.959378,-9667.003304
929.568683,-535.992262,-3503.092286,-10202.995566
929.571237,-248.853550,-1225.125171,-10202.995566
929.573791,1799.402595,-19.142581,-9762.716208
929.576344,1244.267752,1761.117434,-9609.575562
929.578898,-1569.691626,-440.279358,-10068.997501
929.581452,1378.265818,631.705166,-8997.012976
929.584005,1071.984525,1531.406464,-9265.009107
929.586559,-555.134843,-957.129040,-10719.845248
929.589113,325.423874,1990.828403,-8977.870395
929.591666,1225.125171,-516.849682,-9341.579430
929.594220,76.570323,229.710970,-9858.429112
929.596774,708.275490,2086.541307,-9399.007173
929.599332,1091.127106,-267.996131,-9934.999435
929.601891,306.281293,0.000000,-9743.573627
929.604449,229.710970,497.707101,-9379.864592
929.607008,1071.984525,-248.853550,-9839.286531
929.609566,497.707101,-1071.984525,-10011.569758
929.612124,650.847747,-1722.832272,-9801.001370
929.614683,38.285162,-2756.531635,-9934.999435
929.617241,1856.830338,-1110.269686,-9628.718142
929.619800,-267.996131,1014.556782,-9035.298138
929.622358,-1091.127106,-2507.678085,-10681.560086
929.624916,2220.539373,4441.078746,-8882.157491
929.627475,-248.853550,918.843878,-9762.716208
929.630033,-133.998066,2603.390989,-9705.288466
929.632592,1837.687757,5647.061336,-8365.307810
929.635150,-325.423874,1933.400661,-10068.997501
929.637708,-650.847747,3866.801322,-9494.720077
929.640267,1703.689691,-1493.121302,-9552.147819
929.642825,1014.556782,440.279358,-9073.583299
929.645384,-459.421939,1550.549045,-10432.706536
929.647942,1205.982590,918.843878,-9839.286531
929.650501,325.423874,114.855485,-9054.440718
929.653059,-114.855485,306.281293,-9513.862658
929.655617,1129.412267,2277.967115,-9801.001370
929.658176,1052.841944,-325.423874,-10164.710405
929.660734,-382.851616,459.421939,-9322.436850
929.663293,287.138712,1416.550979,-9360.722011
929.665851,1148.554848,478.564520,-10088.140082
929.668409,325.423874,2507.678085,-9437.292334
929.670968,-957.129040,1607.976787,-9456.434915
929.673526,995.414202,3330.809059,-9399.007173
929.676085,1378.265818,2699.103893,-9131.011042
929.678643,-363.709035,2947.957443,-9647.860723
929.681202,57.427742,3541.377448,-9762.716208
929.683760,2947.957443,-708.275490,-9705.288466
929.686318,-2067.398726,5225.924558,-8499.305875
929.688877,191.425808,-535.992262,-10145.567824
929.691435,1952.543242,-2890.529701,-9533.005238
929.693994,-2048.256146,-3426.521963,-10298.708470
929.696552,1148.554848,-2220.539373,-9896.714274
929.699110,1799.402595,-1110.269686,-9322.436850
929.701673,-957.129040,2545.963246,-9667.003304
929.704236,497.707101,-555.134843,-10413.563955
929.706798,1359.123237,1684.547110,-8480.163294
929.709361,-172.283227,38.285162,-9686.145885
929.711924,172.283227,459.421939,-10279.565890
929.714486,669.990328,1186.840010,-9054.440718
929.717049,650.847747,-1359.123237,-9992.427178
929.719612,19.142581,2009.970984,-9513.862658
929.722174,1071.984525,593.420005,-9437.292334
929.724737,459.421939,-727.418070,-9762.716208
929.727300,-114.855485,1588.834206,-9437.292334
929.729862,1990.828403,-153.140646,-9667.003304
929.732425,1416.550979,-267.996131,-9628.718142
929.734988,-478.564520,-689.132909,-9533.005238
929.737550,2392.822600,-2201.396792,-9762.716208
929.740113,38.285162,-2928.814862,-10279.565890
929.742676,-842.273555,-3177.668413,-10088.140082
929.745238,555.134843,2335.394858,-8671.589102
929.747801,1531.406464,-2105.683888,-10202.995566
929.750364,555.134843,4881.358104,-9226.723946
929.752926,-1014.556782,478.564520,-9973.284597
929.755489,1856.830338,3139.383251,-9150.153622
929.758052,306.281293,6049.055533,-8422.735552
929.760614,-1339.980656,1186.840010,-10241.280728
929.763177,899.701298,3235.096155,-9322.436850
929.765740,1033.699363,-784.845813,-9341.579430
929.768302,-95.712904,803.988394,-9494.720077
929.770865,363.709035,1110.269686,-10164.710405
929.773428,1014.556782,459.421939,-9724.431046
929.775990,-153.140646,306.281293,-9437.292334
929.778553,1186.840010,1646.261949,-9131.011042
929.781116,689.132909,478.564520,-10145.567824
929.783678,-516.849682,133.998066,-10088.140082
929.786241,746.560651,1856.830338,-8805.587168
929.788804,1359.123237,555.134843,-9628.718142
929.791366,-497.707101,708.275490,-10164.710405
929.793929,-708.275490,3464.807125,-8977.870395
929.796492,746.560651,1014.556782,-9877.571693
929.799054,1550.549045,746.560651,-10107.282662
929.801617,-957.129040,6833.901346,-8537.591037
929.804183,1952.543242,727.418070,-10164.710405
929.806750,-535.992262,4536.791650,-9092.725880
929.809316,440.279358,1091.127106,-9207.581365
929.811882,1148.554848,-1263.410333,-10317.851051
929.814449,229.710970,421.136778,-9839.286531
929.817015,325.423874,-1225.125171,-9226.723946
929.819581,-440.279358,-5130.211654,-10643.274925
929.822148,2737.389054,-1550.549045,-9437.292334
929.824714,306.281293,1071.984525,-9188.438784
929.827280,-976.271621,976.271621,-10451.849117
929.829847,1071.984525,765.703232,-9303.294269
929.832413,842.273555,765.703232,-8863.014910
929.834979,-918.843878,650.847747,-9954.142016
929.837546,1301.695494,-172.283227,-10183.852986
929.840112,325.423874,2048.256146,-9265.009107
929.842678,-459.421939,-861.416136,-9973.284597
929.845245,267.996131,2431.107762,-9131.011042
929.847811,995.414202,-1033.699363,-9762.716208
929.850377,-363.709035,1033.699363,-9820.143950
929.852944,1588.834206,727.418070,-9781.858789
929.855510,1378.265818,-421.136778,-9762.716208
929.858076,-612.562586,-1531.406464,-9724.431046
929.860643,1225.125171,-1454.836141,-9360.722011
929.863209,306.281293,-1875.972918,-10126.425243
929.865775,727.418070,-76.570323,-9628.718142
929.868342,-248.853550,-2354.537438,-9494.720077
929.870908,-631.705166,-2201.396792,-10413.563955
929.873474,1684.547110,4096.512291,-8939.585234
929.876041,-1320.838075,478.564520,-10356.136213
929.878607,382.851616,5991.627790,-9035.298138
929.881173,2182.254211,2986.242605,-9073.583299
929.883740,-1397.408398,3445.664544,-9705.288466
929.886308,555.134843,1665.404530,-9954.142016
929.888877,1416.550979,-1091.127106,-9590.432981
929.891446,-995.414202,2584.248408,-8997.012976
929.894015,1397.408398,401.994197,-10470.991698
929.896584,1148.554848,1205.982590,-8805.587168
929.899153,-344.566454,172.283227,-9092.725880
929.901722,0.000000,861.416136,-9896.714274
929.904291,1186.840010,2354.537438,-9628.718142
929.906860,133.998066,-535.992262,-10030.712339
929.909429,-765.703232,229.710970,-9399.007173
929.911998,2105.683888,2067.398726,-9226.723946
929.914567,880.558717,-191.425808,-10451.849117
929.917136,-689.132909,3043.670347,-9437.292334
929.919705,842.273555,1627.119368,-9341.579430
929.922274,842.273555,-1186.840010,-10126.425243
929.924843,-57.427742,6412.764568,-8805.587168
929.927411,-19.142581,1990.828403,-9839.286531
929.929980,1646.261949,2813.959378,-9245.866526
929.932549,-57.427742,2871.387120,-8863.014910
929.935118,1225.125171,-2737.389054,-10336.993632
929.937687,746.560651,-229.710970,-9743.573627
929.940256,842.273555,-535.992262,-9150.153622
929.942825,-861.416136,-3483.949706,-10107.282662
929.945394,2316.252277,-2526.820666,-9896.714274
929.947963,2048.256146,1186.840010,-9035.298138
929.950532,-593.420005,861.416136,-10375.278794
929.953101,363.709035,-38.285162,-9590.432981
929.955670,1550.549045,1244.267752,-8575.876198
929.958239,-842.273555,267.996131,-10126.425243
929.960808,823.130974,191.425808,-10298.708470
929.963377,1052.841944,2163.111630,-8863.014910
929.965946,-459.421939,-478.564520,-10145.567824
929.968514,995.414202,382.851616,-9724.431046
929.971083,746.560651,1454.836141,-9169.296203
929.973652,-497.707101,-1320.838075,-10490.134278
929.976221,0.000000,1588.834206,-9399.007173
929.978790,2584.248408,-1071.984525,-9418.149754
929.981359,-803.988394,-1014.556782,-9724.431046
929.983928,-1301.695494,-516.849682,-9341.579430
929.986497,1952.543242,-2335.394858,-9781.858789
929.989069,-344.566454,-4536.791650,-10796.415571
929.991640,459.421939,2679.961312,-8671.589102
929.994211,689.132909,-1665.404530,-9934.999435
929.996783,765.703232,4077.369710,-9418.149754
929.999354,38.285162,976.271621,-9820.143950
930.001925,-1148.554848,1282.552914,-9896.714274
930.004496,2373.680019,5838.487144,-8843.872330
930.007067,191.425808,2297.109696,-9915.856854
930.009639,-555.134843,1378.265818,-9341.579430
930.012210,1473.978722,-1493.121302,-9399.007173
930.014781,-153.140646,2507.678085,-9322.436850
930.017352,-172.283227,669.990328,-10662.417506
930.019924,1761.117434,-114.855485,-9418.149754
930.022495,-421.136778,2124.826469,-8499.305875
930.025066,-229.710970,-57.427742,-10279.565890
930.027637,1167.697429,2507.678085,-9399.007173
930.030208,267.996131,-325.423874,-9724.431046
930.032780,-421.136778,421.136778,-9724.431046
930.035351,1397.408398,1110.269686,-9207.581365
930.037922,689.132909,2182.254211,-9647.860723
930.040493,-631.705166,593.420005,-10624.132344
930.043065,593.420005,3522.234867,-9131.011042
930.045636,1512.263883,4651.647134,-8556.733618
930.048207,210.568389,612.562586,-10394.421374
930.050778,-1397.408398,2048.256146,-8958.727814
930.053350,2488.535504,459.421939,-9513.862658
930.055921,1895.115499,-2277.967115,-10490.134278
930.058492,-1378.265818,1722.832272,-8977.870395
930.061063,2067.398726,-2392.822600,-9571.290400
930.063634,267.996131,-4919.643266,-10796.415571
930.066206,516.849682,-516.849682,-9399.007173
930.068777,765.703232,287.138712,-9896.714274
930.071348,1531.406464,1110.269686,-9858.429112
930.073919,-1110.269686,325.423874,-9092.725880
930.076491,669.990328,1493.121302,-8748.159426
930.079062,1416.550979,38.285162,-9877.571693
930.081633,-631.705166,1378.265818,-10222.138147
930.084204,267.996131,-363.709035,-9418.149754
930.086776,1761.117434,937.986459,-8595.018779
930.089347,325.423874,1339.980656,-9858.429112
930.091919,-803.988394,708.275490,-9839.286531
930.094492,631.705166,899.701298,-9207.581365
930.097065,669.990328,-746.560651,-10011.569758
930.099637,-191.425808,-2431.107762,-10298.708470
930.102210,421.136778,1244.267752,-8824.729749
930.104783,38.285162,-1856.830338,-10068.997501
930.107355,1033.699363,-1837.687757,-10202.995566
930.109928,-765.703232,-3407.379382,-9973.284597
930.112501,2392.822600,363.709035,-9571.290400
930.115073,-1186.840010,-555.134843,-9265.009107
930.117646,-1244.267752,3407.379382,-9150.153622
930.120219,2009.970984,4441.078746,-8977.870395
930.122791,918.843878,1397.408398,-9992.427178
930.125364,-1282.552914,6642.475538,-8690.731683
930.127937,1473.978722,976.271621,-10336.993632
930.130509,995.414202,-38.285162,-9399.007173
930.133082,-574.277424,1359.123237,-8958.727814
930.135655,1186.840010,0.000000,-10451.849117
930.138227,899.701298,937.986459,-9992.427178
930.140800,-344.566454,1780.260014,-9092.725880
930.143372,306.281293,-153.140646,-9456.434915
930.145945,784.845813,2239.681954,-9169.296203
930.148518,-38.285162,95.712904,-10126.425243
930.151090,842.273555,708.275490,-9513.862658
930.153663,899.701298,1914.258080,-9073.583299
930.156236,421.136778,631.705166,-9781.858789
930.158808,114.855485,1895.115499,-9456.434915
930.161381,1129.412267,4709.074877,-8863.014910
930.163954,899.701298,-248.853550,-10566.704602
930.166526,-880.558717,4881.358104,-9226.723946
930.169099,-1263.410333,4287.938099,-9035.298138
930.171672,3579.662610,-2297.109696,-10241.280728
930.174244,-1550.549045,5800.201982,-8786.444587
930.176817,1780.260014,-2679.961312,-10183.852986
930.179390,229.710970,-4115.654872,-10298.708470
930.181962,765.703232,-1167.697429,-9475.577496
930.184535,344.566454,-2813.959378,-9686.145885
930.187108,38.285162,-1646.261949,-9877.571693
930.189680,727.418070,2048.256146,-9590.432981
930.192253,172.283227,784.845813,-10202.995566
930.194827,708.275490,-861.416136,-9284.151688
930.197400,727.418070,2526.820666,-8709.874264
930.199974,248.853550,-823.130974,-11026.126541
930.202548,650.847747,1607.976787,-9743.573627
930.205122,937.986459,861.416136,-9073.583299
930.207696,-325.423874,-1110.269686,-9934.999435
930.210270,1550.549045,2067.398726,-9092.725880
930.212843,823.130974,-19.142581,-9743.573627
930.215417,-976.271621,669.990328,-10298.708470
930.217991,1493.121302,-918.843878,-9571.290400
930.220565,2009.970984,-631.705166,-9092.725880
930.223139,-823.130974,-1205.982590,-10298.708470
930.225712,459.421939,-1646.261949,-9973.284597
930.228286,229.710970,-3771.088418,-10183.852986
930.230860,1359.123237,995.414202,-9399.007173
930.233434,-823.130974,-880.558717,-10011.569758
930.236008,1244.267752,5264.209720,-8729.016845
930.238581,-306.281293,574.277424,-10183.852986
930.241155,76.570323,3043.670347,-9628.718142
930.243729,880.558717,6355.336826,-8231.309744
930.246303,1493.121302,842.273555,-10279.565890
930.248877,-401.994197,1014.556782,-9341.579430
930.251450,76.570323,401.994197,-9016.155557
930.254024,1588.834206,861.416136,-10030.712339
930.256598,-631.705166,593.420005,-10719.845248
930.259172,153.140646,555.134843,-8977.870395
930.261746,1952.543242,267.996131,-8824.729749
930.264319,-363.709035,1378.265818,-10317.851051
930.266893,-95.712904,937.986459,-10088.140082
930.269467,1933.400661,401.994197,-8920.442653
930.272041,-459.421939,899.701298,-9762.716208
930.274615,-803.988394,2450.250342,-9628.718142
930.277189,555.134843,1646.261949,-9456.434915
930.279762,1129.412267,3560.520029,-9418.149754
930.282336,-38.285162,1856.830338,-9915.856854
930.284910,937.986459,3598.805190,-9169.296203
930.287484,-38.285162,3292.523898,-9513.862658
930.290058,1339.980656,-1569.691626,-10528.419440
930.292631,-669.990328,6259.623922,-8135.596840
930.295205,2679.961312,-4019.941968,-10317.851051
930.297780,191.425808,-3924.229064,-10394.421374
930.300355,-2143.969050,-1952.543242,-9552.147819
930.302930,3043.670347,-3541.377448,-9705.288466
930.305505,976.271621,-1167.697429,-9934.999435
930.308080,-1167.697429,3675.375514,-9475.577496
930.310655,937.986459,-1990.828403,-10509.276859
930.313230,937.986459,1282.552914,-8518.448456
930.315805,172.283227,1607.976787,-9188.438784
930.318380,1033.699363,-746.560651,-11006.983960
930.320955,0.000000,1856.830338,-9533.005238
930.323530,-38.285162,133.998066,-9188.438784
930.326104,765.703232,-57.427742,-9743.573627
930.328679,574.277424,2143.969050,-9341.579430
930.331254,248.853550,-210.568389,-10068.997501
930.333829,555.134843,172.283227,-9820.143950
930.336404,1052.841944,-1359.123237,-9475.577496
930.338979,1014.556782,-1818.545176,-9915.856854
930.341554,-1703.689691,-899.701298,-10126.425243
930.344129,3081.955509,-306.281293,-9207.581365
930.346704,191.425808,-3809.373579,-10088.140082
930.349279,-1033.699363,-363.709035,-10202.995566
930.351854,306.281293,3962.514226,-9092.725880
930.354429,880.558717,344.566454,-9839.286531
930.357004,287.138712,5589.633594,-8824.729749
930.359579,-172.283227,3215.953574,-9571.290400
930.362154,689.132909,4287.938099,-9379.864592
930.364729,-478.564520,803.988394,-10202.995566
930.367304,803.988394,-95.712904,-9111.868461
930.369879,1148.554848,1397.408398,-9073.583299
930.372453,-95.712904,-133.998066,-10777.272990
930.375028,-382.851616,1799.402595,-9341.579430
930.377603,1148.554848,19.142581,-9035.298138
930.380178,765.703232,899.701298,-9609.575562
930.382753,-823.130974,689.132909,-10279.565890
930.385328,1512.263883,746.560651,-9552.147819
930.387903,1052.841944,861.416136,-9399.007173
930.390478,-535.992262,1091.127106,-9820.143950
930.393053,1052.841944,1952.543242,-9437.292334
930.395628,95.712904,3101.098090,-9226.723946
930.398203,727.418070,-459.421939,-10470.991698
930.400778,267.996131,4268.795518,-9265.009107
930.403353,-19.142581,3311.666478,-8997.012976
930.405929,1627.119368,191.425808,-9839.286531
930.408504,-1167.697429,5934.200048,-8461.020714
930.411079,2009.970984,-4096.512291,-10394.421374
930.413654,-784.845813,-2067.398726,-10164.710405
930.416229,-95.712904,-516.849682,-9092.725880
930.418805,899.701298,-3981.656806,-9513.862658
930.421380,1320.838075,-1512.263883,-9858.429112
930.423955,-287.138712,2048.256146,-9552.147819
930.426530,1512.263883,976.271621,-10030.712339
930.429106,1301.695494,-363.709035,-8786.444587
930.431681,0.000000,2335.394858,-9016.155557
930.434256,-57.427742,-823.130974,-10872.985894
930.436831,1225.125171,459.421939,-9801.001370
930.439407,248.853550,1684.547110,-8901.300072
930.441982,57.427742,-267.996131,-9801.001370
930.444557,861.416136,669.990328,-9552.147819
930.447132,57.427742,1301.695494,-9322.436850
930.449707,95.712904,172.283227,-10107.282662
930.452283,1454.836141,-2009.970984,-9954.142016
930.454858,1531.406464,-1741.974853,-9265.009107
930.457433,-2986.242605,-2699.103893,-10432.706536
930.460008,2967.100024,229.710970,-9284.151688
930.462584,421.136778,-1473.978722,-9360.722011
930.465159,-2660.818731,-1550.549045,-10700.702667
930.467734,1741.974853,2201.396792,-9265.009107
930.470309,555.134843,1837.687757,-9284.151688
930.472884,210.568389,5570.491013,-8997.012976
930.475460,765.703232,1665.404530,-10088.140082
930.478035,172.283227,5608.776174,-8863.014910
930.480610,57.427742,133.998066,-10279.565890
930.483185,-248.853550,382.851616,-9073.583299
930.485761,1091.127106,1952.543242,-8767.302006
930.488336,248.853550,-1378.265818,-11198.409768
930.490911,-287.138712,2928.814862,-9111.868461
930.493486,287.138712,-765.703232,-9533.005238
930.496061,1148.554848,459.421939,-9552.147819
930.498637,-1014.556782,1741.974853,-9877.571693
930.501212,976.271621,459.421939,-10241.280728
930.503787,2009.970984,497.707101,-9456.434915
930.506363,-401.994197,1895.115499,-9418.149754
930.508938,-689.132909,440.279358,-9762.716208
930.511514,1378.265818,3311.666478,-9265.009107
930.514089,19.142581,4039.084549,-9437.292334
930.516664,-95.712904,2009.970984,-9992.427178
930.519240,-1569.691626,5608.776174,-8729.016845
930.521815,2775.674216,-1665.404530,-9705.288466
930.524391,-2220.539373,842.273555,-10011.569758
930.526966,1167.697429,1225.125171,-9628.718142
930.529541,899.701298,-4039.084549,-10011.569758
930.532117,-1856.830338,-4192.225195,-10528.419440
930.534692,1741.974853,-2431.107762,-9437.292334
930.537268,535.992262,-803.988394,-9686.145885
930.539843,-535.992262,2469.392923,-10164.710405
930.542418,497.707101,612.562586,-10145.567824
930.544994,1665.404530,-267.996131,-8441.878133
930.547569,191.425808,1550.549045,-9456.434915
930.550145,-459.421939,1129.412267,-10719.845248
930.552720,1454.836141,-555.134843,-9724.431046
930.555295,689.132909,1741.974853,-8729.016845
930.557871,-880.558717,708.275490,-9628.718142
930.560446,1646.261949,-746.560651,-9724.431046
930.563022,-478.564520,2182.254211,-9341.579430
930.565597,344.566454,-2124.826469,-10451.849117
930.568172,1722.832272,-669.990328,-9571.290400
930.570748,842.273555,-325.423874,-8997.012976
930.573323,957.129040,-1799.402595,-10049.854920
930.575899,248.853550,-4173.082614,-10566.704602
930.578474,2431.107762,1416.550979,-9245.866526
930.581049,-880.558717,-153.140646,-10145.567824
930.583625,287.138712,3809.373579,-9360.722011
930.586200,2201.396792,3732.803256,-8269.594906
930.588776,-937.986459,1703.689691,-10183.852986
930.591351,-114.855485,5742.774240,-9360.722011
930.593926,1339.980656,3062.812928,-9360.722011
930.596502,1052.841944,-2775.674216,-9820.143950
930.599077,-535.992262,2507.678085,-8824.729749
930.601653,727.418070,1607.976787,-10241.280728
930.604228,880.558717,-1607.976787,-10662.417506
930.606803,76.570323,2871.387120,-8403.592971
930.609379,459.421939,382.851616,-9399.007173
930.611954,555.134843,-1397.408398,-10260.423309
930.614529,229.710970,3522.234867,-9073.583299
930.617105,708.275490,114.855485,-10260.423309
930.619680,842.273555,-114.855485,-9781.858789
930.622255,-114.855485,1569.691626,-9073.583299
930.624830,-823.130974,2565.105827,-9992.427178
930.627406,2450.250342,3809.373579,-9590.432981
930.629981,1052.841944,3426.521963,-9303.294269
930.632556,-2048.256146,4115.654872,-9494.720077
930.635132,3617.947771,-2258.824534,-10049.854920
930.637707,-267.996131,5359.922624,-8212.167163
930.640282,344.566454,-1952.543242,-10604.989763
930.642858,76.570323,-4555.934230,-10700.702667
930.645433,1339.980656,-1129.412267,-9016.155557
930.648008,1091.127106,-3981.656806,-10298.708470
930.650583,-191.425808,229.710970,-9552.147819
930.653159,555.134843,2928.814862,-9533.005238
930.655734,-95.712904,-1588.834206,-10777.272990
930.658309,344.566454,1665.404530,-8365.307810
930.660885,1186.840010,1110.269686,-9111.868461
930.663460,210.568389,-1110.269686,-11045.269122
930.666035,57.427742,3292.523898,-9131.011042
930.668611,1473.978722,-459.421939,-9437.292334
930.671186,-133.998066,-363.709035,-9877.571693
930.673761,-344.566454,2316.252277,-9035.298138
930.676337,1320.838075,-306.281293,-10260.423309
930.678912,918.843878,-1914.258080,-10375.278794
930.681487,210.568389,-746.560651,-9188.438784
930.684062,-344.566454,-1722.832272,-9647.860723
930.686638,2354.537438,-1071.984525,-9667.003304
930.689213,-631.705166,-3043.670347,-9954.142016
930.691788,38.285162,382.851616,-10030.712339
930.694364,2565.105827,95.712904,-10030.712339
930.696939,-1205.982590,3866.801322,-9092.725880
930.699514,899.701298,4632.504554,-8805.587168
930.702090,2182.254211,2469.392923,-9896.714274
930.704665,-95.712904,5474.778109,-9265.009107
930.707240,-363.709035,803.988394,-10164.710405
930.709816,2316.252277,-1607.976787,-9207.581365
930.712392,-344.566454,3522.234867,-8537.591037
930.714967,-631.705166,-1225.125171,-11140.982026
930.717543,1320.838075,1493.121302,-9533.005238
930.720118,421.136778,1531.406464,-8709.874264
930.722694,-440.279358,-899.701298,-9762.716208
930.725270,976.271621,1990.828403,-9265.009107
930.727845,1378.265818,-114.855485,-10030.712339
930.730421,38.285162,823.130974,-9915.856854
930.732997,153.140646,2220.539373,-9073.583299
930.735572,401.994197,1818.545176,-9437.292334
930.738148,899.701298,133.998066,-10336.993632
930.740724,-516.849682,6719.045861,-8729.016845
930.743299,2392.822600,1703.689691,-9762.716208
930.745875,-1569.691626,4804.787781,-9322.436850
930.748451,516.849682,995.414202,-9016.155557
930.751026,2699.103893,-4594.219392,-10624.132344
930.753602,38.285162,-95.712904,-9915.856854
930.756177,-803.988394,-440.279358,-9284.151688
930.758753,861.416136,-5111.069074,-10164.710405
930.761329,2201.396792,-2833.101958,-9552.147819
930.763904,-1205.982590,2967.100024,-9169.296203
930.766480,861.416136,191.425808,-10758.130410
930.769056,1799.402595,38.285162,-9303.294269
930.771631,-133.998066,1627.119368,-8767.302006
930.774207,-19.142581,-306.281293,-10222.138147
930.776783,1014.556782,995.414202,-9954.142016
930.779358,1014.556782,-38.285162,-9667.003304
930.781934,-1071.984525,497.707101,-9571.290400
930.784510,1359.123237,842.273555,-9303.294269
930.787085,-823.130974,708.275490,-10011.569758
930.789661,-267.996131,-1933.400661,-10375.278794
930.792236,2335.394858,114.855485,-9111.868461
930.794812,-727.418070,-555.134843,-9934.999435
930.797388,133.998066,-3177.668413,-10107.282662
930.799963,555.134843,-3866.801322,-9781.858789
930.802539,1761.117434,2124.826469,-9073.583299
930.805115,-325.423874,631.705166,-10126.425243
930.807690,-401.994197,4766.502619,-9054.440718
930.810266,2239.681954,2220.539373,-8958.727814
930.812841,-459.421939,2029.113565,-9896.714274
930.815417,-401.994197,6604.190376,-8709.874264
930.817992,1359.123237,2277.967115,-10107.282662
930.820567,650.847747,-727.418070,-9762.716208
930.823143,-57.427742,1493.121302,-8575.876198
930.825718,1052.841944,172.283227,-10145.567824
930.828293,-689.132909,957.129040,-9973.284597
930.830869,153.140646,1225.125171,-8939.585234
930.833444,1071.984525,76.570323,-9437.292334
930.836020,612.562586,1684.547110,-9705.288466
930.838595,-440.279358,267.996131,-10145.567824
930.841170,1033.699363,1339.980656,-9418.149754
930.843746,1282.552914,784.845813,-9533.005238
930.846321,-1110.269686,1990.828403,-9781.858789
930.848896,880.558717,1646.261949,-9820.143950
930.851472,1359.123237,4938.785846,-9035.298138
930.854047,440.279358,2526.820666,-9858.429112
930.856622,-401.994197,3885.943902,-9226.723946
930.859198,899.701298,2833.101958,-8805.587168
930.861773,2718.246474,-4173.082614,-10643.274925
930.864348,-1282.552914,708.275490,-9686.145885
930.866924,1741.974853,-1091.127106,-9169.296203
930.869499,363.709035,-4977.071008,-10700.702667
930.872075,478.564520,-2622.533570,-9705.288466
930.874650,1703.689691,2009.970984,-8882.157491
930.877225,153.140646,1244.267752,-10719.845248
930.879801,-880.558717,287.138712,-8939.585234
930.882376,1167.697429,1397.408398,-8422.735552
930.884951,1301.695494,-172.283227,-10509.276859
930.887527,-803.988394,1550.549045,-10375.278794
930.890102,382.851616,267.996131,-8997.012976
930.892677,1473.978722,-497.707101,-9092.725880
930.895253,114.855485,1301.695494,-9877.571693
930.897828,-267.996131,1512.263883,-9781.858789
930.900403,459.421939,-784.845813,-9705.288466
930.902979,1665.404530,-2488.535504,-9513.862658
930.905554,-1971.685822,-1875.972918,-9973.284597
930.908129,2584.248408,76.570323,-9322.436850
930.910705,-172.283227,-3349.951640,-10011.569758
930.913280,-1952.543242,-593.420005,-10049.854920
930.915855,2105.683888,1741.974853,-9590.432981
930.918431,-325.423874,2507.678085,-9724.431046
930.921006,-574.277424,5398.207786,-8633.303941
930.923581,440.279358,3254.238736,-9533.005238
930.926156,1895.115499,3790.230998,-9475.577496
930.928732,-976.271621,1052.841944,-10222.138147
930.931307,708.275490,-650.847747,-9111.868461
930.933882,2316.252277,1933.400661,-8671.589102
930.936457,95.712904,-287.138712,-11370.692995
930.939033,-650.847747,1512.263883,-9590.432981
930.941608,1473.978722,497.707101,-8269.594906
930.944183,1033.699363,-229.710970,-9609.575562
930.946758,-631.705166,2679.961312,-10030.712339
930.949334,650.847747,1148.554848,-9686.145885
930.951909,1703.689691,344.566454,-9303.294269
930.954484,-689.132909,650.847747,-9628.718142
930.957059,133.998066,3426.521963,-9475.577496
930.959635,1837.687757,3732.803256,-9456.434915
930.962210,-325.423874,2526.820666,-9896.714274
930.964785,-401.994197,4689.932296,-9131.011042
930.967360,3426.521963,-1512.263883,-9762.716208
930.969936,-1818.545176,4517.649069,-8939.585234
930.972511,1761.117434,-2297.109696,-10222.138147
930.975086,1435.693560,-3637.090352,-10068.997501
930.977661,306.281293,-3656.232933,-10298.708470
930.980237,287.138712,-3292.523898,-9820.143950
930.982812,-57.427742,-38.285162,-9245.866526
930.985387,1339.980656,2373.680019,-10145.567824
930.987962,-401.994197,-535.992262,-10815.558152
930.990538,593.420005,689.132909,-8384.450390
930.993113,555.134843,325.423874,-9303.294269
930.995688,-191.425808,593.420005,-10892.128475
930.998263,784.845813,2124.826469,-9724.431046
931.000839,1014.556782,-937.986459,-9131.011042
931.003414,153.140646,631.705166,-9054.440718
931.005989,57.427742,1148.554848,-9609.575562
931.008564,823.130974,-1493.121302,-10241.280728
931.011140,1148.554848,-574.277424,-9820.143950
931.013715,-1454.836141,-363.709035,-9456.434915
931.016290,3311.666478,-2277.967115,-9379.864592
931.018864,-76.570323,-4766.502619,-10643.274925
931.021439,995.414202,1780.260014,-9513.862658
931.024014,1339.980656,-516.849682,-9992.427178
931.026589,823.130974,3081.955509,-9418.149754
931.029164,-133.998066,4173.082614,-8633.303941
931.031739,-287.138712,2029.113565,-9877.571693
931.034314,1110.269686,5647.061336,-9150.153622
931.036890,-306.281293,2584.248408,-10183.852986
931.039465,823.130974,-1435.693560,-9552.147819
931.042040,593.420005,1435.693560,-8518.448456
931.044615,-306.281293,880.558717,-10298.708470
931.047190,631.705166,516.849682,-10164.710405
931.049765,1167.697429,1607.976787,-8824.729749
931.052340,-344.566454,-497.707101,-9571.290400
931.054916,-497.707101,1799.402595,-9628.718142
931.057491,1225.125171,1359.123237,-9686.145885
931.060066,899.701298,191.425808,-9973.284597
931.062641,-1129.412267,1569.691626,-9437.292334
931.065216,1033.699363,3369.094221,-9073.583299
931.067791,1167.697429,2277.967115,-9705.288466
931.070366,-401.994197,2660.818731,-9896.714274
931.072942,-535.992262,4996.213589,-9265.009107
931.075517,2947.957443,-1454.836141,-10260.423309
931.078092,-1875.972918,4881.358104,-8671.589102
931.080667,-95.712904,363.709035,-9533.005238
931.083242,1741.974853,-4843.072942,-10528.419440
931.085817,-976.271621,-2239.681954,-10183.852986
931.088392,497.707101,-3196.810994,-9647.860723
931.090968,1780.260014,-803.988394,-9379.864592
931.093543,516.849682,3522.234867,-9667.003304
931.096118,-918.843878,-1607.976787,-10566.704602
931.098693,1607.976787,1531.406464,-8078.169098
931.101268,650.847747,1301.695494,-9456.434915
931.103842,-363.709035,-555.134843,-11102.696864
931.106417,210.568389,2756.531635,-8729.016845
931.108991,1129.412267,-1837.687757,-9571.290400
931.111566,-306.281293,401.994197,-9801.001370
931.114140,574.277424,2392.822600,-9341.579430
931.116715,765.703232,-2086.541307,-10126.425243
931.119289,574.277424,-1799.402595,-10030.712339
931.121864,-133.998066,-765.703232,-9341.579430
931.124438,2335.394858,-612.562586,-9265.009107
931.127013,-1033.699363,-4900.500685,-10777.272990
931.129587,-2507.678085,-363.709035,-9896.714274
931.132162,2182.254211,2986.242605,-9303.294269
931.134736,459.421939,1052.841944,-10183.852986
931.137311,-918.843878,6814.758765,-8193.024582
931.139885,1416.550979,1837.687757,-9686.145885
931.142460,995.414202,4383.651003,-9647.860723
931.145034,-1071.984525,2947.957443,-9820.143950
931.147609,1033.699363,-2450.250342,-9628.718142
931.150183,382.851616,2335.394858,-8556.733618
931.152758,-555.134843,1493.121302,-10470.991698
931.155332,803.988394,-459.421939,-9705.288466
931.157907,1359.123237,1301.695494,-8384.450390
931.160481,114.855485,-248.853550,-9858.429112
931.163056,248.853550,1627.119368,-10088.140082
931.165630,1282.552914,2029.113565,-9341.579430
931.168205,306.281293,746.560651,-9686.145885
931.170779,-478.564520,2258.824534,-9150.153622
931.173354,2143.969050,1014.556782,-9379.864592
931.175929,191.425808,5474.778109,-9552.147819
931.178503,0.000000,1837.687757,-10183.852986
931.181078,382.851616,5647.061336,-8365.307810
931.183652,803.988394,3273.381317,-8901.300072
931.186227,1416.550979,-4211.367776,-10643.274925
931.188801,-937.986459,727.418070,-9360.722011
931.191376,2086.541307,-2048.256146,-9667.003304
931.193950,459.421939,-4919.643266,-10624.132344
931.196525,95.712904,-1971.685822,-9418.149754
931.199099,1397.408398,957.129040,-9131.011042
931.201674,344.566454,2182.254211,-10470.991698
931.204248,-76.570323,-325.423874,-9609.575562
931.206821,1378.265818,593.420005,-8748.159426
931.209395,76.570323,861.416136,-10202.995566
931.211969,-133.998066,727.418070,-10413.563955
931.214543,995.414202,995.414202,-9150.153622
931.217117,478.564520,421.136778,-9379.864592
931.219691,-727.418070,-267.996131,-9877.571693
931.222265,918.843878,19.142581,-9647.860723
931.224839,1531.406464,-784.845813,-10088.140082
931.227412,-1454.836141,-1205.982590,-10183.852986
931.229986,1531.406464,-1914.258080,-9418.149754
931.232560,210.568389,-5015.356170,-10049.854920
931.235134,746.560651,918.843878,-9896.714274
931.237708,191.425808,1052.841944,-9820.143950
931.240282,1052.841944,4230.510357,-9284.151688
931.242856,555.134843,2507.678085,-9150.153622
931.245429,-440.279358,2488.535504,-9245.866526
931.248003,899.701298,6393.621987,-8595.018779
931.250577,708.275490,2392.822600,-10470.991698
931.253151,-459.421939,76.570323,-9705.288466
931.255725,1282.552914,842.273555,-8480.163294
931.258299,861.416136,153.140646,-10183.852986
931.260873,-918.843878,1550.549045,-9896.714274
931.263447,382.851616,1052.841944,-9016.155557
931.266020,2086.541307,-535.992262,-9399.007173
931.268594,-1225.125171,1990.828403,-9915.856854
931.271168,-535.992262,1148.554848,-9628.718142
931.273742,2699.103893,459.421939,-9360.722011
931.276316,-440.279358,1971.685822,-9667.003304
931.278890,-325.423874,1359.123237,-9686.145885
931.281464,1684.547110,5302.494882,-8786.444587
931.284038,1148.554848,1933.400661,-9992.427178
931.286611,-746.560651,3905.086483,-9207.581365
931.289185,612.562586,3483.949706,-9035.298138
931.291759,2890.529701,-3962.514226,-10547.562021
931.294333,-1493.121302,880.558717,-9762.716208
931.296907,1129.412267,-1512.263883,-9418.149754
931.299481,937.986459,-5187.639397,-10451.849117
931.302055,-440.279358,-3024.527766,-10088.140082
931.304628,210.568389,2316.252277,-9245.866526
931.307202,1225.125171,1741.974853,-10088.140082
931.309775,-957.129040,-1627.119368,-10241.280728
931.312349,-459.421939,2124.826469,-8403.592971
931.314922,1416.550979,-382.851616,-10547.562021
931.317496,1091.127106,1378.265818,-10356.136213
931.320069,-650.847747,1378.265818,-9150.153622
931.322643,1225.125171,-1205.982590,-9341.579430
931.325216,1684.547110,248.853550,-9131.011042
931.327790,-248.853550,19.142581,-10202.995566
931.330363,650.847747,-1665.404530,-10490.134278
931.332937,-76.570323,-1722.832272,-9494.720077
931.335510,803.988394,669.990328,-8748.159426
931.338084,-421.136778,-4613.361973,-10317.851051
931.340657,1205.982590,-153.140646,-10088.140082
931.343231,708.275490,2086.541307,-9743.573627
931.345804,-899.701298,3043.670347,-9839.286531
931.348378,2411.965181,4326.223261,-8135.596840
931.350951,1091.127106,2450.250342,-9245.866526
931.353525,-689.132909,4230.510357,-10107.282662
931.356098,631.705166,1971.685822,-10011.569758
931.358672,1282.552914,-1512.263883,-9360.722011
931.361245,-459.421939,1818.545176,-9016.155557
931.363819,765.703232,459.421939,-10528.419440
931.366392,1320.838075,-172.283227,-9839.286531
931.368966,-267.996131,1014.556782,-9092.725880
931.371539,631.705166,1588.834206,-9437.292334
931.374113,1416.550979,-133.998066,-10011.569758
931.376686,-229.710970,1320.838075,-9322.436850
931.379260,-1129.412267,1014.556782,-9973.284597
931.381833,1033.699363,2967.100024,-9456.434915
931.384407,995.414202,3426.521963,-8958.727814
931.386980,-535.992262,2431.107762,-9954.142016
931.389554,-57.427742,3407.379382,-9724.431046
931.392127,2507.678085,325.423874,-9590.432981
931.394701,-1703.689691,5321.637462,-8920.442653
931.397274,1990.828403,-4153.940034,-10547.562021
931.399848,1071.984525,-2373.680019,-9475.577496
931.402421,-1378.265818,-612.562586,-9533.005238
931.404995,114.855485,-3388.236802,-10202.995566
931.407568,2182.254211,-325.423874,-8863.014910
931.410141,114.855485,2182.254211,-9973.284597
931.412714,-918.843878,-516.849682,-10643.274925
931.415286,1167.697429,1071.984525,-7925.028451
931.417859,344.566454,650.847747,-9341.579430
931.420431,-19.142581,631.705166,-11045.269122
931.423004,1129.412267,2182.254211,-9475.577496
931.425577,-38.285162,-1129.412267,-9226.723946
931.428149,-1071.984525,-440.279358,-9494.720077
931.430722,-172.283227,-172.283227,-10126.425243
931.433294,1895.115499,-401.994197,-9915.856854
931.435867,-976.271621,-937.986459,-10164.710405
931.438440,248.853550,-2718.246474,-9552.147819
931.441012,1071.984525,-4402.793584,-9743.573627
931.443585,593.420005,1033.699363,-9609.575562
931.446158,-1148.554848,-1186.840010,-10662.417506
931.448730,1512.263883,4938.785846,-8977.870395
931.451303,842.273555,-421.136778,-9858.429112
931.453875,-344.566454,4804.787781,-9437.292334
931.456448,421.136778,6144.768437,-8901.300072
931.459021,1569.691626,2163.111630,-10202.995566
931.461593,-650.847747,-631.705166,-9934.999435
931.464166,172.283227,899.701298,-8920.442653
931.466739,1205.982590,1205.982590,-9667.003304
931.469311,-1091.127106,-555.134843,-10796.415571
931.471884,765.703232,2335.394858,-8729.016845
931.474456,1493.121302,555.134843,-9418.149754
931.477029,-1646.261949,-114.855485,-10451.849117
931.479602,784.845813,2545.963246,-9073.583299
931.482174,2277.967115,229.710970,-9705.288466
931.484747,669.990328,2603.390989,-9533.005238
931.487319,-153.140646,2603.390989,-9054.440718
931.489892,516.849682,3732.803256,-9360.722011
931.492465,631.705166,1933.400661,-10011.569758
931.495037,57.427742,2928.814862,-9265.009107
931.497610,-95.712904,5264.209720,-8729.016845
931.500183,2488.535504,-5800.201982,-10949.556218
931.502755,-784.845813,95.712904,-9456.434915
931.505328,-76.570323,-861.416136,-9341.579430
931.507900,1607.976787,-4996.213589,-10260.423309
931.510473,497.707101,-708.275490,-9131.011042
931.513045,-172.283227,3369.094221,-9475.577496
931.515617,1952.543242,-1091.127106,-10719.845248
931.518189,-497.707101,1225.125171,-8461.020714
931.520761,-516.849682,612.562586,-9035.298138
931.523333,2431.107762,287.138712,-10662.417506
931.525905,-287.138712,2086.541307,-10088.140082
931.528477,-746.560651,-612.562586,-9169.296203
931.531049,1454.836141,248.853550,-8863.014910
931.533621,1435.693560,-1263.410333,-10049.854920
931.536193,478.564520,-172.283227,-10241.280728
931.538765,-1416.550979,-133.998066,-10030.712339
931.541337,2297.109696,-3388.236802,-9475.577496
931.543909,-210.568389,-4058.227130,-10011.569758
931.546481,1493.121302,1684.547110,-9226.723946
931.549054,229.710970,-1990.828403,-10604.989763
931.551626,-267.996131,5647.061336,-9207.581365
931.554198,1167.697429,-440.279358,-9954.142016
931.556770,1990.828403,4479.363907,-8575.876198
931.559342,1225.125171,5934.200048,-8786.444587
931.561914,-267.996131,2373.680019,-10317.851051
931.564486,899.701298,-574.277424,-9743.573627
931.567058,957.129040,650.847747,-8882.157491
931.569630,-401.994197,1627.119368,-10068.997501
931.572202,287.138712,-363.709035,-10528.419440
931.574774,1512.263883,1397.408398,-8767.302006
931.577346,-287.138712,1225.125171,-9456.434915
931.579918,19.142581,669.990328,-10336.993632
931.582490,1263.410333,1454.836141,-9341.579430
931.585062,459.421939,172.283227,-9647.860723
931.587634,-229.710970,2335.394858,-9724.431046
931.590206,1588.834206,4326.223261,-8786.444587
931.592778,1033.699363,2316.252277,-9552.147819
931.595350,-1110.269686,3292.523898,-9915.856854
931.597922,2852.244539,363.709035,-9571.290400
931.600494,-535.992262,5474.778109,-8537.591037
931.603066,19.142581,-4115.654872,-10700.702667
931.605638,861.416136,-2297.109696,-9762.716208
931.608210,784.845813,-861.416136,-9341.579430
931.610782,-1473.978722,-4938.785846,-10700.702667
931.613354,-1033.699363,842.273555,-9016.155557
931.615905,1378.265818,2565.105827,-9590.432981
931.618456,765.703232,-1627.119368,-10719.845248
931.621006,-823.130974,2507.678085,-8116.454259
931.623557,1473.978722,-287.138712,-9475.577496
931.626108,1397.408398,401.994197,-10738.987829
931.628658,-727.418070,1933.400661,-9762.716208
931.631209,516.849682,-401.994197,-9169.296203
931.633760,1493.121302,-306.281293,-9399.007173
931.636310,-574.277424,-19.142581,-9820.143950
931.638861,478.564520,-880.558717,-10317.851051
931.641412,363.709035,-2392.822600,-10049.854920
931.643963,957.129040,440.279358,-8882.157491
931.646513,-631.705166,-4153.940034,-9686.145885
931.649064,535.992262,-516.849682,-10068.997501
931.651615,765.703232,1990.828403,-9858.429112
931.654165,-1416.550979,3483.949706,-9762.716208
931.656716,2029.113565,4479.363907,-8480.163294
931.659267,650.847747,1722.832272,-9513.862658
931.661817,-727.418070,5819.344563,-9877.571693
931.664368,325.423874,1014.556782,-10183.852986
931.666919,1569.691626,-1416.550979,-9379.864592
931.669469,-153.140646,2928.814862,-8939.585234
931.672020,-133.998066,-248.853550,-10777.272990
931.674571,708.275490,-133.998066,-9418.149754
931.677122,191.425808,1761.117434,-8824.729749
931.679672,842.273555,631.705166,-9954.142016
931.682223,918.843878,995.414202,-9992.427178
931.684774,-306.281293,2316.252277,-9131.011042
931.687324,38.285162,1607.976787,-9379.864592
931.689875,2009.970984,689.132909,-9762.716208
931.692426,210.568389,5398.207786,-8997.012976
931.694976,-1033.699363,2182.254211,-10068.997501
931.697527,1339.980656,3043.670347,-9245.866526
931.700078,765.703232,4211.367776,-8441.878133
931.702628,842.273555,-4326.223261,-10834.700733
931.705179,-76.570323,555.134843,-9762.716208
931.707730,1320.838075,-1837.687757,-9322.436850
931.710281,-229.710970,-5398.207786,-10758.130410
931.712831,574.277424,-2373.680019,-9839.286531
931.715382,1378.265818,2967.100024,-8901.300072
931.717935,555.134843,-344.566454,-10872.985894
931.720488,-344.566454,803.988394,-8882.157491
931.723041,1703.689691,1359.123237,-8403.592971
931.725594,-229.710970,-823.130974,-10853.843314
931.728147,-248.853550,1167.697429,-10107.282662
931.730700,1454.836141,1703.689691,-8537.591037
931.733253,918.843878,-957.129040,-9686.145885
931.735806,-918.843878,-823.130974,-9724.431046
931.738359,1186.840010,210.568389,-9533.005238
931.740912,210.568389,-2354.537438,-10662.417506
931.743465,363.709035,-191.425808,-9533.005238
931.746018,-248.853550,-4345.365842,-9628.718142
931.748571,2565.105827,-861.416136,-9743.573627
931.751124,172.283227,803.988394,-10145.567824
931.753677,-976.271621,5359.922624,-9762.716208
931.756230,1129.412267,5168.496816,-8748.159426
931.758783,1531.406464,1607.976787,-9360.722011
931.761336,-937.986459,5742.774240,-9092.725880
931.763890,1033.699363,306.281293,-10432.706536
931.766443,1225.125171,-937.986459,-9686.145885
931.768996,-708.275490,2182.254211,-8920.442653
931.771549,2411.965181,38.285162,-10451.849117
931.774102,708.275490,957.129040,-9705.288466
931.776655,-899.701298,1052.841944,-8748.159426
931.779208,248.853550,478.564520,-9820.143950
931.781761,1550.549045,1722.832272,-9954.142016
931.784314,133.998066,1780.260014,-9647.860723
931.786867,-803.988394,3005.385186,-9035.298138
931.789420,2354.537438,459.421939,-9341.579430
931.791973,133.998066,4843.072942,-9111.868461
931.794526,-1129.412267,3120.240670,-9973.284597
931.797079,1627.119368,2431.107762,-9571.290400
931.799632,593.420005,4326.223261,-8575.876198
931.802185,210.568389,-4192.225195,-10394.421374
931.804738,727.418070,-2258.824534,-10011.569758
931.807291,1167.697429,-555.134843,-9226.723946
931.809844,-1033.699363,-4862.215523,-10490.134278
931.812397,574.277424,-1914.258080,-9513.862658
931.814950,1722.832272,2718.246474,-9226.723946
931.817503,-669.990328,38.285162,-10758.130410
931.820059,-133.998066,-287.138712,-8882.157491
931.822614,2086.541307,1990.828403,-8461.020714
931.825169,-421.136778,153.140646,-11121.839445
931.827724,-210.568389,344.566454,-10011.569758
931.830280,1550.549045,1205.982590,-8135.596840
931.832835,1435.693560,-2182.254211,-10336.993632
931.835390,-1129.412267,401.994197,-9858.429112
931.837946,842.273555,191.425808,-9456.434915
931.840501,325.423874,-4345.365842,-10624.132344
931.843056,612.562586,-229.710970,-9265.009107
931.845611,650.847747,-1531.406464,-8863.014910
931.848167,-344.566454,-1531.406464,-10317.851051
931.850722,114.855485,1799.402595,-10145.567824
931.853277,-114.855485,3828.516160,-9437.292334
931.855833,1722.832272,4670.789715,-8805.587168
931.858388,957.129040,3732.803256,-9169.296203
931.860943,-937.986459,4000.799387,-9552.147819
931.863498,1512.263883,-631.705166,-10126.425243
931.866054,1148.554848,57.427742,-9341.579430
931.868609,-880.558717,3024.527766,-8939.585234
931.871164,1780.260014,-1397.408398,-10585.847182
931.873720,1339.980656,2392.822600,-8786.444587
931.876275,-1052.841944,574.277424,-9399.007173
931.878830,650.847747,612.562586,-9896.714274
931.881386,1225.125171,1607.976787,-9111.868461
931.883941,19.142581,803.988394,-9820.143950
931.886496,-612.562586,1799.402595,-9743.573627
931.889051,1722.832272,5111.069074,-8518.448456
931.891607,765.703232,2239.681954,-9839.286531
931.894162,-1627.119368,4670.789715,-9839.286531
931.896717,3483.949706,-1282.552914,-9801.001370
931.899273,-1684.547110,4651.647134,-8748.159426
931.901828,401.994197,-1646.261949,-9954.142016
931.904383,1339.980656,-4709.074877,-9858.429112
931.906938,459.421939,-478.564520,-9513.862658
931.909494,669.990328,-3617.947771,-10375.278794
931.912049,-57.427742,1033.699363,-9379.864592
931.914604,1263.410333,1282.552914,-10088.140082
931.917160,-382.851616,-363.709035,-10126.425243
931.919715,344.566454,1607.976787,-8173.882002
931.922252,1378.265818,-19.142581,-9609.575562
931.924789,-153.140646,1052.841944,-10911.271056
931.927326,382.851616,1435.693560,-9667.003304
931.929863,1493.121302,-133.998066,-8901.300072
931.932400,-248.853550,-1933.400661,-9724.431046
931.934937,-38.285162,-516.849682,-9858.429112
931.937474,382.851616,516.849682,-10088.140082
931.940011,1837.687757,-2239.681954,-10107.282662
931.942548,-765.703232,-4804.787781,-9820.143950
931.945085,2833.101958,1339.980656,-8786.444587
931.947622,918.843878,-1148.554848,-10566.704602
931.950159,-1627.119368,5704.489078,-9915.856854
931.952696,1378.265818,2143.969050,-9322.436850
931.955233,1818.545176,2526.820666,-9341.579430
931.957770,-1359.123237,6029.912952,-8786.444587
931.960307,210.568389,2316.252277,-10030.712339
931.962844,1186.840010,-612.562586,-9494.720077
931.965381,306.281293,1818.545176,-9322.436850
931.967918,114.855485,1052.841944,-10260.423309
931.970455,650.847747,-535.992262,-9839.286531
931.972992,478.564520,382.851616,-8805.587168
931.975529,-19.142581,2048.256146,-9360.722011
931.978066,1282.552914,593.420005,-10566.704602
931.980603,401.994197,1952.543242,-9399.007173
931.983140,-880.558717,3598.805190,-8767.302006
931.985677,1359.123237,2220.539373,-9475.577496
931.988213,1627.119368,3254.238736,-9437.292334
931.990750,-1646.261949,4249.652938,-10049.854920
931.993287,1665.404530,-823.130974,-10317.851051
931.995824,1359.123237,5800.201982,-7963.313613
931.998361,1071.984525,-3215.953574,-10183.852986
932.000898,-478.564520,-3005.385186,-10356.136213
932.003435,1186.840010,-574.277424,-9341.579430
932.005972,-248.853550,-4249.652938,-10260.423309
932.008509,-76.570323,-1627.119368,-9513.862658
932.011046,1741.974853,3560.520029,-9245.866526
932.013583,459.421939,-1301.695494,-10241.280728
932.016120,-191.425808,918.843878,-8690.731683
932.018657,1952.543242,2431.107762,-9207.581365
932.021194,-153.140646,-1071.984525,-11045.269122
932.023734,-765.703232,669.990328,-9456.434915
932.026276,1473.978722,1818.545176,-8422.735552
932.028817,880.558717,-2890.529701,-10317.851051
932.031359,-19.142581,-19.142581,-9877.571693
932.033901,-421.136778,1148.554848,-9379.864592
932.036442,1761.117434,-4996.213589,-10681.560086
932.038984,287.138712,-4766.502619,-10030.712339
932.041525,-57.427742,2239.681954,-8977.870395
932.044067,1933.400661,-2182.254211,-10719.845248
932.046609,133.998066,5340.780043,-9360.722011
932.049150,38.285162,2507.678085,-9111.868461
932.051692,1933.400661,2890.529701,-9647.860723
932.054233,842.273555,5781.059402,-8843.872330
932.056775,-957.129040,2699.103893,-9609.575562
932.059317,995.414202,-1225.125171,-9762.716208
932.061858,535.992262,1665.404530,-9226.723946
932.064400,-344.566454,172.283227,-10643.274925
932.066941,401.994197,306.281293,-9590.432981
932.069483,1493.121302,1167.697429,-8614.161360
932.072025,-229.710970,842.273555,-9934.999435
932.074566,133.998066,937.986459,-10183.852986
932.077108,1435.693560,1359.123237,-9054.440718
932.079649,133.998066,2833.101958,-9418.149754
932.082191,191.425808,2086.541307,-9475.577496
932.084732,1110.269686,3751.945837,-8786.444587
932.087274,-555.134843,3522.234867,-9686.145885
932.089816,1091.127106,-1646.261949,-10509.276859
932.092357,95.712904,5015.356170,-8441.878133
932.094899,1780.260014,-1741.974853,-9934.999435
932.097440,-746.560651,-4689.932296,-10547.562021
932.099982,1186.840010,-593.420005,-9245.866526
932.102524,1473.978722,-4613.361973,-10317.851051
932.105065,-612.562586,-880.558717,-9781.858789
932.107607,669.990328,4077.369710,-9169.296203
932.110148,918.843878,-2143.969050,-10470.991698
932.112690,-421.136778,1129.412267,-8690.731683
932.115232,-535.992262,995.414202,-9801.001370
932.117773,1205.982590,-516.849682,-10987.841379
932.120315,746.560651,1646.261949,-9226.723946
932.122856,-287.138712,363.709035,-9150.153622
932.125402,1091.127106,-2277.967115,-9877.571693
932.127947,1339.980656,-746.560651,-9647.860723
932.130493,-1799.402595,-229.710970,-10183.852986
932.133038,2335.394858,-957.129040,-10049.854920
932.135584,-133.998066,-4651.647134,-9724.431046
932.138129,-899.701298,899.701298,-9054.440718
932.140674,823.130974,2009.970984,-9896.714274
932.143220,976.271621,2986.242605,-9590.432981
932.145765,0.000000,6910.471669,-8556.733618
932.148311,440.279358,1110.269686,-9877.571693
932.150856,842.273555,5417.350366,-8575.876198
932.153402,57.427742,-727.418070,-10030.712339
932.155947,382.851616,95.712904,-9475.577496
932.158493,957.129040,2947.957443,-9284.151688
932.161038,746.560651,-1607.976787,-10930.413637
932.163584,-325.423874,1569.691626,-8748.159426
932.166129,631.705166,1263.410333,-8748.159426
932.168674,1244.267752,-650.847747,-10375.278794
932.171220,287.138712,2660.818731,-9934.999435
932.173765,114.855485,3617.947771,-9188.438784
932.176311,1416.550979,-1301.695494,-9781.858789
932.178856,57.427742,4689.932296,-8863.014910
932.181402,-976.271621,3120.240670,-9762.716208
932.183947,1588.834206,2469.392923,-9934.999435
932.186493,95.712904,5379.065205,-8537.591037
932.189038,727.418070,-4421.936165,-10222.138147
932.191583,937.986459,-267.996131,-9456.434915
932.194129,229.710970,-2086.541307,-9724.431046
932.196674,-229.710970,-4498.506488,-10624.132344
932.199220,1914.258080,-2009.970984,-9839.286531
932.201765,689.132909,1780.260014,-9265.009107
932.204311,-727.418070,-746.560651,-10662.417506
932.206856,172.283227,497.707101,-8556.733618
932.209402,2124.826469,1186.840010,-8786.444587
932.211947,38.285162,-287.138712,-11408.978157
932.214493,-650.847747,1339.980656,-9954.142016
932.217038,1703.689691,880.558717,-8078.169098
932.219583,708.275490,-2239.681954,-9858.429112
932.222129,593.420005,-842.273555,-10183.852986
932.224674,133.998066,1646.261949,-9475.577496
932.227223,401.994197,-3388.236802,-10719.845248
932.229772,-880.558717,-5130.211654,-9877.571693
932.232321,1301.695494,1205.982590,-8863.014910
932.234869,2373.680019,-1339.980656,-10528.419440
932.237418,-1990.828403,5455.635528,-9858.429112
932.239967,1129.412267,3694.518094,-8882.157491
932.242515,1761.117434,1933.400661,-9533.005238
932.245064,-1110.269686,5704.489078,-9111.868461
932.247613,-133.998066,1799.402595,-9858.429112
932.250162,1301.695494,-1895.115499,-9781.858789
932.252710,-459.421939,2947.957443,-9131.011042
932.255259,-363.709035,-784.845813,-10834.700733
932.257808,1531.406464,593.420005,-8920.442653
932.260357,267.996131,1493.121302,-8729.016845
932.262905,-114.855485,555.134843,-10336.993632
932.265454,1416.550979,2086.541307,-9954.142016
932.268003,-593.420005,2852.244539,-9035.298138
932.270551,-133.998066,-363.709035,-9820.143950
932.273100,1627.119368,5130.211654,-8614.161360
932.275649,1971.685822,2833.101958,-9513.862658
932.278198,-3598.805190,5168.496816,-9858.429112
932.280746,3158.525832,-19.142581,-8997.012976
932.283295,3292.523898,-3771.088418,-9992.427178
932.285844,-1014.556782,689.132909,-9801.001370
932.288393,-1033.699363,-2967.100024,-9934.999435
932.290941,1990.828403,-4881.358104,-10394.421374
932.293490,803.988394,-2086.541307,-10049.854920
932.296039,-516.849682,1320.838075,-9609.575562
932.298588,842.273555,899.701298,-9954.142016
932.301136,0.000000,-1071.984525,-9513.862658
932.303685,784.845813,2718.246474,-8384.450390
932.306234,1110.269686,-880.558717,-10566.704602
932.308782,267.996131,-133.998066,-9973.284597
932.311331,421.136778,1741.974853,-8729.016845
932.313880,516.849682,-1875.972918,-9743.573627
932.316429,650.847747,-1493.121302,-9877.571693
932.318977,-1531.406464,1493.121302,-9743.573627
932.321526,1454.836141,-3196.810994,-10547.562021
932.324075,1473.978722,-4938.785846,-10030.712339
932.326624,746.560651,880.558717,-9111.868461
932.329175,-803.988394,-1148.554848,-10298.708470
932.331727,937.986459,4709.074877,-9552.147819
932.334279,1454.836141,4096.512291,-9092.725880
932.336831,-727.418070,2392.822600,-9858.429112
932.339382,325.423874,5934.200048,-8652.446522
932.341934,765.703232,76.570323,-9992.427178
932.344486,-191.425808,57.427742,-9724.431046
932.347038,631.705166,1741.974853,-9475.577496
932.349589,995.414202,-516.849682,-10624.132344
932.352141,-421.136778,1397.408398,-9533.005238
932.354693,1512.263883,708.275490,-8671.589102
932.357245,842.273555,976.271621,-9724.431046
932.359796,-114.855485,1665.404530,-10279.565890
932.362348,-459.421939,3196.810994,-9226.723946
932.364900,2029.113565,-344.566454,-9533.005238
932.367452,-114.855485,4517.649069,-9054.440718
932.370004,-497.707101,3120.240670,-9360.722011
932.372555,1244.267752,4134.797453,-9341.579430
932.375107,172.283227,3177.668413,-9418.149754
932.377659,1033.699363,-2813.959378,-10241.280728
932.380211,746.560651,497.707101,-9188.438784
932.382762,0.000000,-3560.520029,-9877.571693
932.385314,-210.568389,-5015.356170,-10643.274925
932.387866,1875.972918,-1339.980656,-9724.431046
932.390418,803.988394,1665.404530,-9628.718142
932.392969,-669.990328,478.564520,-10451.849117
932.395521,708.275490,-57.427742,-8767.302006
932.398073,1244.267752,1014.556782,-8824.729749
932.400625,-287.138712,727.418070,-10892.128475
932.403176,325.423874,-248.853550,-10566.704602
932.405728,1818.545176,1263.410333,-8441.878133
932.408280,-38.285162,-1607.976787,-9628.718142
932.410835,-478.564520,-1627.119368,-9954.142016
932.413389,267.996131,-842.273555,-9705.288466
932.415944,1914.258080,-765.703232,-10068.997501
932.418498,-880.558717,-2450.250342,-9399.007173
932.421053,-401.994197,-784.845813,-9150.153622
932.423607,1703.689691,593.420005,-9954.142016
932.426162,-746.560651,3637.090352,-10068.997501
932.428717,708.275490,6814.758765,-8537.591037
932.431271,1493.121302,1837.687757,-9896.714274
932.433826,-861.416136,4651.647134,-9284.151688
932.436380,-76.570323,-267.996131,-9418.149754
932.438935,1780.260014,0.000000,-9131.011042
932.441490,-248.853550,2392.822600,-9973.284597
932.444044,76.570323,-191.425808,-10413.563955
932.446599,1895.115499,784.845813,-8461.020714
932.449153,76.570323,1531.406464,-8882.157491
932.451708,-210.568389,574.277424,-10202.995566
932.454262,1129.412267,1550.549045,-9781.858789
932.456817,555.134843,2967.100024,-9571.290400
932.459372,-153.140646,2239.681954,-9379.864592
932.461926,1301.695494,2660.818731,-9245.866526
932.464481,-1148.554848,4307.080680,-9475.577496
932.467035,823.130974,-1167.697429,-11026.126541
932.469590,38.285162,4421.936165,-9035.298138
932.472145,1550.549045,-765.703232,-9322.436850
932.474699,-708.275490,-5225.924558,-10394.421374
932.477254,191.425808,-861.416136,-9245.866526
932.479808,2201.396792,-4460.221326,-10145.567824
932.482363,-248.853550,-95.712904,-10126.425243
932.484917,191.425808,2488.535504,-9705.288466
932.487472,1225.125171,-689.132909,-9437.292334
932.490027,1014.556782,823.130974,-8537.591037
932.492581,-516.849682,1052.841944,-9992.427178
932.495136,823.130974,-229.710970,-11006.983960
932.497690,1320.838075,1856.830338,-9322.436850
932.500245,-708.275490,-1091.127106,-9207.581365
932.502799,1244.267752,-1473.978722,-9379.864592
932.505354,516.849682,708.275490,-9399.007173
932.507909,-267.996131,-2699.103893,-10758.130410
932.510463,133.998066,-3694.518094,-10566.704602
932.513001,2450.250342,555.134843,-8556.733618
932.515538,306.281293,-880.558717,-9647.860723
932.518076,-1205.982590,4594.219392,-9743.573627
932.520614,2029.113565,2641.676150,-9322.436850
932.523151,689.132909,4134.797453,-9686.145885
932.525689,-497.707101,5379.065205,-9073.583299
932.528227,861.416136,1990.828403,-9054.440718
932.530764,421.136778,-708.275490,-9379.864592
932.533302,172.283227,784.845813,-9762.716208
932.535840,1071.984525,1646.261949,-10413.563955
932.538377,401.994197,-114.855485,-9571.290400
932.540915,114.855485,1378.265818,-8307.880067
932.543453,555.134843,1301.695494,-9552.147819
932.545990,803.988394,-133.998066,-10681.560086
932.548528,459.421939,4115.654872,-9456.434915
932.551065,325.423874,1914.258080,-9418.149754
932.553603,1148.554848,1780.260014,-9035.298138
932.556141,-631.705166,3905.086483,-8958.727814
932.558678,555.134843,2029.113565,-10126.425243
932.561216,784.845813,4651.647134,-9341.579430
932.563754,401.994197,-3024.527766,-10126.425243
932.566291,-727.418070,-4173.082614,-10088.140082
932.568829,631.705166,-1741.974853,-9475.577496
932.571367,1493.121302,-4460.221326,-10030.712339
932.573904,-401.994197,-401.994197,-10049.854920
932.576442,421.136778,2163.111630,-9915.856854
932.578980,784.845813,-172.283227,-9092.725880
932.581517,-133.998066,325.423874,-8575.876198
932.584055,421.136778,1933.400661,-9533.005238
932.586592,1052.841944,-306.281293,-11006.983960
932.589130,363.709035,1320.838075,-9877.571693
932.591668,-133.998066,-191.425808,-8767.302006
932.594205,1282.552914,-2431.107762,-9284.151688
932.596743,-574.277424,555.134843,-9877.571693
932.599281,899.701298,-1780.260014,-10470.991698
932.601818,459.421939,-5264.209720,-10681.560086
932.604356,1435.693560,287.138712,-8882.157491
932.606894,440.279358,-612.562586,-9475.577496
932.609431,-574.277424,4039.084549,-9839.286531
932.611969,1646.261949,3139.383251,-9494.720077
932.614511,19.142581,4364.508422,-9762.716208
932.617054,-95.712904,5474.778109,-9016.155557
932.619597,995.414202,440.279358,-9399.007173
932.622139,-153.140646,-76.570323,-9169.296203
932.624682,229.710970,1014.556782,-9915.856854
932.627225,1646.261949,650.847747,-10681.560086
932.629767,248.853550,823.130974,-9303.294269
932.632310,-191.425808,823.130974,-8690.731683
932.634852,1454.836141,1320.838075,-9169.296203
932.637395,516.849682,612.562586,-10547.562021
932.639938,-631.705166,2833.101958,-10088.140082
932.642480,1914.258080,4058.227130,-8671.589102
932.645023,880.558717,1665.404530,-9111.868461
932.647565,-1454.836141,4268.795518,-9303.294269
932.650108,2833.101958,-76.570323,-10432.706536
932.652651,-191.425808,5838.487144,-9169.296203
932.655193,-172.283227,1033.699363,-9379.864592
932.657736,229.710970,-5187.639397,-9839.286531
932.660278,1014.556782,-2411.965181,-9226.723946
932.662821,1052.841944,-3924.229064,-10222.138147
932.665364,-861.416136,1588.834206,-9801.001370
932.667906,1129.412267,1837.687757,-10088.140082
932.670449,555.134843,-708.275490,-9552.147819
932.672991,-133.998066,1818.545176,-7829.315547
932.675534,1320.838075,-421.136778,-10145.567824
932.678077,363.709035,516.849682,-10585.847182
932.680619,-114.855485,918.843878,-9533.005238
932.683162,669.990328,-382.851616,-9092.725880
932.685705,2297.109696,-3139.383251,-9131.011042
932.688247,-2507.678085,-382.851616,-10049.854920
932.690790,1512.263883,210.568389,-10490.134278
932.693332,1627.119368,-4211.367776,-9973.284597
932.695875,-1397.408398,-344.566454,-9226.723946
932.698418,976.271621,-57.427742,-9705.288466
932.700960,1339.980656,3771.088418,-9360.722011
932.703503,-669.990328,5264.209720,-9284.151688
932.706045,363.709035,2813.959378,-10375.278794
932.708588,861.416136,4421.936165,-8977.870395
932.711131,708.275490,-880.558717,-9379.864592
932.713673,229.710970,229.710970,-9188.438784
932.716220,650.847747,3139.383251,-9839.286531
932.718766,497.707101,-1473.978722,-11294.122672
932.721313,-191.425808,1933.400661,-8556.733618
932.723859,1110.269686,1646.261949,-8480.163294
932.726406,1244.267752,-861.416136,-10432.706536
932.728952,-1301.695494,3464.807125,-9820.143950
932.731499,267.996131,612.562586,-10145.567824
932.734046,937.986459,3177.668413,-9207.581365
932.736592,937.986459,3445.664544,-8556.733618
932.739139,-899.701298,4479.363907,-9111.868461
932.741685,2067.398726,1665.404530,-10183.852986
932.744232,2277.967115,-842.273555,-10202.995566
932.746778,-1550.549045,1952.543242,-9073.583299
932.749325,1263.410333,-5283.352301,-9877.571693
932.751871,976.271621,-3369.094221,-9647.860723
932.754418,-229.710970,-1837.687757,-9973.284597
932.756964,574.277424,1627.119368,-10451.849117
932.759511,957.129040,344.566454,-10088.140082
932.762057,-401.994197,-421.136778,-8805.587168
932.764604,1014.556782,669.990328,-8709.874264
932.767151,976.271621,1186.840010,-10394.421374
932.769697,-401.994197,-172.283227,-11006.983960
932.772244,689.132909,153.140646,-9016.155557
932.774790,1301.695494,-1225.125171,-8939.585234
932.777337,-937.986459,-1646.261949,-9877.571693
932.779883,-95.712904,-2201.396792,-10164.710405
932.782430,612.562586,-4632.504554,-10872.985894
932.784976,1703.689691,689.132909,-9418.149754
932.787523,-1627.119368,0.000000,-9245.866526
932.790069,861.416136,3254.238736,-9207.581365
932.792616,2086.541307,-38.285162,-10202.995566
932.795163,38.285162,6451.049730,-9322.436850
932.797709,325.423874,5953.342629,-9150.153622
932.800256,842.273555,574.277424,-9877.571693
932.802802,-535.992262,382.851616,-8461.020714
932.805349,1263.410333,746.560651,-9379.864592
932.807895,1473.978722,191.425808,-10968.698798
932.810442,-823.130974,2239.681954,-9456.434915
932.812988,38.285162,555.134843,-8518.448456
932.815535,1895.115499,-38.285162,-9284.151688
932.818085,-363.709035,2182.254211,-10145.567824
932.820635,-689.132909,1799.402595,-10260.423309
932.823185,1914.258080,4173.082614,-9054.440718
932.825735,1263.410333,1914.258080,-9150.153622
932.828286,-2220.539373,4709.074877,-8997.012976
932.830836,3043.670347,-727.418070,-10260.423309
932.833386,1588.834206,784.845813,-9992.427178
932.835936,-937.986459,1895.115499,-9513.862658
932.838486,382.851616,-5072.783912,-9858.429112
932.841036,765.703232,-2316.252277,-9111.868461
932.843586,765.703232,-3771.088418,-10145.567824
932.846136,-229.710970,1627.119368,-9896.714274
932.848687,803.988394,2163.111630,-10336.993632
932.851237,-76.570323,-1569.691626,-9896.714274
932.853787,574.277424,2258.824534,-7523.034254
932.856337,1416.550979,306.281293,-10049.854920
932.858887,899.701298,-440.279358,-11045.269122
932.861437,-574.277424,1588.834206,-9092.725880
932.863987,1186.840010,-1971.685822,-9513.862658
932.866538,784.845813,-2009.970984,-9341.579430
932.869088,-765.703232,-1493.121302,-9743.573627
932.871638,555.134843,-2354.537438,-10911.271056
932.874188,3139.383251,-535.992262,-9533.005238
932.876738,-1627.119368,-574.277424,-9169.296203
932.879288,210.568389,2220.539373,-9341.579430
932.881838,1895.115499,459.421939,-9934.999435
932.884389,325.423874,6910.471669,-8997.012976
932.886939,-344.566454,5034.498750,-9877.571693
932.889489,1014.556782,2105.683888,-9379.864592
932.892039,-210.568389,38.285162,-8537.591037
932.894589,689.132909,-440.279358,-9475.577496
932.897139,1320.838075,2163.111630,-10528.419440
932.899689,-765.703232,784.845813,-10624.132344
932.902239,191.425808,287.138712,-8365.307810
932.904790,1837.687757,1339.980656,-8480.163294
932.907340,-401.994197,-382.851616,-10853.843314
932.909890,-976.271621,1837.687757,-10260.423309
932.912440,210.568389,5206.781978,-8997.012976
932.914990,2411.965181,287.138712,-9686.145885
932.917540,-3062.812928,5455.635528,-8805.587168
932.920094,1799.402595,-172.283227,-10164.710405
932.922647,612.562586,2067.398726,-9973.284597
932.925200,382.851616,1282.552914,-9360.722011
932.927754,210.568389,-4555.934230,-9915.856854
932.930307,497.707101,-2545.963246,-9418.149754
932.932861,708.275490,-4287.938099,-9820.143950
932.935414,-842.273555,1799.402595,-9437.292334
932.937967,957.129040,1627.119368,-10834.700733
932.940521,746.560651,-421.136778,-9092.725880
932.943074,-612.562586,650.847747,-7982.456194
932.945627,1205.982590,880.558717,-10126.425243
932.948181,1129.412267,153.140646,-11121.839445
932.950734,-1091.127106,1320.838075,-9686.145885
932.953288,650.847747,-1493.121302,-9188.438784
932.955841,1646.261949,-1990.828403,-8958.727814
932.958394,-459.421939,-2565.105827,-10068.997501
932.960948,-1110.269686,-5053.641331,-11619.546546
932.963501,2775.674216,1110.269686,-8824.729749
932.966054,-1033.699363,-535.992262,-9437.292334
932.968608,-784.845813,2526.820666,-9571.290400
932.971161,1933.400661,650.847747,-9705.288466
932.973715,535.992262,6317.051664,-9360.722011
932.976268,172.283227,5723.631659,-9686.145885
932.978821,459.421939,2201.396792,-9513.862658
932.981375,-210.568389,-497.707101,-8729.016845
932.983928,478.564520,1531.406464,-9475.577496
932.986481,1033.699363,1186.840010,-10949.556218
932.989035,497.707101,-612.562586,-10317.851051
932.991588,-440.279358,2182.254211,-7982.456194
932.994142,1148.554848,133.998066,-9284.151688
932.996695,803.988394,1339.980656,-10126.425243
932.999248,-153.140646,2163.111630,-10011.569758
933.001802,-823.130974,3464.807125,-9839.286531
933.004355,1359.123237,2392.822600,-8729.016845
933.006908,1244.267752,4881.358104,-8212.167163
933.009462,-1282.552914,2718.246474,-10088.140082
933.012015,1952.543242,-2565.105827,-10987.841379
933.014569,555.134843,2679.961312,-8805.587168
933.017122,-593.420005,-4536.791650,-10126.425243
933.019675,880.558717,-4804.787781,-9915.856854
933.022233,1148.554848,-1473.978722,-9207.581365
933.024789,-976.271621,861.416136,-10566.704602
933.027346,19.142581,1818.545176,-10317.851051
933.029902,803.988394,-172.283227,-8269.594906
933.032458,555.134843,-631.705166,-8709.874264
933.035014,76.570323,1263.410333,-10298.708470
933.037570,1320.838075,0.000000,-10700.702667
933.040127,-306.281293,957.129040,-9418.149754
933.042683,-229.710970,-2048.256146,-9111.868461
933.045239,440.279358,-1722.832272,-8863.014910
933.047795,803.988394,516.849682,-9801.001370
933.050352,-363.709035,-4441.078746,-11274.980091
933.052908,1320.838075,-899.701298,-9877.571693
933.055464,2239.681954,1263.410333,-8824.729749
933.058020,-555.134843,2450.250342,-9494.720077
933.060577,-57.427742,5934.200048,-8958.727814
933.063133,2086.541307,3235.096155,-9992.427178
933.065689,-574.277424,5149.354235,-9820.143950
