#time,accel_x,accel_y,accel_z
617.819507,612.562586,937.986459,-10049.854920
617.821951,191.425808,1301.695494,-9896.714274
617.824394,708.275490,287.138712,-9686.145885
617.826838,478.564520,1244.267752,-10049.854920
617.829281,306.281293,1033.699363,-9896.714274
617.831725,497.707101,344.566454,-9934.999435
617.834168,823.130974,248.853550,-10202.995566
617.836612,267.996131,1895.115499,-9801.001370
617.839055,708.275490,-631.705166,-10049.854920
617.841499,459.421939,1167.697429,-9934.999435
617.843942,-114.855485,1320.838075,-9781.858789
617.846386,976.271621,-1550.549045,-10222.138147
617.848829,172.283227,459.421939,-10049.854920
617.851273,631.705166,-3120.240670,-10183.852986
617.853716,708.275490,-4594.219392,-10413.563955
617.856160,593.420005,-191.425808,-10126.425243
617.858650,-516.849682,3981.656806,-9954.142016
617.861141,1071.984525,4115.654872,-10222.138147
617.863632,-574.277424,3866.801322,-9781.858789
617.866123,918.843878,3885.943902,-8729.016845
617.868613,784.845813,-2526.820666,-10547.562021
617.871104,210.568389,937.986459,-10528.419440
617.873595,708.275490,-1761.117434,-10126.425243
617.876086,1588.834206,-918.843878,-10375.278794
617.878576,-95.712904,2986.242605,-9724.431046
617.881067,631.705166,1282.552914,-9667.003304
617.883558,382.851616,1493.121302,-10470.991698
617.886049,287.138712,1378.265818,-10107.282662
617.888539,1320.838075,-153.140646,-9839.286531
617.891030,210.568389,937.986459,-10088.140082
617.893521,153.140646,574.277424,-9992.427178
617.896012,1665.404530,459.421939,-9781.858789
617.898502,631.705166,918.843878,-10088.140082
617.900993,-248.853550,1091.127106,-10049.854920
617.903484,1071.984525,363.709035,-9762.716208
617.905975,191.425808,555.134843,-9896.714274
617.908465,19.142581,1646.261949,-9820.143950
617.910956,1971.685822,114.855485,-9877.571693
617.913447,-459.421939,1569.691626,-10356.136213
617.915938,650.847747,2258.824534,-9839.286531
617.918428,1052.841944,2009.970984,-9341.579430
617.920919,287.138712,2679.961312,-9839.286531
617.923410,593.420005,1818.545176,-9877.571693
617.925901,210.568389,-1914.258080,-10222.138147
617.928391,-325.423874,650.847747,-9915.856854
617.930882,2679.961312,937.986459,-9667.003304
617.933373,-38.285162,535.992262,-10490.134278
617.935864,-1550.549045,4479.363907,-9781.858789
617.938354,2488.535504,-267.996131,-9954.142016
617.940845,95.712904,325.423874,-9552.147819
617.943336,382.851616,2565.105827,-9743.573627
617.945827,3311.666478,-2124.826469,-10490.134278
617.948317,-306.281293,689.132909,-9820.143950
617.950808,-1665.404530,-2201.396792,-10375.278794
617.953299,2354.537438,-3522.234867,-10796.415571
617.955790,-459.421939,5666.203917,-9016.155557
617.958203,1512.263883,172.283227,-10183.852986
617.960617,248.853550,2488.535504,-9647.860723
617.963030,153.140646,2297.109696,-9456.434915
617.965444,-1091.127106,-3273.381317,-10796.415571
617.967857,1435.693560,-76.570323,-9781.858789
617.970271,-57.427742,-267.996131,-9915.856854
617.972684,918.843878,114.855485,-10356.136213
617.975098,1378.265818,1186.840010,-9399.007173
617.977511,-133.998066,746.560651,-10126.425243
617.979924,248.853550,287.138712,-10317.851051
617.982338,1033.699363,1473.978722,-9207.581365
617.984751,421.136778,-708.275490,-10490.134278
617.987165,191.425808,382.851616,-10126.425243
617.989578,842.273555,95.712904,-9686.145885
617.991992,191.425808,497.707101,-10145.567824
617.994405,746.560651,765.703232,-10126.425243
617.996819,995.414202,210.568389,-9934.999435
617.999232,-401.994197,1110.269686,-10298.708470
618.001646,1110.269686,574.277424,-9667.003304
618.004059,1225.125171,-76.570323,-9954.142016
618.006473,-497.707101,899.701298,-10413.563955
618.008886,1110.269686,325.423874,-10088.140082
618.011300,1263.410333,-1167.697429,-10030.712339
618.013713,-2105.683888,1512.263883,-9973.284597
618.016127,440.279358,-1550.549045,-10260.423309
618.018540,1703.689691,-1933.400661,-10241.280728
618.020953,-478.564520,-95.712904,-10107.282662
618.023367,1627.119368,-803.988394,-10279.565890
618.025780,-612.562586,4211.367776,-9667.003304
618.028194,1607.976787,4039.084549,-9628.718142
618.030607,-210.568389,-2660.818731,-10241.280728
618.033021,172.283227,1225.125171,-9839.286531
618.035434,1722.832272,-1761.117434,-10088.140082
618.037848,-38.285162,-2392.822600,-11064.411702
618.040261,-248.853550,3043.670347,-10030.712339
618.042675,2928.814862,2239.681954,-8690.731683
618.045088,631.705166,38.285162,-10107.282662
618.047502,-746.560651,4594.219392,-9686.145885
618.049915,-306.281293,-1493.121302,-11064.411702
618.052329,1263.410333,4977.071008,-9341.579430
618.054795,1378.265818,-133.998066,-9647.860723
618.057262,555.134843,-708.275490,-10490.134278
618.059728,689.132909,2048.256146,-9781.858789
618.062195,57.427742,-1397.408398,-10566.704602
618.064661,440.279358,1665.404530,-9858.429112
618.067128,1205.982590,2967.100024,-9265.009107
618.069594,344.566454,2048.256146,-10183.852986
618.072061,-229.710970,1588.834206,-9781.858789
618.074527,1301.695494,306.281293,-10164.710405
618.076994,421.136778,631.705166,-9801.001370
618.079460,267.996131,574.277424,-10011.569758
618.081927,593.420005,1167.697429,-9954.142016
618.084393,325.423874,765.703232,-9705.288466
618.086860,899.701298,-153.140646,-10164.710405
618.089326,459.421939,1684.547110,-10222.138147
618.091793,57.427742,38.285162,-10088.140082
618.094259,918.843878,574.277424,-9571.290400
618.096726,1244.267752,1550.549045,-9667.003304
618.099192,38.285162,612.562586,-10164.710405
618.101659,478.564520,1799.402595,-9934.999435
618.104125,937.986459,2871.387120,-9609.575562
618.106592,0.000000,2545.963246,-10088.140082
618.109058,1473.978722,1627.119368,-9724.431046
618.111525,-1071.984525,-803.988394,-10011.569758
618.113991,-210.568389,-459.421939,-10356.136213
618.116458,2641.676150,1856.830338,-9686.145885
618.118924,497.707101,153.140646,-10604.989763
618.121391,-1244.267752,3771.088418,-9801.001370
618.123857,2565.105827,-574.277424,-9820.143950
618.126324,363.709035,287.138712,-9896.714274
618.128790,-114.855485,3656.232933,-9801.001370
618.131257,4153.940034,-2584.248408,-10681.560086
618.133723,-1454.836141,440.279358,-9992.427178
618.136190,-1186.840010,-1914.258080,-10011.569758
618.138656,2622.533570,-5091.926493,-11217.552349
618.141123,-899.701298,5838.487144,-9284.151688
618.143589,2699.103893,248.853550,-10202.995566
618.146056,363.709035,1014.556782,-9647.860723
618.148522,-325.423874,3407.379382,-9265.009107
618.150989,-344.566454,-3675.375514,-10624.132344
618.153493,1263.410333,248.853550,-10202.995566
618.155997,-344.566454,133.998066,-10088.140082
618.158501,957.129040,-765.703232,-10126.425243
618.161005,57.427742,1665.404530,-9667.003304
618.163509,267.996131,746.560651,-9896.714274
618.166013,669.990328,440.279358,-10068.997501
618.168517,555.134843,1780.260014,-10030.712339
618.171021,229.710970,19.142581,-9934.999435
618.173525,937.986459,-478.564520,-9571.290400
618.176029,76.570323,1416.550979,-10107.282662
618.178533,229.710970,976.271621,-9973.284597
618.181037,1071.984525,229.710970,-9934.999435
618.183541,-19.142581,1359.123237,-9915.856854
618.186045,287.138712,1473.978722,-9801.001370
618.188549,995.414202,-459.421939,-10336.993632
618.191053,1091.127106,1435.693560,-9781.858789
618.193557,57.427742,-363.709035,-9839.286531
618.196061,172.283227,-287.138712,-10336.993632
618.198565,727.418070,363.709035,-10222.138147
618.201070,459.421939,-631.705166,-9647.860723
618.203574,574.277424,-2890.529701,-10202.995566
618.206078,210.568389,-421.136778,-9992.427178
618.208582,1588.834206,497.707101,-9705.288466
618.211086,-2124.826469,612.562586,-10604.989763
618.213590,1167.697429,3943.371645,-9667.003304
618.216094,2201.396792,1780.260014,-8518.448456
618.218598,401.994197,-2431.107762,-10719.845248
618.221102,-1875.972918,3598.805190,-9628.718142
618.223606,1473.978722,-746.560651,-10222.138147
618.226110,-1454.836141,-478.564520,-10719.845248
618.228614,1454.836141,3445.664544,-8729.016845
618.231118,1493.121302,631.705166,-9609.575562
618.233622,669.990328,4096.512291,-10222.138147
618.236126,459.421939,2833.101958,-9552.147819
618.238630,1416.550979,-823.130974,-10088.140082
618.241134,306.281293,1741.974853,-9571.290400
618.243638,421.136778,-2220.539373,-10145.567824
618.246142,325.423874,1435.693560,-10164.710405
618.248646,133.998066,-363.709035,-10566.704602
618.251150,995.414202,842.273555,-9954.142016
618.253680,210.568389,3388.236802,-9265.009107
618.256209,421.136778,2622.533570,-9781.858789
618.258738,1052.841944,976.271621,-10088.140082
618.261267,-153.140646,153.140646,-10145.567824
618.263796,555.134843,1454.836141,-9896.714274
618.266325,918.843878,574.277424,-10145.567824
618.268855,19.142581,1110.269686,-10068.997501
618.271384,631.705166,440.279358,-9647.860723
618.273913,842.273555,727.418070,-9667.003304
618.276442,-535.992262,1091.127106,-10585.847182
618.278971,823.130974,459.421939,-10164.710405
618.281500,1167.697429,1416.550979,-9245.866526
618.284030,76.570323,765.703232,-10222.138147
618.286559,191.425808,2909.672282,-10088.140082
618.289088,1167.697429,2909.672282,-9762.716208
618.291617,153.140646,1799.402595,-10011.569758
618.294146,918.843878,-535.992262,-9915.856854
618.296676,153.140646,1856.830338,-9360.722011
618.299205,401.994197,-1761.117434,-10509.276859
618.301734,-114.855485,555.134843,-10585.847182
618.304263,-344.566454,3694.518094,-9590.432981
618.306792,1129.412267,593.420005,-9724.431046
618.309321,-2277.967115,3349.951640,-9437.292334
618.311851,3062.812928,-306.281293,-9934.999435
618.314380,-1741.974853,-76.570323,-10470.991698
618.316909,363.709035,287.138712,-10681.560086
618.319438,1320.838075,-3464.807125,-9647.860723
618.321967,-382.851616,1607.976787,-9475.577496
618.324496,-38.285162,4938.785846,-9360.722011
618.327026,2775.674216,-210.568389,-10164.710405
618.329555,-1110.269686,2890.529701,-10145.567824
618.332084,114.855485,19.142581,-9781.858789
618.334613,976.271621,-861.416136,-9858.429112
618.337142,401.994197,1052.841944,-9839.286531
618.339671,478.564520,-2143.969050,-10547.562021
618.342201,325.423874,421.136778,-9915.856854
618.344730,421.136778,535.992262,-9934.999435
618.347259,727.418070,306.281293,-9571.290400
618.349788,363.709035,555.134843,-10107.282662
618.352317,-38.285162,2201.396792,-9954.142016
618.354864,1282.552914,-727.418070,-10030.712339
618.357411,306.281293,516.849682,-9801.001370
618.359957,57.427742,574.277424,-9992.427178
618.362504,842.273555,689.132909,-9896.714274
618.365051,210.568389,1033.699363,-10049.854920
618.367597,1052.841944,765.703232,-9858.429112
618.370144,1397.408398,-19.142581,-9781.858789
618.372690,-1167.697429,1148.554848,-10298.708470
618.375237,1014.556782,-708.275490,-9934.999435
618.377784,937.986459,612.562586,-9954.142016
618.380330,-306.281293,-1320.838075,-10853.843314
618.382877,976.271621,-421.136778,-9743.573627
618.385424,937.986459,-2163.111630,-10107.282662
618.387970,-401.994197,-1454.836141,-10490.134278
618.390517,1914.258080,1493.121302,-9552.147819
618.393064,-1684.547110,-918.843878,-10834.700733
618.395610,593.420005,4211.367776,-9839.286531
618.398157,3139.383251,976.271621,-8901.300072
618.400704,1895.115499,-2565.105827,-10279.565890
618.403250,-2009.970984,3790.230998,-9858.429112
618.405797,3139.383251,1780.260014,-10068.997501
618.408343,-574.277424,-1933.400661,-10738.987829
618.410890,-344.566454,2067.398726,-9437.292334
618.413437,2258.824534,-153.140646,-9781.858789
618.415983,593.420005,5149.354235,-9877.571693
618.418530,-535.992262,1339.980656,-9954.142016
618.421077,1473.978722,861.416136,-9915.856854
618.423623,267.996131,2163.111630,-9169.296203
618.426170,-95.712904,-2469.392923,-10490.134278
618.428717,1167.697429,1225.125171,-10298.708470
618.431263,363.709035,1416.550979,-9686.145885
618.433810,631.705166,325.423874,-10011.569758
618.436357,650.847747,2699.103893,-9475.577496
618.438903,363.709035,2009.970984,-9973.284597
618.441450,823.130974,1205.982590,-9743.573627
618.443996,727.418070,153.140646,-10222.138147
618.446543,114.855485,1397.408398,-9628.718142
618.449090,574.277424,401.994197,-10298.708470
618.451636,631.705166,535.992262,-10030.712339
618.454183,133.998066,1550.549045,-9533.005238
618.456743,784.845813,-267.996131,-10107.282662
618.459302,344.566454,1110.269686,-10375.278794
618.461862,-363.709035,2277.967115,-9360.722011
618.464421,995.414202,172.283227,-9781.858789
618.466981,-76.570323,3464.807125,-9896.714274
618.469541,-287.138712,3369.094221,-9801.001370
618.472100,1646.261949,1110.269686,-10145.567824
618.474660,-382.851616,842.273555,-9743.573627
618.477219,-191.425808,-1129.412267,-9934.999435
618.479779,1952.543242,3196.810994,-9226.723946
618.482339,1110.269686,-19.142581,-10643.274925
618.484898,-976.271621,3694.518094,-9628.718142
618.487458,2737.389054,-172.283227,-9801.001370
618.490017,-2354.537438,2584.248408,-9781.858789
618.492577,-803.988394,3637.090352,-9667.003304
618.495137,4173.082614,-1493.121302,-10260.423309
618.497696,-842.273555,-57.427742,-10145.567824
618.500256,-1799.402595,-1588.834206,-9915.856854
618.502815,2373.680019,-5264.209720,-10968.698798
618.505375,-650.847747,5187.639397,-9456.434915
618.507934,2450.250342,899.701298,-10088.140082
618.510494,229.710970,2411.965181,-9743.573627
618.513054,-765.703232,1473.978722,-9399.007173
618.515613,-57.427742,-3369.094221,-10758.130410
618.518173,1722.832272,-535.992262,-10049.854920
618.520732,-555.134843,-76.570323,-10394.421374
618.523292,631.705166,-995.414202,-10470.991698
618.525852,1473.978722,1397.408398,-9801.001370
618.528411,-210.568389,1052.841944,-9724.431046
618.530971,976.271621,1359.123237,-9781.858789
618.533530,593.420005,19.142581,-10375.278794
618.536090,114.855485,803.988394,-10126.425243
618.538659,459.421939,382.851616,-9762.716208
618.541228,823.130974,689.132909,-10011.569758
618.543797,172.283227,1531.406464,-9934.999435
618.546366,555.134843,38.285162,-10088.140082
618.548934,1186.840010,727.418070,-10107.282662
618.551503,-229.710970,1129.412267,-9820.143950
618.554072,459.421939,-401.994197,-10126.425243
618.556641,1244.267752,861.416136,-9820.143950
618.559209,287.138712,-19.142581,-9915.856854
618.561778,669.990328,-2201.396792,-10260.423309
618.564347,-38.285162,-612.562586,-9954.142016
618.566916,593.420005,-1244.267752,-9934.999435
618.569485,363.709035,1722.832272,-9686.145885
618.572053,287.138712,1627.119368,-10451.849117
618.574622,-957.129040,-1091.127106,-10643.274925
618.577191,1799.402595,2622.533570,-9322.436850
618.579760,1875.972918,-1378.265818,-9781.858789
618.582328,-2048.256146,-535.992262,-10470.991698
618.584897,2182.254211,4287.938099,-9207.581365
618.587466,937.986459,650.847747,-9609.575562
618.590035,-669.990328,-401.994197,-10279.565890
618.592604,210.568389,1033.699363,-9705.288466
618.595172,-727.418070,1914.258080,-10413.563955
618.597741,1014.556782,4077.369710,-9303.294269
618.600310,1837.687757,-287.138712,-10011.569758
618.602879,-133.998066,2048.256146,-10183.852986
618.605448,229.710970,19.142581,-9724.431046
618.608016,1129.412267,-727.418070,-10509.276859
618.610585,-344.566454,2316.252277,-9781.858789
618.613154,1359.123237,669.990328,-9762.716208
618.615723,765.703232,3771.088418,-9475.577496
618.618291,114.855485,995.414202,-9915.856854
618.620860,803.988394,1320.838075,-9877.571693
618.623429,-287.138712,133.998066,-9973.284597
618.625998,459.421939,1933.400661,-9743.573627
618.628567,1129.412267,-440.279358,-10317.851051
618.631135,-38.285162,669.990328,-9743.573627
618.633704,823.130974,1435.693560,-9456.434915
618.636273,803.988394,-229.710970,-10413.563955
618.638842,-306.281293,1837.687757,-10088.140082
618.641417,708.275490,1416.550979,-9360.722011
618.643992,669.990328,2488.535504,-9896.714274
618.646567,172.283227,2545.963246,-10107.282662
618.649142,823.130974,229.710970,-9954.142016
618.651717,172.283227,2239.681954,-9552.147819
618.654293,976.271621,-1799.402595,-10317.851051
618.656868,-229.710970,1761.117434,-9590.432981
618.659443,1531.406464,2450.250342,-10164.710405
618.662018,535.992262,1435.693560,-10088.140082
618.664593,-918.843878,1282.552914,-9399.007173
618.667168,2201.396792,-1282.552914,-10298.708470
618.669744,-1378.265818,2545.963246,-9743.573627
618.672319,1473.978722,535.992262,-10432.706536
618.674894,1627.119368,-2813.959378,-9820.143950
618.677469,-401.994197,2813.959378,-9341.579430
618.680044,1435.693560,-1454.836141,-10068.997501
618.682619,210.568389,153.140646,-10604.989763
618.685194,-1052.841944,3656.232933,-9590.432981
618.687770,2105.683888,172.283227,-9667.003304
618.690345,19.142581,2794.816797,-9743.573627
618.692920,880.558717,-2450.250342,-10164.710405
618.695495,401.994197,-1780.260014,-10049.854920
618.698070,172.283227,-19.142581,-10107.282662
618.700645,344.566454,76.570323,-10088.140082
618.703221,1091.127106,1148.554848,-9647.860723
618.705796,-38.285162,803.988394,-9820.143950
618.708371,459.421939,172.283227,-10068.997501
618.710946,976.271621,1244.267752,-10107.282662
618.713521,38.285162,382.851616,-10241.280728
618.716096,957.129040,574.277424,-9686.145885
618.718672,899.701298,1110.269686,-9743.573627
618.721247,-421.136778,267.996131,-10279.565890
618.723822,784.845813,823.130974,-9781.858789
618.726397,612.562586,1818.545176,-10107.282662
618.728972,-421.136778,-497.707101,-10279.565890
618.731547,1225.125171,-76.570323,-9360.722011
618.734122,842.273555,57.427742,-10088.140082
618.736698,287.138712,-1818.545176,-10509.276859
618.739273,746.560651,-976.271621,-9915.856854
618.741848,1205.982590,440.279358,-9743.573627
618.744428,-1895.115499,-1320.838075,-10451.849117
618.747009,1914.258080,4498.506488,-9169.296203
618.749589,248.853550,516.849682,-9628.718142
618.752169,229.710970,-1818.545176,-10758.130410
618.754750,497.707101,2182.254211,-9188.438784
618.757330,-995.414202,-1512.263883,-10853.843314
618.759911,95.712904,2201.396792,-10126.425243
618.762491,3790.230998,3101.098090,-8595.018779
618.765071,995.414202,-248.853550,-10336.993632
618.767652,459.421939,4575.076811,-9705.288466
618.770232,-650.847747,0.000000,-9877.571693
618.772813,344.566454,2909.672282,-9896.714274
618.775393,842.273555,-57.427742,-9781.858789
618.777973,1416.550979,-95.712904,-10317.851051
618.780554,-344.566454,1493.121302,-9915.856854
618.783134,1091.127106,-957.129040,-10375.278794
618.785714,995.414202,1071.984525,-9743.573627
618.788295,-229.710970,3426.521963,-9475.577496
618.790875,823.130974,-19.142581,-10356.136213
618.793456,-133.998066,2411.965181,-9915.856854
618.796036,-344.566454,363.709035,-10356.136213
618.798616,1569.691626,880.558717,-9724.431046
618.801197,765.703232,708.275490,-9896.714274
618.803777,-478.564520,1339.980656,-10107.282662
618.806358,1512.263883,-38.285162,-9839.286531
618.808938,421.136778,1225.125171,-9839.286531
618.811518,-842.273555,1971.685822,-10260.423309
618.814099,1244.267752,1071.984525,-9743.573627
618.816679,421.136778,4019.941968,-9322.436850
618.819259,363.709035,1971.685822,-10107.282662
618.821840,-267.996131,1052.841944,-9973.284597
618.824420,38.285162,-1512.263883,-10490.134278
618.827001,918.843878,3713.660675,-9245.866526
618.829581,2124.826469,-95.712904,-10241.280728
618.832161,-899.701298,2947.957443,-9896.714274
618.834742,1588.834206,306.281293,-9762.716208
618.837322,-1033.699363,1493.121302,-9552.147819
618.839903,2220.539373,1914.258080,-9839.286531
618.842483,823.130974,-727.418070,-10336.993632
618.845063,210.568389,-440.279358,-9915.856854
618.847646,-1263.410333,-1091.127106,-10222.138147
618.850230,784.845813,-4173.082614,-10853.843314
618.852813,650.847747,4517.649069,-9150.153622
618.855396,1091.127106,880.558717,-10107.282662
618.857979,-38.285162,1914.258080,-9839.286531
618.860562,382.851616,1052.841944,-9437.292334
618.863145,344.566454,-823.130974,-10298.708470
618.865728,382.851616,-1301.695494,-10088.140082
618.868311,976.271621,-382.851616,-9686.145885
618.870894,-287.138712,-38.285162,-10662.417506
618.873478,516.849682,421.136778,-9954.142016
618.876061,574.277424,1148.554848,-9188.438784
618.878644,535.992262,440.279358,-10470.991698
618.881227,689.132909,344.566454,-10241.280728
618.883810,650.847747,899.701298,-9820.143950
618.886393,133.998066,1110.269686,-10145.567824
618.888976,631.705166,38.285162,-9628.718142
618.891559,669.990328,976.271621,-9781.858789
618.894143,-19.142581,880.558717,-10853.843314
618.896726,1282.552914,-95.712904,-10030.712339
618.899309,746.560651,727.418070,-9705.288466
618.901892,-19.142581,-153.140646,-10183.852986
618.904475,1071.984525,-1990.828403,-10164.710405
618.907058,267.996131,-191.425808,-9877.571693
618.909641,-210.568389,-1569.691626,-10164.710405
618.912224,267.996131,1282.552914,-9667.003304
618.914807,880.558717,1646.261949,-10068.997501
618.917391,-1741.974853,-1741.974853,-10815.558152
618.919974,1856.830338,1952.543242,-9169.296203
618.922557,1703.689691,-842.273555,-10068.997501
618.925140,-1320.838075,2775.674216,-10298.708470
618.927723,3254.238736,4173.082614,-8786.444587
618.930306,-535.992262,-1741.974853,-10451.849117
618.932889,-191.425808,-210.568389,-10356.136213
618.935472,727.418070,899.701298,-9379.864592
618.938056,-459.421939,1244.267752,-10892.128475
618.940639,210.568389,3330.809059,-9341.579430
618.943222,2565.105827,210.568389,-9437.292334
618.945805,-478.564520,2679.961312,-9743.573627
618.948388,191.425808,-1914.258080,-10451.849117
618.950973,784.845813,842.273555,-10260.423309
618.953558,-287.138712,1684.547110,-10030.712339
618.956144,1148.554848,880.558717,-9724.431046
618.958729,669.990328,2775.674216,-9456.434915
618.961314,-555.134843,153.140646,-10470.991698
618.963899,784.845813,1282.552914,-9762.716208
618.966484,689.132909,823.130974,-10011.569758
618.969069,-76.570323,1359.123237,-10088.140082
618.971655,1052.841944,382.851616,-9590.432981
618.974240,267.996131,153.140646,-10202.995566
618.976825,57.427742,2297.109696,-9801.001370
618.979410,1014.556782,880.558717,-10107.282662
618.981995,708.275490,1627.119368,-10068.997501
618.984581,-421.136778,3675.375514,-9265.009107
618.987166,2009.970984,57.427742,-10068.997501
618.989751,-899.701298,3732.803256,-9724.431046
618.992336,-248.853550,-1186.840010,-10049.854920
618.994921,765.703232,2239.681954,-9590.432981
618.997506,1148.554848,2392.822600,-10011.569758
619.000092,-459.421939,1320.838075,-9839.286531
619.002677,-593.420005,-57.427742,-9954.142016
619.005262,2316.252277,-1052.841944,-10068.997501
619.007847,-1550.549045,2239.681954,-10126.425243
619.010432,3005.385186,19.142581,-9915.856854
619.013017,248.853550,-440.279358,-9762.716208
619.015603,-1741.974853,1244.267752,-9686.145885
619.018188,2239.681954,-5283.352301,-10892.128475
619.020773,-133.998066,3464.807125,-10088.140082
619.023358,1416.550979,1837.687757,-9858.429112
619.025943,2373.680019,-133.998066,-9475.577496
619.028529,382.851616,2833.101958,-9322.436850
619.031114,-421.136778,-1320.838075,-10547.562021
619.033699,1167.697429,-2392.822600,-10298.708470
619.036284,-19.142581,957.129040,-9877.571693
619.038869,421.136778,-153.140646,-10356.136213
619.041454,1110.269686,918.843878,-9954.142016
619.044040,-114.855485,191.425808,-9801.001370
619.046625,823.130974,440.279358,-10030.712339
619.049210,861.416136,133.998066,-10202.995566
619.051795,114.855485,1550.549045,-9973.284597
619.054337,689.132909,325.423874,-9915.856854
619.056879,803.988394,-153.140646,-9877.571693
619.059421,-153.140646,1971.685822,-10202.995566
619.061963,650.847747,306.281293,-10470.991698
619.064505,995.414202,0.000000,-9973.284597
619.067047,-153.140646,823.130974,-9686.145885
619.069589,842.273555,-1990.828403,-10317.851051
619.072131,1014.556782,-1091.127106,-10222.138147
619.074673,0.000000,57.427742,-10145.567824
619.077215,-229.710970,593.420005,-9992.427178
619.079757,1454.836141,2450.250342,-9724.431046
619.082299,-1646.261949,-1588.834206,-10413.563955
619.084841,1091.127106,880.558717,-9475.577496
619.087383,2009.970984,-765.703232,-9954.142016
619.089925,-1378.265818,1875.972918,-10490.134278
619.092467,2526.820666,4728.217458,-9169.296203
619.095008,2622.533570,2373.680019,-9054.440718
619.097550,-669.990328,248.853550,-10279.565890
619.100092,153.140646,1091.127106,-9456.434915
619.102634,-689.132909,765.703232,-11026.126541
619.105176,1071.984525,3062.812928,-9513.862658
619.107718,1837.687757,708.275490,-9322.436850
619.110260,-516.849682,2316.252277,-9820.143950
619.112802,555.134843,-1129.412267,-10183.852986
619.115344,1741.974853,76.570323,-10049.854920
619.117886,-593.420005,2105.683888,-10049.854920
619.120428,440.279358,38.285162,-9992.427178
619.122970,1091.127106,2048.256146,-9552.147819
619.125512,210.568389,1799.402595,-10030.712339
619.128054,1301.695494,535.992262,-9992.427178
619.130596,478.564520,612.562586,-10011.569758
619.133138,133.998066,1435.693560,-9973.284597
619.135680,1205.982590,689.132909,-9762.716208
619.138222,1282.552914,478.564520,-9858.429112
619.140764,-708.275490,1856.830338,-10088.140082
619.143306,1014.556782,1244.267752,-9954.142016
619.145848,842.273555,1856.830338,-10107.282662
619.148390,38.285162,2411.965181,-9705.288466
619.150932,-38.285162,2775.674216,-9111.868461
619.153474,535.992262,-1186.840010,-10432.706536
619.156026,-823.130974,3905.086483,-9437.292334
619.158578,2048.256146,669.990328,-9973.284597
619.161129,861.416136,593.420005,-10088.140082
619.163681,-1856.830338,267.996131,-9609.575562
619.166233,2411.965181,-1799.402595,-10068.997501
619.168785,-535.992262,2775.674216,-10068.997501
619.171337,2201.396792,401.994197,-10088.140082
619.173889,421.136778,-555.134843,-9877.571693
619.176441,-1875.972918,1091.127106,-9762.716208
619.178993,1550.549045,-5091.926493,-10700.702667
619.181545,555.134843,650.847747,-10317.851051
619.184097,-765.703232,3120.240670,-10011.569758
619.186649,1607.976787,267.996131,-9724.431046
619.189201,574.277424,2584.248408,-9341.579430
619.191753,76.570323,-2009.970984,-10470.991698
619.194305,1033.699363,-1837.687757,-10336.993632
619.196857,516.849682,440.279358,-10068.997501
619.199409,0.000000,38.285162,-10394.421374
619.201961,708.275490,1588.834206,-9762.716208
619.204513,287.138712,957.129040,-9552.147819
619.207065,363.709035,459.421939,-10164.710405
619.209617,593.420005,229.710970,-10222.138147
619.212169,133.998066,1071.984525,-10107.282662
619.214721,76.570323,976.271621,-9877.571693
619.217273,842.273555,344.566454,-9686.145885
619.219825,861.416136,95.712904,-10202.995566
619.222377,-516.849682,1378.265818,-10088.140082
619.224929,1359.123237,-555.134843,-10145.567824
619.227481,555.134843,-765.703232,-10260.423309
619.230032,-401.994197,-784.845813,-9801.001370
619.232584,1359.123237,-1454.836141,-9839.286531
619.235136,57.427742,1933.400661,-10107.282662
619.237688,1129.412267,2641.676150,-9801.001370
619.240240,-267.996131,-3101.098090,-10547.562021
619.242792,746.560651,1339.980656,-9743.573627
619.245344,1473.978722,-746.560651,-9590.432981
619.247896,-1148.554848,1320.838075,-10375.278794
619.250448,1856.830338,6049.055533,-9379.864592
619.253000,57.427742,-382.851616,-9724.431046
619.255552,-19.142581,-267.996131,-10241.280728
619.258112,-306.281293,612.562586,-9571.290400
619.260673,-1263.410333,861.416136,-10470.991698
619.263233,1454.836141,2201.396792,-9915.856854
619.265793,1320.838075,1914.258080,-9322.436850
619.268354,-57.427742,1569.691626,-9628.718142
619.270914,631.705166,-1512.263883,-10164.710405
619.273474,497.707101,1301.695494,-10145.567824
619.276035,516.849682,746.560651,-9992.427178
619.278595,1493.121302,2048.256146,-10183.852986
619.281155,421.136778,2277.967115,-9341.579430
619.283715,-267.996131,669.990328,-10049.854920
619.286276,459.421939,344.566454,-10260.423309
619.288836,842.273555,1320.838075,-9552.147819
619.291396,363.709035,823.130974,-10088.140082
619.293957,267.996131,1378.265818,-10356.136213
619.296517,784.845813,497.707101,-9303.294269
619.299077,363.709035,1722.832272,-9705.288466
619.301638,478.564520,1684.547110,-10643.274925
619.304198,497.707101,1014.556782,-10222.138147
619.306758,76.570323,3215.953574,-9456.434915
619.309318,57.427742,-1454.836141,-10279.565890
619.311879,631.705166,3981.656806,-9437.292334
619.314439,2009.970984,1378.265818,-10088.140082
619.316999,-57.427742,1378.265818,-10528.419440
619.319560,1550.549045,899.701298,-9418.149754
619.322120,-1320.838075,382.851616,-9418.149754
619.324680,2201.396792,38.285162,-10394.421374
619.327241,1722.832272,57.427742,-10317.851051
619.329801,133.998066,-95.712904,-10126.425243
619.332361,-650.847747,-995.414202,-10145.567824
619.334921,267.996131,-2756.531635,-10279.565890
619.337482,1512.263883,3981.656806,-9169.296203
619.340042,861.416136,38.285162,-10394.421374
619.342602,363.709035,2163.111630,-10011.569758
619.345163,19.142581,-19.142581,-9686.145885
619.347723,-172.283227,-650.847747,-10126.425243
619.350283,478.564520,-95.712904,-10011.569758
619.352844,1110.269686,-1205.982590,-9839.286531
619.355404,-229.710970,918.843878,-10432.706536
619.357964,861.416136,1014.556782,-10068.997501
619.360492,899.701298,-133.998066,-9762.716208
619.363020,-19.142581,1110.269686,-9743.573627
619.365548,937.986459,440.279358,-9973.284597
619.368076,401.994197,842.273555,-10547.562021
619.370604,344.566454,76.570323,-9973.284597
619.373132,114.855485,1205.982590,-9322.436850
619.375660,669.990328,229.710970,-10164.710405
619.378188,-114.855485,401.994197,-10260.423309
619.380716,669.990328,861.416136,-9877.571693
619.383244,957.129040,-1473.978722,-10394.421374
619.385771,0.000000,-861.416136,-9705.288466
619.388299,1741.974853,-306.281293,-9418.149754
619.390827,-459.421939,-344.566454,-10528.419440
619.393355,2182.254211,3598.805190,-9724.431046
619.395883,880.558717,-191.425808,-9303.294269
619.398411,-19.142581,-2124.826469,-10872.985894
619.400939,363.709035,3273.381317,-8997.012976
619.403467,-248.853550,-1914.258080,-10432.706536
619.405995,-421.136778,3101.098090,-10681.560086
619.408523,3005.385186,3885.943902,-8575.876198
619.411051,861.416136,-880.558717,-10011.569758
619.413579,-516.849682,2545.963246,-9858.429112
619.416107,-76.570323,306.281293,-10566.704602
619.418635,1320.838075,1416.550979,-9762.716208
619.421163,344.566454,191.425808,-10183.852986
619.423690,19.142581,2086.541307,-9667.003304
619.426218,574.277424,-172.283227,-9743.573627
619.428746,-133.998066,593.420005,-10336.993632
619.431274,1071.984525,1933.400661,-9781.858789
619.433802,823.130974,765.703232,-9858.429112
619.436330,19.142581,1703.689691,-10222.138147
619.438858,1244.267752,344.566454,-9667.003304
619.441386,1091.127106,401.994197,-10107.282662
619.443914,153.140646,497.707101,-10394.421374
619.446442,765.703232,1167.697429,-9437.292334
619.448970,574.277424,535.992262,-10241.280728
619.451498,344.566454,1225.125171,-9858.429112
619.454026,880.558717,650.847747,-9667.003304
619.456554,344.566454,2526.820666,-10126.425243
619.459082,-689.132909,2622.533570,-9743.573627
619.461622,899.701298,-497.707101,-9896.714274
619.464162,-287.138712,4307.080680,-9494.720077
619.466702,842.273555,1895.115499,-10068.997501
619.469242,535.992262,1244.267752,-10088.140082
619.471782,612.562586,784.845813,-9781.858789
619.474322,-612.562586,-535.992262,-9647.860723
619.476862,2565.105827,746.560651,-9609.575562
619.479402,459.421939,-765.703232,-10356.136213
619.481942,-1091.127106,421.136778,-10470.991698
619.484483,-535.992262,153.140646,-9609.575562
619.487023,382.851616,-3637.090352,-10470.991698
619.489563,382.851616,3981.656806,-9437.292334
619.492103,1435.693560,478.564520,-9820.143950
619.494643,-210.568389,1684.547110,-10107.282662
619.497183,267.996131,516.849682,-9667.003304
619.499723,401.994197,-1320.838075,-10298.708470
619.502263,746.560651,669.990328,-9954.142016
619.504803,746.560651,-1952.543242,-10088.140082
619.507343,191.425808,459.421939,-9954.142016
619.509883,363.709035,1359.123237,-10164.710405
619.512424,708.275490,114.855485,-9877.571693
619.514964,631.705166,1588.834206,-9533.005238
619.517504,-191.425808,535.992262,-10356.136213
619.520044,823.130974,555.134843,-10145.567824
619.522584,995.414202,1646.261949,-9494.720077
619.525124,-535.992262,153.140646,-10126.425243
619.527664,1263.410333,1225.125171,-9743.573627
619.530204,650.847747,-593.420005,-10145.567824
619.532744,-95.712904,-19.142581,-10336.993632
619.535284,1186.840010,-1397.408398,-9896.714274
619.537825,880.558717,-1148.554848,-9934.999435
619.540365,-1588.834206,1512.263883,-9877.571693
619.542905,2277.967115,535.992262,-9896.714274
619.545445,-1397.408398,-2411.965181,-10815.558152
619.547985,344.566454,1550.549045,-9781.858789
619.550525,2163.111630,401.994197,-9341.579430
619.553065,-1895.115499,382.851616,-10356.136213
619.555605,1512.263883,5321.637462,-9494.720077
619.558145,2775.674216,1014.556782,-9131.011042
619.560685,-1397.408398,229.710970,-10394.421374
619.563236,-248.853550,325.423874,-9954.142016
619.565786,861.416136,1263.410333,-10375.278794
619.568337,-114.855485,2124.826469,-9934.999435
619.570887,1397.408398,2143.969050,-9609.575562
619.573437,880.558717,1588.834206,-9839.286531
619.575988,-19.142581,-401.994197,-10202.995566
619.578538,555.134843,1052.841944,-10049.854920
619.581088,344.566454,76.570323,-10126.425243
619.583638,229.710970,2277.967115,-9896.714274
619.586189,1550.549045,1435.693560,-9609.575562
619.588739,229.710970,1014.556782,-10088.140082
619.591289,-306.281293,1186.840010,-10049.854920
619.593840,1263.410333,-191.425808,-9934.999435
619.596390,631.705166,1378.265818,-9705.288466
619.598940,-133.998066,1473.978722,-10030.712339
619.601491,976.271621,-133.998066,-10068.997501
619.604041,995.414202,3196.810994,-9724.431046
619.606591,-784.845813,727.418070,-9992.427178
619.609142,76.570323,2009.970984,-9992.427178
619.611692,1263.410333,2603.390989,-9571.290400
619.614242,-191.425808,1205.982590,-9992.427178
619.616792,976.271621,3196.810994,-9762.716208
619.619343,957.129040,1741.974853,-9513.862658
619.621893,-1531.406464,-1186.840010,-10222.138147
619.624443,2622.533570,-2220.539373,-10088.140082
619.626994,-1014.556782,1282.552914,-9628.718142
619.629544,76.570323,899.701298,-11121.839445
619.632094,2029.113565,-1665.404530,-9379.864592
619.634645,-133.998066,2967.100024,-9131.011042
619.637195,114.855485,-995.414202,-10509.276859
619.639745,1359.123237,-382.851616,-10107.282662
619.642295,-1225.125171,3043.670347,-9705.288466
619.644846,1014.556782,-153.140646,-10183.852986
619.647396,1091.127106,1550.549045,-9705.288466
619.649946,-440.279358,-631.705166,-9820.143950
619.652497,421.136778,-1761.117434,-10547.562021
619.655047,1588.834206,57.427742,-9743.573627
619.657597,-153.140646,1627.119368,-10049.854920
619.660148,287.138712,-421.136778,-10604.989763
619.662698,1110.269686,918.843878,-9303.294269
619.665222,114.855485,1665.404530,-9628.718142
619.667746,516.849682,-421.136778,-10987.841379
619.670270,325.423874,1339.980656,-9820.143950
619.672795,440.279358,1550.549045,-9915.856854
619.675319,708.275490,-1129.412267,-10336.993632
619.677843,593.420005,555.134843,-10011.569758
619.680367,210.568389,-401.994197,-10279.565890
619.682891,918.843878,-1895.115499,-10336.993632
619.685415,1397.408398,-880.558717,-9877.571693
619.687940,-1167.697429,0.000000,-9858.429112
619.690464,2603.390989,2565.105827,-9628.718142
619.692988,440.279358,-3043.670347,-10643.274925
619.695512,229.710970,-1837.687757,-10834.700733
619.698036,593.420005,2297.109696,-9131.011042
619.700560,-803.988394,-1071.984525,-10719.845248
619.703085,382.851616,4153.940034,-9934.999435
619.705609,3541.377448,3043.670347,-8652.446522
619.708133,-153.140646,229.710970,-10451.849117
619.710657,0.000000,1741.974853,-9781.858789
619.713181,-267.996131,114.855485,-10566.704602
619.715705,344.566454,1569.691626,-10107.282662
619.718230,172.283227,1473.978722,-9494.720077
619.720754,976.271621,1129.412267,-10030.712339
619.723278,153.140646,133.998066,-10241.280728
619.725802,612.562586,153.140646,-9858.429112
619.728326,459.421939,1014.556782,-10030.712339
619.730850,574.277424,2392.822600,-9781.858789
619.733375,689.132909,1110.269686,-9954.142016
619.735899,76.570323,478.564520,-10164.710405
619.738423,650.847747,1282.552914,-9781.858789
619.740947,1052.841944,-210.568389,-10336.993632
619.743471,516.849682,210.568389,-10336.993632
619.745995,421.136778,2086.541307,-9150.153622
619.748520,574.277424,153.140646,-10011.569758
619.751044,325.423874,1416.550979,-10470.991698
619.753568,-19.142581,3866.801322,-9284.151688
619.756092,1339.980656,-38.285162,-9839.286531
619.758616,-267.996131,3809.373579,-9609.575562
619.761140,1014.556782,3005.385186,-9628.718142
619.763665,1167.697429,631.705166,-10183.852986
619.766201,-1148.554848,-1148.554848,-10413.563955
619.768738,1320.838075,-1512.263883,-9724.431046
619.771275,76.570323,1550.549045,-9552.147819
619.773812,2450.250342,-229.710970,-10279.565890
619.776348,-210.568389,535.992262,-9839.286531
619.778885,-689.132909,114.855485,-10126.425243
619.781422,287.138712,-4134.797453,-10911.271056
619.783959,421.136778,4000.799387,-9111.868461
619.786495,382.851616,1186.840010,-10241.280728
619.789032,1416.550979,765.703232,-9839.286531
619.791569,363.709035,1665.404530,-9628.718142
619.794106,267.996131,-1952.543242,-10470.991698
619.796642,765.703232,-325.423874,-10164.710405
619.799179,669.990328,-95.712904,-9667.003304
619.801716,363.709035,229.710970,-10528.419440
619.804253,401.994197,325.423874,-10068.997501
619.806790,440.279358,1014.556782,-9552.147819
619.809326,803.988394,-76.570323,-10222.138147
619.811863,401.994197,1091.127106,-10030.712339
619.814400,1014.556782,1473.978722,-9839.286531
619.816937,38.285162,-593.420005,-10432.706536
619.819473,1033.699363,1225.125171,-9303.294269
619.822010,516.849682,-382.851616,-9896.714274
619.824547,-287.138712,-535.992262,-10681.560086
619.827084,803.988394,-746.560651,-9743.573627
619.829620,1378.265818,0.000000,-9801.001370
619.832157,-1033.699363,-2699.103893,-10566.704602
619.834694,1033.699363,1416.550979,-9954.142016
619.837231,2239.681954,1033.699363,-9245.866526
619.839767,267.996131,-2354.537438,-10681.560086
619.842304,-995.414202,4364.508422,-9265.009107
619.844841,631.705166,-325.423874,-10566.704602
619.847388,-1780.260014,1301.695494,-10547.562021
619.849936,2679.961312,4421.936165,-8346.165229
619.852483,1416.550979,-861.416136,-9934.999435
619.855030,1052.841944,2718.246474,-9954.142016
619.857578,-784.845813,1856.830338,-9609.575562
619.860125,1225.125171,478.564520,-10202.995566
619.862672,153.140646,1033.699363,-9743.573627
619.865220,191.425808,937.986459,-10030.712339
619.867767,689.132909,344.566454,-10088.140082
619.870314,555.134843,344.566454,-9877.571693
619.872862,976.271621,2890.529701,-9552.147819
619.875409,842.273555,937.986459,-9552.147819
619.877956,-133.998066,1110.269686,-10068.997501
619.880504,478.564520,1435.693560,-10145.567824
619.883051,382.851616,669.990328,-10183.852986
619.885598,459.421939,-555.134843,-9992.427178
619.888146,650.847747,1990.828403,-9322.436850
619.890693,267.996131,1110.269686,-10164.710405
619.893240,593.420005,784.845813,-9820.143950
619.895788,1091.127106,3713.660675,-9322.436850
619.898335,1339.980656,937.986459,-10068.997501
619.900882,-535.992262,3617.947771,-9858.429112
619.903430,1167.697429,3407.379382,-9322.436850
619.905977,382.851616,727.418070,-10222.138147
619.908524,-191.425808,-248.853550,-10030.712339
619.911072,1071.984525,-957.129040,-9724.431046
619.913619,803.988394,1531.406464,-10183.852986
619.916166,2622.533570,-1703.689691,-10260.423309
619.918714,-1244.267752,325.423874,-10317.851051
619.921261,-1531.406464,1110.269686,-10107.282662
619.923808,937.986459,-4249.652938,-10719.845248
619.926356,1397.408398,3732.803256,-9494.720077
619.928903,478.564520,823.130974,-10470.991698
619.931450,976.271621,708.275490,-9839.286531
619.933998,382.851616,1397.408398,-9590.432981
619.936545,-765.703232,-1301.695494,-10662.417506
619.939092,1646.261949,229.710970,-9762.716208
619.941640,172.283227,-880.558717,-9820.143950
619.944187,-995.414202,-516.849682,-10470.991698
619.946734,899.701298,1110.269686,-9628.718142
619.949291,957.129040,1952.543242,-9705.288466
619.951847,114.855485,-784.845813,-10317.851051
619.954404,459.421939,1531.406464,-9303.294269
619.956960,306.281293,1014.556782,-10279.565890
619.959516,248.853550,210.568389,-10298.708470
619.962073,1110.269686,-153.140646,-9418.149754
619.964629,-57.427742,-1071.984525,-10222.138147
619.967186,95.712904,459.421939,-10068.997501
619.969742,1799.402595,-1225.125171,-9973.284597
619.972298,-937.986459,823.130974,-9896.714274
619.974855,957.129040,1607.976787,-9399.007173
619.977411,669.990328,-4173.082614,-10643.274925
619.979968,-478.564520,2545.963246,-9724.431046
619.982524,2124.826469,-1761.117434,-10183.852986
619.985080,76.570323,2909.672282,-10222.138147
619.987637,1416.550979,6393.621987,-8920.442653
619.990193,1531.406464,1167.697429,-9131.011042
619.992750,-76.570323,-114.855485,-10394.421374
619.995306,-1320.838075,1052.841944,-9781.858789
619.997863,1244.267752,459.421939,-10394.421374
620.000419,440.279358,1703.689691,-9992.427178
620.002975,-287.138712,3617.947771,-9016.155557
620.005532,1588.834206,248.853550,-9801.001370
620.008088,-421.136778,746.560651,-10222.138147
620.010645,-114.855485,1282.552914,-10260.423309
620.013201,95.712904,-535.992262,-10183.852986
620.015757,937.986459,2928.814862,-9399.007173
620.018314,133.998066,1014.556782,-10049.854920
620.020870,229.710970,497.707101,-9992.427178
620.023427,708.275490,1780.260014,-9743.573627
620.025983,382.851616,995.414202,-9992.427178
620.028539,363.709035,-727.418070,-10068.997501
620.031096,899.701298,2086.541307,-9533.005238
620.033652,-210.568389,995.414202,-10375.278794
620.036209,708.275490,1512.263883,-9992.427178
620.038765,1110.269686,2679.961312,-9647.860723
620.041321,-746.560651,3062.812928,-9801.001370
620.043878,1473.978722,2890.529701,-9743.573627
620.046434,937.986459,2143.969050,-9686.145885
620.048991,-1473.978722,-1703.689691,-10509.276859
620.051554,2163.111630,-2105.683888,-9992.427178
620.054117,-248.853550,2105.683888,-9934.999435
620.056680,1761.117434,-363.709035,-10202.995566
620.059243,765.703232,133.998066,-9628.718142
620.061806,-1225.125171,440.279358,-10356.136213
620.064369,57.427742,-3254.238736,-10604.989763
620.066932,1856.830338,2316.252277,-9915.856854
620.069495,325.423874,1148.554848,-10317.851051
620.072058,344.566454,765.703232,-9418.149754
620.074621,861.416136,1148.554848,-9839.286531
620.077184,0.000000,-1148.554848,-10470.991698
620.079747,823.130974,-76.570323,-9820.143950
620.082310,803.988394,-2048.256146,-10394.421374
620.084874,-191.425808,2143.969050,-10107.282662
620.087437,1129.412267,-535.992262,-10088.140082
620.090000,727.418070,1378.265818,-9533.005238
620.092563,76.570323,1186.840010,-9934.999435
620.095126,516.849682,-918.843878,-10202.995566
620.097689,593.420005,2163.111630,-9934.999435
620.100252,19.142581,344.566454,-10126.425243
620.102815,727.418070,-1186.840010,-9647.860723
620.105378,363.709035,516.849682,-9973.284597
620.107941,440.279358,-1320.838075,-10566.704602
620.110504,1569.691626,172.283227,-9647.860723
620.113067,248.853550,-1205.982590,-10202.995566
620.115630,-287.138712,-1684.547110,-10260.423309
620.118194,2220.539373,2029.113565,-9207.581365
620.120757,976.271621,-1837.687757,-10777.272990
620.123320,-1493.121302,4479.363907,-9494.720077
620.125883,1301.695494,2316.252277,-9743.573627
620.128446,-1588.834206,-229.710970,-10911.271056
620.131009,918.843878,4153.940034,-8556.733618
620.133572,1493.121302,-114.855485,-10049.854920
620.136135,1971.685822,1531.406464,-10279.565890
620.138698,-1780.260014,2737.389054,-9399.007173
620.141261,2048.256146,689.132909,-9801.001370
620.143824,-19.142581,1378.265818,-9705.288466
620.146387,-612.562586,1473.978722,-9877.571693
620.148950,1588.834206,363.709035,-10164.710405
620.151513,114.855485,1167.697429,-9973.284597
620.154082,363.709035,-382.851616,-10202.995566
620.156651,861.416136,1473.978722,-9322.436850
620.159220,478.564520,1990.828403,-9667.003304
620.161788,172.283227,133.998066,-10662.417506
620.164357,593.420005,535.992262,-9743.573627
620.166926,421.136778,1971.685822,-9647.860723
620.169494,1435.693560,-191.425808,-10279.565890
620.172063,440.279358,727.418070,-9858.429112
620.174632,-421.136778,2928.814862,-9743.573627
620.177200,2258.824534,1129.412267,-9992.427178
620.179769,689.132909,2048.256146,-9839.286531
620.182338,-478.564520,4153.940034,-9858.429112
620.184906,1091.127106,1205.982590,-9686.145885
620.187475,-382.851616,-1454.836141,-10375.278794
620.190044,535.992262,-1741.974853,-10394.421374
620.192612,19.142581,1435.693560,-9801.001370
620.195181,2641.676150,-133.998066,-10241.280728
620.197750,-535.992262,459.421939,-9839.286531
620.200318,-440.279358,440.279358,-9724.431046
620.202887,1301.695494,-3809.373579,-10949.556218
620.205456,-95.712904,2775.674216,-10164.710405
620.208024,1244.267752,421.136778,-9934.999435
620.210593,1091.127106,842.273555,-9686.145885
620.213162,-555.134843,1971.685822,-9781.858789
620.215730,823.130974,-1569.691626,-9973.284597
620.218299,803.988394,-823.130974,-10432.706536
620.220868,-57.427742,669.990328,-10145.567824
620.223436,937.986459,-1091.127106,-10030.712339
620.226005,765.703232,2067.398726,-10068.997501
620.228574,19.142581,-95.712904,-10068.997501
620.231143,880.558717,210.568389,-9360.722011
620.233711,210.568389,1684.547110,-10088.140082
620.236280,248.853550,899.701298,-10509.276859
620.238849,861.416136,-1550.549045,-9954.142016
620.241417,-114.855485,1378.265818,-9475.577496
620.243986,957.129040,-1761.117434,-10528.419440
620.246555,1512.263883,-1741.974853,-10509.276859
620.249123,-2488.535504,-459.421939,-10413.563955
620.251692,1799.402595,2565.105827,-9169.296203
620.254261,995.414202,-2852.244539,-9896.714274
620.256834,-708.275490,-650.847747,-10777.272990
620.259407,1167.697429,574.277424,-9647.860723
620.261981,-1167.697429,210.568389,-10547.562021
620.264554,1359.123237,5934.200048,-9494.720077
620.267128,2660.818731,2201.396792,-8499.305875
620.269701,-574.277424,363.709035,-10164.710405
620.272275,-535.992262,2182.254211,-10164.710405
620.274848,57.427742,1225.125171,-10107.282662
620.277421,1646.261949,-153.140646,-10394.421374
620.279995,-1205.982590,3407.379382,-9111.868461
620.282568,2182.254211,880.558717,-9513.862658
620.285142,382.851616,669.990328,-10030.712339
620.287715,248.853550,1971.685822,-9954.142016
620.290288,1091.127106,-363.709035,-9705.288466
620.292862,19.142581,746.560651,-10183.852986
620.295435,-555.134843,2354.537438,-9609.575562
620.298009,1186.840010,57.427742,-9877.571693
620.300582,746.560651,937.986459,-10145.567824
620.303155,-38.285162,1703.689691,-10068.997501
620.305729,1397.408398,153.140646,-9877.571693
620.308302,133.998066,1397.408398,-9379.864592
620.310876,-363.709035,1684.547110,-9915.856854
620.313449,1914.258080,2699.103893,-10202.995566
620.316022,-459.421939,3177.668413,-10030.712339
620.318596,-172.283227,3790.230998,-9762.716208
620.321169,1473.978722,1454.836141,-9303.294269
620.323743,-1244.267752,-1454.836141,-10317.851051
620.326316,1550.549045,-2124.826469,-10451.849117
620.328890,-325.423874,880.558717,-9781.858789
620.331463,2029.113565,478.564520,-10336.993632
620.334036,612.562586,-650.847747,-9954.142016
620.336610,-1225.125171,1493.121302,-9915.856854
620.339183,401.994197,-2086.541307,-10949.556218
620.341757,1033.699363,1722.832272,-10145.567824
620.344330,363.709035,1282.552914,-9915.856854
620.346903,210.568389,574.277424,-9820.143950
620.349477,1014.556782,1588.834206,-9533.005238
620.352050,535.992262,-2009.970984,-10183.852986
620.354624,114.855485,478.564520,-10317.851051
620.357197,1895.115499,650.847747,-9858.429112
620.359774,95.712904,-746.560651,-10164.710405
620.362352,-650.847747,2105.683888,-9896.714274
620.364929,861.416136,133.998066,-9820.143950
620.367506,727.418070,-267.996131,-10088.140082
620.370083,-19.142581,3139.383251,-9877.571693
620.372661,1205.982590,-1627.119368,-10547.562021
620.375238,76.570323,478.564520,-9628.718142
620.377815,497.707101,19.142581,-9590.432981
620.380393,842.273555,-2488.535504,-10643.274925
620.382970,-248.853550,1933.400661,-10049.854920
620.385547,535.992262,555.134843,-9762.716208
620.388125,344.566454,-4287.938099,-10394.421374
620.390702,440.279358,2163.111630,-9399.007173
620.393279,1397.408398,-2258.824534,-10279.565890
620.395856,-19.142581,3790.230998,-9705.288466
620.398434,1129.412267,5015.356170,-9877.571693
620.401011,-535.992262,-1627.119368,-10604.989763
620.403588,153.140646,3101.098090,-9131.011042
620.406166,574.277424,478.564520,-10068.997501
620.408743,1971.685822,535.992262,-10451.849117
620.411320,-746.560651,2584.248408,-9781.858789
620.413897,1607.976787,1454.836141,-9858.429112
620.416475,746.560651,708.275490,-9475.577496
620.419052,-210.568389,995.414202,-10202.995566
620.421629,267.996131,0.000000,-10509.276859
620.424207,574.277424,1990.828403,-9437.292334
620.426784,1473.978722,382.851616,-10336.993632
620.429361,248.853550,995.414202,-9705.288466
620.431939,401.994197,1512.263883,-9954.142016
620.434516,880.558717,861.416136,-10413.563955
620.437093,287.138712,823.130974,-9705.288466
620.439670,459.421939,1263.410333,-9820.143950
620.442248,248.853550,1244.267752,-10451.849117
620.444825,-650.847747,1282.552914,-9494.720077
620.447402,1378.265818,2967.100024,-9226.723946
620.449980,76.570323,2890.529701,-10624.132344
620.452557,-555.134843,4326.223261,-9896.714274
620.455134,1435.693560,1895.115499,-9437.292334
620.457711,-803.988394,-1665.404530,-10183.852986
620.460289,1818.545176,-2373.680019,-10183.852986
620.462868,-1454.836141,248.853550,-10049.854920
620.465448,2048.256146,287.138712,-10872.985894
620.468027,842.273555,-937.986459,-9820.143950
620.470607,-287.138712,3139.383251,-8958.727814
620.473187,497.707101,-2507.678085,-10624.132344
620.475766,210.568389,2163.111630,-10011.569758
620.478346,803.988394,1684.547110,-9973.284597
620.480925,287.138712,267.996131,-9896.714274
620.483505,382.851616,1933.400661,-9667.003304
620.486084,1473.978722,-1990.828403,-9820.143950
620.488664,172.283227,765.703232,-10260.423309
620.491243,631.705166,382.851616,-9858.429112
620.493823,669.990328,727.418070,-9801.001370
620.496403,-363.709035,-669.990328,-10202.995566
620.498982,650.847747,2354.537438,-9092.725880
620.501562,1071.984525,-555.134843,-10317.851051
620.504141,-363.709035,650.847747,-10298.708470
620.506721,880.558717,1569.691626,-9705.288466
620.509300,765.703232,-1493.121302,-10260.423309
620.511880,0.000000,-287.138712,-9781.858789
620.514460,1320.838075,210.568389,-9667.003304
620.517039,-1531.406464,-3139.383251,-10872.985894
620.519619,612.562586,2775.674216,-9762.716208
620.522198,1473.978722,-1244.267752,-9494.720077
620.524778,325.423874,-2756.531635,-10777.272990
620.527357,-95.712904,2699.103893,-9552.147819
620.529937,-650.847747,-382.851616,-10356.136213
620.532516,-650.847747,689.132909,-11083.554283
620.535096,1607.976787,5379.065205,-8480.163294
620.537676,1416.550979,-555.134843,-9781.858789
620.540255,459.421939,2277.967115,-10317.851051
620.542835,-918.843878,1875.972918,-10164.710405
620.545414,1990.828403,-1607.976787,-10317.851051
620.547994,-1282.552914,3751.945837,-9418.149754
620.550573,1550.549045,1627.119368,-9896.714274
620.553153,861.416136,957.129040,-9896.714274
620.555732,516.849682,842.273555,-10202.995566
620.558312,-631.705166,535.992262,-10317.851051
620.560892,1837.687757,1512.263883,-9437.292334
620.563471,19.142581,382.851616,-10107.282662
620.566053,-153.140646,535.992262,-9801.001370
620.568635,1205.982590,2469.392923,-9762.716208
620.571216,650.847747,-976.271621,-11026.126541
620.573798,-344.566454,1588.834206,-9379.864592
620.576379,497.707101,746.560651,-10049.854920
620.578961,1301.695494,3081.955509,-10107.282662
620.581542,-95.712904,3407.379382,-9762.716208
620.584124,421.136778,3369.094221,-9877.571693
620.586705,784.845813,2718.246474,-9743.573627
620.589286,-861.416136,-995.414202,-10049.854920
620.591868,2239.681954,-3005.385186,-10451.849117
620.594449,-1952.543242,1914.258080,-9705.288466
620.597031,3464.807125,-1454.836141,-10413.563955
620.599612,1895.115499,-1607.976787,-9609.575562
620.602194,-1741.974853,3732.803256,-9111.868461
620.604775,746.560651,-3005.385186,-10700.702667
620.607357,1282.552914,2067.398726,-10164.710405
620.609938,-535.992262,1856.830338,-10011.569758
620.612520,746.560651,-229.710970,-9954.142016
620.615101,478.564520,2277.967115,-9667.003304
620.617683,-38.285162,-1378.265818,-9973.284597
620.620264,746.560651,-401.994197,-9934.999435
620.622846,267.996131,-401.994197,-10241.280728
620.625427,-95.712904,1359.123237,-9667.003304
620.628009,1129.412267,1339.980656,-9762.716208
620.630590,325.423874,-19.142581,-9954.142016
620.633172,-95.712904,746.560651,-9533.005238
620.635753,880.558717,1741.974853,-10107.282662
620.638335,248.853550,-650.847747,-10624.132344
620.640916,133.998066,689.132909,-9226.723946
620.643498,1014.556782,-1129.412267,-9705.288466
620.646079,-516.849682,-133.998066,-10394.421374
620.648661,19.142581,-172.283227,-10011.569758
620.651242,421.136778,-2794.816797,-10317.851051
620.653824,1014.556782,1282.552914,-9475.577496
620.656405,1129.412267,-1741.974853,-9858.429112
620.658986,-689.132909,3713.660675,-9724.431046
620.661568,382.851616,3866.801322,-10107.282662
620.664149,-803.988394,-440.279358,-10528.419440
620.666731,918.843878,3962.514226,-9035.298138
620.669314,-287.138712,708.275490,-9647.860723
620.671897,2679.961312,306.281293,-10356.136213
620.674480,-478.564520,3081.955509,-9590.432981
620.677064,1339.980656,669.990328,-10336.993632
620.679647,-401.994197,937.986459,-9533.005238
620.682230,574.277424,1378.265818,-10030.712339
620.684813,708.275490,1646.261949,-10222.138147
620.687396,823.130974,-803.988394,-9820.143950
620.689979,555.134843,325.423874,-10260.423309
620.692562,-306.281293,1703.689691,-9896.714274
620.695146,1397.408398,325.423874,-9781.858789
620.697729,574.277424,1263.410333,-10126.425243
620.700312,95.712904,401.994197,-10049.854920
620.702895,880.558717,669.990328,-9896.714274
620.705478,-57.427742,1684.547110,-10375.278794
620.708061,1186.840010,1722.832272,-9686.145885
620.710645,344.566454,2373.680019,-9647.860723
620.713228,440.279358,4039.084549,-10164.710405
620.715811,669.990328,2871.387120,-9781.858789
620.718394,210.568389,-1531.406464,-10126.425243
620.720977,842.273555,-899.701298,-9839.286531
620.723560,-727.418070,1225.125171,-9628.718142
620.726143,3235.096155,-1837.687757,-10375.278794
620.728727,-689.132909,440.279358,-10547.562021
620.731310,-1512.263883,-899.701298,-10202.995566
620.733893,995.414202,-2163.111630,-10088.140082
620.736476,1263.410333,3905.086483,-9571.290400
620.739059,727.418070,478.564520,-10260.423309
620.741642,210.568389,937.986459,-9820.143950
620.744225,516.849682,937.986459,-9820.143950
620.746809,229.710970,-1837.687757,-10183.852986
620.749392,1167.697429,-574.277424,-10126.425243
620.751975,440.279358,727.418070,-9992.427178
620.754558,459.421939,-363.709035,-10394.421374
620.757141,631.705166,918.843878,-10011.569758
620.759724,95.712904,669.990328,-9762.716208
620.762308,727.418070,172.283227,-9839.286531
620.764891,631.705166,1378.265818,-10164.710405
620.767474,210.568389,19.142581,-10566.704602
620.770057,880.558717,-612.562586,-9571.290400
620.772641,803.988394,-440.279358,-9915.856854
620.775225,-1167.697429,325.423874,-10336.993632
620.777809,1110.269686,-1071.984525,-10049.854920
620.780392,-325.423874,-2526.820666,-10700.702667
620.782976,-267.996131,-57.427742,-10298.708470
620.785560,2182.254211,-995.414202,-9571.290400
620.788144,-363.709035,2603.390989,-10222.138147
620.790728,1607.976787,7121.040058,-9169.296203
620.793312,650.847747,-1033.699363,-9954.142016
620.795896,-574.277424,2163.111630,-10164.710405
620.798479,440.279358,-95.712904,-9839.286531
620.801063,3120.240670,38.285162,-10107.282662
620.803647,-1397.408398,3809.373579,-9934.999435
620.806231,593.420005,2718.246474,-9437.292334
620.808815,1856.830338,861.416136,-9437.292334
620.811399,-631.705166,1875.972918,-10107.282662
620.813982,918.843878,1186.840010,-9973.284597
620.816566,995.414202,-535.992262,-9820.143950
620.819150,-267.996131,1416.550979,-10183.852986
620.821734,612.562586,880.558717,-9877.571693
620.824318,1205.982590,-95.712904,-9915.856854
620.826902,229.710970,1952.543242,-9839.286531
620.829486,19.142581,-267.996131,-10336.993632
620.832069,957.129040,1205.982590,-9743.573627
620.834653,248.853550,1320.838075,-9954.142016
620.837237,306.281293,3005.385186,-9839.286531
620.839821,1646.261949,3847.658741,-9934.999435
620.842405,-765.703232,3579.662610,-10011.569758
620.844989,1569.691626,2373.680019,-9647.860723
620.847573,-1359.123237,267.996131,-9801.001370
620.850156,2565.105827,-1607.976787,-10394.421374
620.852740,-746.560651,-1397.408398,-10279.565890
620.855324,114.855485,76.570323,-10528.419440
620.857908,727.418070,-2182.254211,-10107.282662
620.860492,-95.712904,2737.389054,-9188.438784
620.863076,1473.978722,-95.712904,-10126.425243
620.865659,478.564520,784.845813,-9954.142016
620.868243,306.281293,2163.111630,-9934.999435
620.870827,765.703232,-669.990328,-10202.995566
620.873411,172.283227,1148.554848,-9724.431046
620.875996,899.701298,-669.990328,-9934.999435
620.878580,440.279358,-1684.547110,-10662.417506
620.881165,133.998066,2507.678085,-9647.860723
620.883749,574.277424,-382.851616,-10088.140082
620.886334,784.845813,957.129040,-9686.145885
620.888918,191.425808,1052.841944,-9667.003304
620.891502,842.273555,287.138712,-10126.425243
620.894087,401.994197,-19.142581,-10547.562021
620.896671,229.710970,1014.556782,-9628.718142
620.899256,1818.545176,-2392.822600,-10030.712339
620.901840,-1435.693560,363.709035,-10202.995566
620.904425,976.271621,669.990328,-9705.288466
620.907009,1627.119368,-4307.080680,-10451.849117
620.909594,-401.994197,-976.271621,-10413.563955
620.912178,823.130974,306.281293,-9437.292334
620.914763,306.281293,842.273555,-10202.995566
620.917347,1378.265818,7963.313613,-9322.436850
620.919932,593.420005,363.709035,-9686.145885
620.922516,191.425808,708.275490,-10394.421374
620.925101,-1014.556782,746.560651,-9934.999435
620.927685,2718.246474,-842.273555,-10183.852986
620.930270,-38.285162,650.847747,-10068.997501
620.932854,229.710970,3656.232933,-9245.866526
620.935439,2029.113565,861.416136,-10030.712339
620.938023,-306.281293,1799.402595,-10126.425243
620.940608,401.994197,38.285162,-10088.140082
620.943192,382.851616,1167.697429,-9552.147819
620.945777,497.707101,937.986459,-10336.993632
620.948361,172.283227,1052.841944,-9839.286531
620.950946,823.130974,114.855485,-9801.001370
620.953530,382.851616,1205.982590,-9781.858789
620.956115,-38.285162,2373.680019,-9934.999435
620.958700,210.568389,-287.138712,-10183.852986
620.961285,650.847747,3349.951640,-9360.722011
620.963871,229.710970,2450.250342,-9762.716208
620.966456,1052.841944,3311.666478,-10317.851051
620.969041,248.853550,4613.361973,-9437.292334
620.971627,210.568389,-650.847747,-9954.142016
620.974212,401.994197,-267.996131,-9992.427178
620.976797,-1244.267752,2009.970984,-9265.009107
620.979383,3024.527766,-2143.969050,-10547.562021
620.981968,153.140646,-114.855485,-9820.143950
620.984553,-861.416136,497.707101,-9877.571693
620.987139,153.140646,-2890.529701,-10432.706536
620.989724,1339.980656,4077.369710,-9513.862658
620.992309,555.134843,287.138712,-10317.851051
620.994895,650.847747,1914.258080,-9686.145885
620.997480,593.420005,325.423874,-9456.434915
621.000065,344.566454,-1339.980656,-10241.280728
621.002651,937.986459,1167.697429,-9839.286531
621.005236,593.420005,-1990.828403,-10490.134278
621.007821,-248.853550,2335.394858,-9954.142016
621.010407,1148.554848,57.427742,-10011.569758
621.012992,191.425808,95.712904,-9762.716208
621.015577,440.279358,2660.818731,-9494.720077
621.018163,1588.834206,-1761.117434,-10777.272990
621.020748,899.701298,574.277424,-9590.432981
621.023333,153.140646,-172.283227,-9973.284597
621.025919,401.994197,-842.273555,-10088.140082
621.028504,248.853550,-440.279358,-10030.712339
621.031089,153.140646,-2488.535504,-10834.700733
621.033675,2086.541307,-19.142581,-9399.007173
621.036260,842.273555,-2143.969050,-10164.710405
621.038845,-899.701298,3981.656806,-9781.858789
621.041431,765.703232,2699.103893,-8997.012976
621.044016,-248.853550,-133.998066,-10413.563955
621.046601,-459.421939,2699.103893,-9896.714274
621.049187,1339.980656,-153.140646,-9456.434915
621.051772,861.416136,899.701298,-10394.421374
621.054357,-708.275490,3560.520029,-9418.149754
621.056943,2373.680019,-1588.834206,-10317.851051
621.059528,-2182.254211,1454.836141,-9973.284597
621.062113,727.418070,1378.265818,-10049.854920
621.064698,1914.258080,727.418070,-10260.423309
621.067283,593.420005,1627.119368,-9743.573627
621.069868,248.853550,172.283227,-10068.997501
621.072453,516.849682,727.418070,-9915.856854
621.075038,306.281293,1761.117434,-9915.856854
621.077623,1167.697429,95.712904,-10049.854920
621.080208,95.712904,1435.693560,-10107.282662
621.082793,-478.564520,1052.841944,-10030.712339
621.085378,1895.115499,1703.689691,-9533.005238
621.087963,-574.277424,2775.674216,-9973.284597
621.090548,-746.560651,3885.943902,-10049.854920
621.093133,1148.554848,3158.525832,-9494.720077
621.095718,-612.562586,-650.847747,-10490.134278
621.098303,1397.408398,-1818.545176,-10260.423309
621.100888,-478.564520,1684.547110,-8901.300072
621.103473,2584.248408,-1780.260014,-10758.130410
621.106058,-38.285162,-287.138712,-10088.140082
621.108643,-344.566454,-478.564520,-9724.431046
621.111228,-325.423874,-3139.383251,-11083.554283
621.113813,957.129040,3445.664544,-9628.718142
621.116398,1531.406464,842.273555,-9934.999435
621.118983,-478.564520,1167.697429,-10088.140082
621.121568,401.994197,1550.549045,-9571.290400
621.124153,1091.127106,-1244.267752,-10107.282662
621.126738,-421.136778,-1167.697429,-10624.132344
621.129323,593.420005,823.130974,-10030.712339
621.131908,478.564520,440.279358,-10336.993632
621.134493,267.996131,1225.125171,-9533.005238
621.137078,612.562586,612.562586,-9571.290400
621.139663,1091.127106,-248.853550,-10356.136213
621.142248,-363.709035,1148.554848,-10049.854920
621.144833,976.271621,-229.710970,-9762.716208
621.147418,1550.549045,-478.564520,-10030.712339
621.150003,-1301.695494,-650.847747,-10260.423309
621.152588,1971.685822,1167.697429,-9628.718142
621.155173,803.988394,-3885.943902,-10566.704602
621.157758,-153.140646,-3081.955509,-10853.843314
621.160343,765.703232,1435.693560,-9609.575562
621.162928,-1550.549045,57.427742,-10566.704602
621.165513,1416.550979,6661.618118,-9226.723946
621.168097,2124.826469,3617.947771,-8633.303941
621.170682,-153.140646,306.281293,-10566.704602
621.173267,-1435.693560,1205.982590,-9494.720077
621.175851,2009.970984,-1244.267752,-10317.851051
621.178436,-1301.695494,2909.672282,-9858.429112
621.181021,-1550.549045,4153.940034,-9188.438784
621.183605,2411.965181,1473.978722,-9571.290400
621.186190,-689.132909,1282.552914,-10164.710405
621.188775,-133.998066,1359.123237,-9934.999435
621.191359,1722.832272,803.988394,-9513.862658
621.193944,-631.705166,382.851616,-10068.997501
621.196529,-210.568389,1339.980656,-9667.003304
621.199114,2124.826469,1665.404530,-9628.718142
621.201698,-248.853550,421.136778,-10413.563955
621.204283,-1225.125171,1301.695494,-9647.860723
621.206868,1646.261949,1359.123237,-9475.577496
621.209452,-593.420005,2737.389054,-10241.280728
621.212037,631.705166,4421.936165,-9609.575562
621.214622,1359.123237,2622.533570,-9686.145885
621.217206,-229.710970,689.132909,-10164.710405
621.219791,267.996131,689.132909,-9456.434915
621.222376,2335.394858,650.847747,-10030.712339
621.224960,574.277424,-2450.250342,-10547.562021
621.227545,-669.990328,-459.421939,-10145.567824
621.230130,-267.996131,-1473.978722,-10260.423309
621.232714,-459.421939,-1607.976787,-10451.849117
621.235299,1895.115499,3215.953574,-9552.147819
621.237884,631.705166,382.851616,-10241.280728
621.240468,-153.140646,2048.256146,-9934.999435
621.243053,1014.556782,-421.136778,-9647.860723
621.245638,497.707101,-497.707101,-10183.852986
621.248222,-57.427742,-689.132909,-10490.134278
621.250807,1359.123237,382.851616,-9839.286531
621.253392,727.418070,1933.400661,-10145.567824
621.255976,-344.566454,-1014.556782,-10260.423309
621.258561,727.418070,2239.681954,-8863.014910
621.261146,899.701298,95.712904,-10566.704602
621.263730,-38.285162,-382.851616,-10547.562021
621.266315,995.414202,957.129040,-9533.005238
621.268875,1205.982590,-516.849682,-10202.995566
621.271435,-1435.693560,-3043.670347,-10356.136213
621.273995,861.416136,1837.687757,-9571.290400
621.276555,1282.552914,-1818.545176,-9915.856854
621.279115,153.140646,-3790.230998,-10738.987829
621.281675,823.130974,1780.260014,-9609.575562
621.284236,-2143.969050,-210.568389,-10566.704602
621.286796,2029.113565,5608.776174,-9533.005238
621.289356,2450.250342,4728.217458,-8709.874264
621.291916,-363.709035,727.418070,-10566.704602
621.294476,38.285162,1607.976787,-10011.569758
621.297036,918.843878,229.710970,-10088.140082
621.299596,57.427742,-1225.125171,-10547.562021
621.302156,-727.418070,3273.381317,-9207.581365
621.304716,2029.113565,1588.834206,-10241.280728
621.307276,497.707101,382.851616,-10279.565890
621.309836,-593.420005,1454.836141,-9992.427178
621.312396,1435.693560,516.849682,-9705.288466
621.314956,172.283227,574.277424,-9839.286531
621.317516,516.849682,1091.127106,-10088.140082
621.320076,363.709035,1205.982590,-10049.854920
621.322636,38.285162,746.560651,-9820.143950
621.325196,459.421939,535.992262,-9667.003304
621.327757,-57.427742,3560.520029,-9877.571693
621.330317,57.427742,4670.789715,-9877.571693
621.332877,1110.269686,2871.387120,-9590.432981
621.335437,1129.412267,3139.383251,-9571.290400
621.337997,-2775.674216,1359.123237,-9801.001370
621.340557,3101.098090,-3560.520029,-10432.706536
621.343117,-1646.261949,497.707101,-10030.712339
621.345677,1550.549045,-306.281293,-10719.845248
621.348237,2086.541307,-2067.398726,-9724.431046
621.350797,631.705166,2928.814862,-9399.007173
621.353357,248.853550,-191.425808,-10451.849117
621.355917,1282.552914,267.996131,-9820.143950
621.358477,267.996131,3158.525832,-9781.858789
621.361037,19.142581,-593.420005,-10317.851051
621.363597,784.845813,1071.984525,-9533.005238
621.366157,593.420005,-727.418070,-10088.140082
621.368717,459.421939,-1244.267752,-10777.272990
621.371281,746.560651,1550.549045,-9762.716208
621.373844,535.992262,765.703232,-10260.423309
621.376407,363.709035,-669.990328,-9896.714274
621.378971,861.416136,2833.101958,-9207.581365
621.381534,650.847747,-1646.261949,-11370.692995
621.384097,248.853550,957.129040,-9915.856854
621.386660,2316.252277,-95.712904,-9686.145885
621.389224,-1378.265818,-2354.537438,-10853.843314
621.391787,1052.841944,2411.965181,-9399.007173
621.394350,1167.697429,-4364.508422,-10490.134278
621.396913,172.283227,-3675.375514,-10968.698798
621.399477,516.849682,1780.260014,-9245.866526
621.402040,-1703.689691,-612.562586,-10815.558152
621.404603,1780.260014,6297.909083,-9494.720077
621.407166,1933.400661,3943.371645,-8346.165229
621.409730,-191.425808,631.705166,-10834.700733
621.412293,-957.129040,1799.402595,-9686.145885
621.414856,1359.123237,-1875.972918,-10222.138147
621.417420,-1550.549045,2392.822600,-9934.999435
621.419983,-995.414202,3541.377448,-9016.155557
621.422546,2335.394858,-287.138712,-9858.429112
621.425109,-937.986459,2182.254211,-10490.134278
621.427673,1091.127106,1301.695494,-9628.718142
621.430236,937.986459,-382.851616,-9456.434915
621.432799,-842.273555,1167.697429,-10490.134278
621.435362,2392.822600,631.705166,-9743.573627
621.437926,-344.566454,-95.712904,-10030.712339
621.440489,-1378.265818,2431.107762,-10126.425243
621.443052,1301.695494,995.414202,-9896.714274
621.445615,765.703232,1684.547110,-9877.571693
621.448179,-593.420005,4881.358104,-9877.571693
621.450742,1129.412267,2584.248408,-9552.147819
621.453305,1780.260014,2775.674216,-9954.142016
621.455869,-3311.666478,2239.681954,-9475.577496
621.458432,2794.816797,-2756.531635,-9915.856854
621.460995,-1799.402595,-478.564520,-10298.708470
621.463558,612.562586,516.849682,-10126.425243
621.466122,1435.693560,-2928.814862,-10260.423309
621.468685,1071.984525,1818.545176,-9877.571693
621.471248,516.849682,669.990328,-9839.286531
621.473814,669.990328,344.566454,-9705.288466
621.476381,784.845813,2833.101958,-10183.852986
621.478947,-114.855485,440.279358,-9781.858789
621.481513,708.275490,1186.840010,-9322.436850
621.484080,325.423874,-2143.969050,-10624.132344
621.486646,-306.281293,114.855485,-10222.138147
621.489212,612.562586,574.277424,-10164.710405
621.491778,765.703232,1397.408398,-9915.856854
621.494345,267.996131,210.568389,-9705.288466
621.496911,593.420005,325.423874,-9743.573627
621.499477,344.566454,631.705166,-10279.565890
621.502044,555.134843,38.285162,-9954.142016
621.504610,918.843878,708.275490,-9992.427178
621.507176,-459.421939,-2163.111630,-10394.421374
621.509742,19.142581,-3235.096155,-10356.136213
621.512309,1167.697429,-38.285162,-9954.142016
621.514875,1301.695494,-3330.809059,-10585.847182
621.517441,-363.709035,3675.375514,-9456.434915
621.520008,287.138712,1990.828403,-10470.991698
621.522574,-1531.406464,1052.841944,-10700.702667
621.525140,1914.258080,5800.201982,-8422.735552
621.527706,421.136778,382.851616,-10585.847182
621.530273,-19.142581,2201.396792,-10241.280728
621.532839,191.425808,2890.529701,-9169.296203
621.535405,1493.121302,-2258.824534,-10758.130410
621.537972,-1263.410333,2086.541307,-9820.143950
621.540538,1091.127106,1244.267752,-9667.003304
621.543104,248.853550,899.701298,-10834.700733
621.545670,-114.855485,1818.545176,-9724.431046
621.548237,1971.685822,114.855485,-9399.007173
621.550803,-133.998066,325.423874,-10260.423309
621.553369,267.996131,1856.830338,-9896.714274
621.555935,1091.127106,-497.707101,-10317.851051
621.558502,669.990328,1148.554848,-9628.718142
621.561068,-803.988394,3637.090352,-9628.718142
621.563634,1531.406464,1531.406464,-10088.140082
621.566201,-401.994197,5206.781978,-9399.007173
621.568767,1320.838075,2603.390989,-9781.858789
621.571333,-191.425808,-1339.980656,-10260.423309
621.573899,1071.984525,-1569.691626,-10413.563955
621.576468,-1397.408398,-669.990328,-10298.708470
621.579036,1837.687757,-401.994197,-10375.278794
621.581605,1359.123237,-976.271621,-9456.434915
621.584173,-574.277424,2431.107762,-9360.722011
621.586742,57.427742,-2756.531635,-10853.843314
621.589310,478.564520,3273.381317,-9590.432981
621.591878,1148.554848,650.847747,-10107.282662
621.594447,19.142581,746.560651,-10068.997501
621.597015,114.855485,1186.840010,-9667.003304
621.599583,957.129040,-2048.256146,-10336.993632
621.602152,631.705166,306.281293,-9992.427178
621.604720,363.709035,1397.408398,-9820.143950
621.607288,937.986459,459.421939,-10145.567824
621.609857,248.853550,708.275490,-9724.431046
621.612425,899.701298,325.423874,-9609.575562
621.614994,880.558717,248.853550,-10490.134278
621.617562,-440.279358,803.988394,-10413.563955
621.620130,1071.984525,746.560651,-9360.722011
621.622699,1378.265818,-1799.402595,-10030.712339
621.625267,-440.279358,-2469.392923,-10413.563955
621.627835,689.132909,57.427742,-9839.286531
621.630404,2163.111630,-3081.955509,-10260.423309
621.632972,-1205.982590,3426.521963,-9839.286531
621.635540,-114.855485,2277.967115,-10030.712339
621.638109,-976.271621,669.990328,-10317.851051
621.640677,746.560651,6106.483275,-8843.872330
621.643246,1550.549045,172.283227,-10183.852986
621.645814,1684.547110,937.986459,-9801.001370
621.648382,-631.705166,3024.527766,-9533.005238
621.650951,1435.693560,-2297.109696,-10681.560086
621.653519,-133.998066,1301.695494,-9437.292334
621.656087,-287.138712,861.416136,-10298.708470
621.658656,1397.408398,1397.408398,-10413.563955
621.661224,880.558717,1301.695494,-9705.288466
621.663793,153.140646,-267.996131,-10126.425243
621.666361,765.703232,612.562586,-9705.288466
621.668929,669.990328,1014.556782,-10183.852986
621.671498,38.285162,153.140646,-10528.419440
621.674066,1607.976787,708.275490,-9628.718142
621.676634,95.712904,2545.963246,-10011.569758
621.679205,191.425808,3330.809059,-10336.993632
621.681775,1607.976787,3407.379382,-9418.149754
621.684345,937.986459,2507.678085,-9686.145885
621.686916,-2909.672282,1225.125171,-9686.145885
621.689486,3101.098090,-1990.828403,-9973.284597
621.692056,1359.123237,-1799.402595,-10528.419440
621.694627,-2411.965181,-38.285162,-10432.706536
621.697197,1761.117434,-3101.098090,-10049.854920
621.699767,153.140646,2220.539373,-9552.147819
621.702338,382.851616,-344.566454,-10241.280728
621.704908,976.271621,899.701298,-9667.003304
621.707478,555.134843,2450.250342,-9896.714274
621.710049,-133.998066,-1263.410333,-10222.138147
621.712619,612.562586,-114.855485,-9915.856854
621.715189,248.853550,-478.564520,-10222.138147
621.717759,708.275490,95.712904,-10030.712339
621.720330,880.558717,1588.834206,-9915.856854
621.722900,-76.570323,-95.712904,-10107.282662
621.725470,306.281293,1378.265818,-9188.438784
621.728041,1359.123237,38.285162,-10145.567824
621.730611,-267.996131,421.136778,-10413.563955
621.733181,1454.836141,823.130974,-9667.003304
621.735752,-38.285162,-1990.828403,-10011.569758
621.738322,-19.142581,1320.838075,-9724.431046
621.740892,1531.406464,-2316.252277,-9877.571693
621.743463,880.558717,-3675.375514,-10892.128475
621.746033,-899.701298,3177.668413,-9820.143950
621.748603,-535.992262,401.994197,-10451.849117
621.751174,497.707101,2163.111630,-10202.995566
621.753744,1607.976787,6623.332957,-8537.591037
621.756314,1301.695494,114.855485,-10279.565890
621.758885,478.564520,2392.822600,-9992.427178
621.761455,-478.564520,-229.710970,-10317.851051
621.764025,1091.127106,-803.988394,-10394.421374
621.766596,57.427742,3369.094221,-9073.583299
621.769166,535.992262,2029.113565,-10049.854920
621.771736,1378.265818,784.845813,-10356.136213
621.774307,19.142581,1263.410333,-9781.858789
621.776877,57.427742,0.000000,-10202.995566
621.779447,1110.269686,459.421939,-9399.007173
621.782019,306.281293,1244.267752,-9992.427178
621.784591,-76.570323,650.847747,-10222.138147
621.787163,2277.967115,229.710970,-9781.858789
621.789735,-574.277424,3024.527766,-9858.429112
621.792306,-1416.550979,4479.363907,-9858.429112
621.794878,2201.396792,2928.814862,-9341.579430
621.797450,1014.556782,2143.969050,-9896.714274
621.800022,-2411.965181,2029.113565,-9590.432981
621.802594,3751.945837,-1397.408398,-9992.427178
621.805166,-708.275490,-421.136778,-10260.423309
621.807738,-1416.550979,-842.273555,-10585.847182
621.810309,2469.392923,-2794.816797,-9934.999435
621.812881,0.000000,3120.240670,-9399.007173
621.815453,861.416136,803.988394,-10011.569758
621.818025,708.275490,191.425808,-10011.569758
621.820597,363.709035,2928.814862,-9705.288466
621.823169,210.568389,-1531.406464,-9992.427178
621.825740,516.849682,-516.849682,-10202.995566
621.828312,-287.138712,1990.828403,-9781.858789
621.830884,1512.263883,-2048.256146,-10394.421374
621.833456,-612.562586,2201.396792,-9705.288466
621.836028,-267.996131,823.130974,-10126.425243
621.838600,1167.697429,823.130974,-9609.575562
621.841172,1263.410333,325.423874,-10145.567824
621.843743,-650.847747,497.707101,-10356.136213
621.846315,650.847747,382.851616,-10030.712339
621.848887,727.418070,-1684.547110,-10336.993632
621.851459,76.570323,-899.701298,-9839.286531
621.854031,1454.836141,-1167.697429,-9494.720077
621.856603,1205.982590,-3522.234867,-11064.411702
621.859174,-153.140646,2699.103893,-9552.147819
621.861746,976.271621,3235.096155,-9992.427178
621.864318,-1320.838075,784.845813,-10853.843314
621.866890,382.851616,5915.057467,-8441.878133
621.869462,1665.404530,248.853550,-9934.999435
621.872034,114.855485,2507.678085,-10509.276859
621.874606,-248.853550,1301.695494,-9456.434915
621.877177,1588.834206,-2201.396792,-10758.130410
621.879749,-803.988394,3139.383251,-9762.716208
621.882321,1703.689691,2813.959378,-9494.720077
621.884894,2411.965181,-880.558717,-10738.987829
621.887467,-861.416136,2009.970984,-9954.142016
621.890040,976.271621,0.000000,-9934.999435
621.892612,1397.408398,516.849682,-9839.286531
621.895185,-382.851616,1761.117434,-9954.142016
621.897758,478.564520,-267.996131,-10049.854920
621.900331,1091.127106,2660.818731,-9973.284597
621.902904,153.140646,2029.113565,-10088.140082
621.905477,-57.427742,2852.244539,-9915.856854
621.908050,1091.127106,3445.664544,-9724.431046
621.910622,-1110.269686,-823.130974,-10222.138147
621.913195,1531.406464,-1665.404530,-10413.563955
621.915768,-497.707101,2316.252277,-9762.716208
621.918341,2450.250342,-1129.412267,-10068.997501
621.920914,478.564520,-746.560651,-9858.429112
621.923487,-1320.838075,-1493.121302,-10413.563955
621.926059,344.566454,-1818.545176,-10872.985894
621.928632,2009.970984,2718.246474,-9724.431046
621.931205,689.132909,803.988394,-10164.710405
621.933778,-497.707101,1990.828403,-9571.290400
621.936351,1091.127106,1339.980656,-9533.005238
621.938924,746.560651,-2354.537438,-10662.417506
621.941497,287.138712,1761.117434,-9877.571693
621.944069,1473.978722,-1761.117434,-10528.419440
621.946642,114.855485,1569.691626,-9896.714274
621.949215,76.570323,459.421939,-9992.427178
621.951788,957.129040,-19.142581,-9590.432981
621.954361,803.988394,497.707101,-10336.993632
621.956934,689.132909,1052.841944,-10049.854920
621.959507,344.566454,-2660.818731,-10451.849117
621.962079,344.566454,1761.117434,-9781.858789
621.964652,1167.697429,-2603.390989,-9839.286531
621.967225,401.994197,-3771.088418,-10834.700733
621.969798,593.420005,976.271621,-10164.710405
621.972371,-1818.545176,325.423874,-10241.280728
621.974944,1397.408398,2775.674216,-10049.854920
621.977517,2086.541307,6661.618118,-8403.592971
621.980089,689.132909,593.420005,-9801.001370
621.982662,-57.427742,1990.828403,-10049.854920
621.985235,440.279358,-95.712904,-10490.134278
621.987809,57.427742,1339.980656,-9590.432981
621.990383,57.427742,1646.261949,-9399.007173
621.992956,593.420005,-38.285162,-10183.852986
621.995530,133.998066,38.285162,-10222.138147
621.998104,689.132909,2813.959378,-9934.999435
622.000678,937.986459,19.142581,-10068.997501
622.003251,-172.283227,612.562586,-9111.868461
622.005825,325.423874,2239.681954,-9992.427178
622.008399,593.420005,-172.283227,-10298.708470
622.010973,38.285162,2488.535504,-9245.866526
622.013547,497.707101,2411.965181,-10298.708470
622.016120,478.564520,3101.098090,-9877.571693
622.018694,861.416136,3885.943902,-9341.579430
622.021268,-516.849682,-765.703232,-10547.562021
622.023842,1933.400661,-1359.123237,-10068.997501
622.026415,-1014.556782,2143.969050,-9226.723946
622.028989,2852.244539,-1512.263883,-10834.700733
622.031563,478.564520,-191.425808,-9705.288466
622.034137,-1148.554848,-2182.254211,-10011.569758
622.036710,-133.998066,-2373.680019,-10834.700733
622.039284,1971.685822,2718.246474,-9628.718142
622.041858,689.132909,248.853550,-10375.278794
622.044432,-344.566454,1550.549045,-10222.138147
622.047006,861.416136,1512.263883,-9092.725880
622.049579,114.855485,-2373.680019,-10700.702667
622.052153,267.996131,1454.836141,-10222.138147
622.054727,1875.972918,-210.568389,-9858.429112
622.057301,-133.998066,1148.554848,-10413.563955
622.059874,-57.427742,-95.712904,-10068.997501
622.062448,1607.976787,1091.127106,-8824.729749
622.065022,1052.841944,-1282.552914,-11064.411702
622.067596,-1282.552914,1665.404530,-10202.995566
622.070170,995.414202,-612.562586,-9628.718142
622.072743,382.851616,-2258.824534,-10394.421374
622.075317,612.562586,114.855485,-9533.005238
622.077891,1722.832272,-4268.795518,-10509.276859
622.080465,-574.277424,2009.970984,-10260.423309
622.083038,-918.843878,-248.853550,-10547.562021
622.085612,1550.549045,3005.385186,-10126.425243
622.088186,1435.693560,5608.776174,-8729.016845
622.090738,612.562586,1301.695494,-9915.856854
622.093291,1091.127106,2201.396792,-10049.854920
622.095843,-631.705166,1052.841944,-9934.999435
622.098396,784.845813,-1282.552914,-10892.128475
622.100948,-153.140646,2105.683888,-9552.147819
622.103501,612.562586,-306.281293,-9973.284597
622.106053,535.992262,1359.123237,-10222.138147
622.108606,937.986459,2431.107762,-10011.569758
622.111158,861.416136,133.998066,-9934.999435
622.113711,574.277424,401.994197,-9781.858789
622.116263,-612.562586,1531.406464,-9686.145885
622.118816,650.847747,1780.260014,-10145.567824
622.121368,880.558717,1569.691626,-9934.999435
622.123920,-133.998066,4345.365842,-9724.431046
622.126473,535.992262,3503.092286,-9590.432981
622.129025,2009.970984,1971.685822,-9858.429112
622.131578,-1780.260014,3062.812928,-8997.012976
622.134130,2354.537438,-459.421939,-10222.138147
622.136683,497.707101,-1741.974853,-10566.704602
622.139235,-1148.554848,1014.556782,-9915.856854
622.141788,1301.695494,-3790.230998,-10183.852986
622.144340,1033.699363,-287.138712,-9609.575562
622.146893,1320.838075,842.273555,-9954.142016
622.149445,-248.853550,765.703232,-10470.991698
622.151998,1378.265818,2067.398726,-9456.434915
622.154550,0.000000,133.998066,-9686.145885
622.157103,229.710970,1646.261949,-9820.143950
622.159655,1263.410333,-2526.820666,-10298.708470
622.162208,-669.990328,516.849682,-10222.138147
622.164760,459.421939,861.416136,-10107.282662
622.167312,1225.125171,306.281293,-9494.720077
622.169865,-421.136778,1263.410333,-9992.427178
622.172417,1148.554848,-784.845813,-10183.852986
622.174970,1186.840010,976.271621,-9762.716208
622.177522,-1301.695494,-1225.125171,-10681.560086
622.180075,1167.697429,-38.285162,-9877.571693
622.182627,1033.699363,-1397.408398,-9399.007173
622.185180,-440.279358,-4230.510357,-10815.558152
622.187732,1435.693560,612.562586,-9896.714274
622.190285,-746.560651,612.562586,-10451.849117
622.192841,-421.136778,2335.394858,-10796.415571
622.195397,3330.809059,6068.198114,-8116.454259
622.197953,746.560651,1071.984525,-9896.714274
622.200509,-1052.841944,2833.101958,-10279.565890
622.203066,1895.115499,-555.134843,-10164.710405
622.205622,19.142581,880.558717,-10260.423309
622.208178,-995.414202,1129.412267,-9590.432981
622.210734,1684.547110,-497.707101,-9877.571693
622.213290,765.703232,3024.527766,-9667.003304
622.215846,248.853550,1607.976787,-10202.995566
622.218403,1627.119368,76.570323,-10068.997501
622.220959,-153.140646,1856.830338,-9399.007173
622.223515,133.998066,-210.568389,-10088.140082
622.226071,1588.834206,1301.695494,-9915.856854
622.228627,57.427742,2871.387120,-9973.284597
622.231183,421.136778,2220.539373,-10317.851051
622.233740,1263.410333,3694.518094,-9303.294269
622.236296,1052.841944,1091.127106,-9877.571693
622.238852,-1550.549045,1933.400661,-9513.862658
622.241408,3503.092286,-57.427742,-9934.999435
622.243964,-363.709035,-1512.263883,-10796.415571
622.246520,-1282.552914,363.709035,-10164.710405
622.249077,2143.969050,-3407.379382,-10088.140082
622.251633,-57.427742,2201.396792,-9475.577496
622.254189,287.138712,-1799.402595,-10413.563955
622.256745,76.570323,555.134843,-10164.710405
622.259301,574.277424,2603.390989,-9743.573627
622.261857,325.423874,-344.566454,-9781.858789
622.264414,650.847747,1435.693560,-9743.573627
622.266970,440.279358,-1397.408398,-10394.421374
622.269526,459.421939,38.285162,-10222.138147
622.272082,669.990328,1148.554848,-10202.995566
622.274642,38.285162,0.000000,-10164.710405
622.277201,133.998066,650.847747,-9609.575562
622.279761,1110.269686,669.990328,-9705.288466
622.282321,-842.273555,535.992262,-10088.140082
622.284880,631.705166,-803.988394,-10336.993632
622.287440,1167.697429,-1761.117434,-10298.708470
622.290000,267.996131,57.427742,-9360.722011
622.292559,1550.549045,-4249.652938,-10126.425243
622.295119,-76.570323,2871.387120,-10030.712339
622.297679,-1512.263883,1205.982590,-10356.136213
622.300238,823.130974,1091.127106,-10528.419440
622.302798,631.705166,5302.494882,-8920.442653
622.305358,-248.853550,1454.836141,-9513.862658
622.307917,1454.836141,1186.840010,-10260.423309
622.310477,-153.140646,2373.680019,-9533.005238
622.313037,803.988394,-1129.412267,-10624.132344
622.315596,-344.566454,172.283227,-10126.425243
622.318156,-133.998066,842.273555,-9647.860723
622.320715,593.420005,1607.976787,-9628.718142
622.323275,1263.410333,1148.554848,-9954.142016
622.325835,382.851616,1167.697429,-9934.999435
622.328394,-555.134843,-191.425808,-9820.143950
622.330954,1875.972918,1033.699363,-9590.432981
622.333514,-133.998066,2105.683888,-10298.708470
622.336073,57.427742,2833.101958,-9973.284597
622.338633,957.129040,3503.092286,-10011.569758
622.341193,229.710970,3732.803256,-9571.290400
622.343752,133.998066,-1071.984525,-9781.858789
622.346312,2852.244539,-2565.105827,-10470.991698
622.348872,-1397.408398,2488.535504,-9628.718142
622.351431,2737.389054,-1244.267752,-10585.847182
622.353991,1493.121302,-363.709035,-9934.999435
622.356551,-2124.826469,-19.142581,-9513.862658
622.359110,306.281293,-3388.236802,-10451.849117
622.361670,2143.969050,2794.816797,-10068.997501
622.364229,-574.277424,1091.127106,-10088.140082
622.366789,612.562586,593.420005,-9858.429112
622.369349,1148.554848,708.275490,-9609.575562
622.371908,-57.427742,1895.115499,-9379.864592
622.374468,1454.836141,-1818.545176,-10719.845248
622.377030,287.138712,861.416136,-9992.427178
622.379592,478.564520,1110.269686,-9628.718142
622.382154,708.275490,-459.421939,-10145.567824
622.384716,325.423874,708.275490,-9934.999435
622.387278,1531.406464,1091.127106,-9418.149754
622.389840,-689.132909,-2679.961312,-10968.698798
622.392402,248.853550,1091.127106,-9762.716208
622.394964,650.847747,-803.988394,-9571.290400
622.397527,1435.693560,-4843.072942,-10470.991698
622.400089,76.570323,1454.836141,-9609.575562
622.402651,-2105.683888,-153.140646,-10566.704602
622.405213,2392.822600,4709.074877,-10030.712339
622.407775,1167.697429,5206.781978,-8575.876198
622.410337,-267.996131,1033.699363,-9992.427178
622.412899,-19.142581,1607.976787,-9724.431046
622.415461,267.996131,210.568389,-10202.995566
622.418023,363.709035,287.138712,-10394.421374
622.420585,535.992262,1129.412267,-9667.003304
622.423147,899.701298,2603.390989,-9513.862658
622.425709,555.134843,-459.421939,-9781.858789
622.428271,555.134843,1416.550979,-10145.567824
622.430833,114.855485,1301.695494,-10279.565890
622.433395,478.564520,153.140646,-9647.860723
622.435957,76.570323,765.703232,-9801.001370
622.438519,-229.710970,2277.967115,-10011.569758
622.441081,957.129040,2660.818731,-9686.145885
622.443643,306.281293,3120.240670,-10126.425243
622.446205,-95.712904,4555.934230,-9533.005238
622.448767,229.710970,-1512.263883,-9858.429112
622.451329,995.414202,382.851616,-9781.858789
622.453891,-382.851616,2813.959378,-9590.432981
622.456454,3598.805190,-2871.387120,-10509.276859
622.459016,1359.123237,-363.709035,-9973.284597
622.461578,-1971.685822,-229.710970,-9762.716208
622.464140,478.564520,-3483.949706,-10279.565890
622.466702,1895.115499,2622.533570,-10011.569758
622.469264,-401.994197,880.558717,-10088.140082
622.471826,880.558717,1435.693560,-9590.432981
622.474388,708.275490,1818.545176,-9820.143950
622.476950,287.138712,-1301.695494,-9858.429112
622.479514,172.283227,-478.564520,-10222.138147
622.482079,0.000000,2182.254211,-10183.852986
622.484643,803.988394,669.990328,-9915.856854
622.487208,1167.697429,-631.705166,-9743.573627
622.489772,0.000000,1052.841944,-9896.714274
622.492336,535.992262,823.130974,-9934.999435
622.494901,899.701298,-2029.113565,-10490.134278
622.497465,-133.998066,1339.980656,-10088.140082
622.500030,1320.838075,-1550.549045,-9513.862658
622.502594,880.558717,-4728.217458,-10643.274925
622.505158,-363.709035,2277.967115,-10030.712339
622.507723,-918.843878,784.845813,-10375.278794
622.510287,344.566454,1588.834206,-10719.845248
622.512852,2201.396792,7255.038123,-8461.020714
622.515416,669.990328,344.566454,-9647.860723
622.517980,114.855485,3024.527766,-9954.142016
622.520545,708.275490,38.285162,-10260.423309
622.523109,899.701298,248.853550,-10011.569758
622.525674,-57.427742,1952.543242,-9667.003304
622.528238,765.703232,2909.672282,-9207.581365
622.530802,1531.406464,-459.421939,-10068.997501
622.533367,-133.998066,1129.412267,-10451.849117
622.535931,555.134843,784.845813,-9915.856854
622.538496,1014.556782,918.843878,-9494.720077
622.541060,210.568389,382.851616,-10317.851051
622.543624,382.851616,1550.549045,-9686.145885
622.546189,1378.265818,2545.963246,-9609.575562
622.548753,937.986459,2679.961312,-10298.708470
622.551318,535.992262,3254.238736,-9533.005238
622.553882,-1339.980656,2928.814862,-8958.727814
622.556446,1895.115499,-1971.685822,-10490.134278
622.559011,-2143.969050,38.285162,-10126.425243
622.561575,-1320.838075,306.281293,-10375.278794
622.564140,2239.681954,-3751.945837,-10241.280728
622.566704,229.710970,2086.541307,-9284.151688
622.569268,-38.285162,-1703.689691,-10222.138147
622.571833,1627.119368,1531.406464,-9743.573627
622.574397,727.418070,1493.121302,-10011.569758
622.576962,-248.853550,-555.134843,-10088.140082
622.579526,172.283227,1818.545176,-9609.575562
622.582092,133.998066,1416.550979,-9552.147819
622.584659,1186.840010,-899.701298,-9915.856854
622.587225,-172.283227,1703.689691,-10222.138147
622.589792,210.568389,-38.285162,-10222.138147
622.592358,823.130974,669.990328,-9399.007173
622.594924,689.132909,535.992262,-9954.142016
622.597491,0.000000,-1665.404530,-10432.706536
622.600057,57.427742,1971.685822,-9743.573627
622.602624,995.414202,-3043.670347,-10317.851051
622.605190,574.277424,-4862.215523,-10490.134278
622.607757,1091.127106,210.568389,-9303.294269
622.610323,-1799.402595,-172.283227,-10987.841379
622.612889,2163.111630,5398.207786,-9743.573627
622.615456,976.271621,4575.076811,-8537.591037
622.618022,-153.140646,1091.127106,-10700.702667
622.620589,-765.703232,2699.103893,-9131.011042
622.623155,1397.408398,-880.558717,-10336.993632
622.625721,-267.996131,2756.531635,-10088.140082
622.628288,-191.425808,2297.109696,-9265.009107
622.630854,1454.836141,-861.416136,-10279.565890
622.633421,-1225.125171,1780.260014,-10030.712339
622.635987,1435.693560,1186.840010,-9724.431046
622.638554,1071.984525,727.418070,-10126.425243
622.641120,-478.564520,1282.552914,-10145.567824
622.643686,957.129040,727.418070,-9418.149754
622.646253,516.849682,1014.556782,-9667.003304
622.648819,172.283227,4211.367776,-9915.856854
622.651386,976.271621,2565.105827,-9724.431046
622.653952,937.986459,2718.246474,-10260.423309
622.656519,-1550.549045,2699.103893,-9494.720077
622.659085,2622.533570,-3196.810994,-9858.429112
622.661651,-2029.113565,1167.697429,-10126.425243
622.664218,2392.822600,-172.283227,-10777.272990
622.666784,1990.828403,-1550.549045,-9360.722011
622.669351,-1071.984525,612.562586,-9762.716208
622.671917,-210.568389,-3215.953574,-11026.126541
622.674483,2201.396792,1454.836141,-9494.720077
622.677050,727.418070,1282.552914,-10509.276859
622.679616,-823.130974,114.855485,-10107.282662
622.682183,995.414202,2297.109696,-8997.012976
622.684750,727.418070,-1971.685822,-10566.704602
622.687318,95.712904,95.712904,-10107.282662
622.689886,95.712904,1033.699363,-9801.001370
622.692453,957.129040,-133.998066,-10604.989763
622.695021,76.570323,1493.121302,-9667.003304
622.697589,153.140646,1205.982590,-9647.860723
622.700156,574.277424,-2297.109696,-10834.700733
622.702724,631.705166,1914.258080,-9590.432981
622.705292,555.134843,-2584.248408,-10413.563955
622.707859,114.855485,-4000.799387,-10796.415571
622.710427,1550.549045,-133.998066,-9245.866526
622.712995,-823.130974,57.427742,-10681.560086
622.715562,1933.400661,6719.045861,-9705.288466
622.718130,689.132909,2488.535504,-9092.725880
622.720698,95.712904,363.709035,-10413.563955
622.723265,-937.986459,2871.387120,-9475.577496
622.725833,880.558717,-1186.840010,-10088.140082
622.728401,363.709035,2316.252277,-10279.565890
622.730968,344.566454,2105.683888,-9513.862658
622.733536,1110.269686,-1531.406464,-10183.852986
622.736104,-1071.984525,3522.234867,-9494.720077
622.738671,1837.687757,114.855485,-10126.425243
622.741239,976.271621,574.277424,-9820.143950
622.743807,-746.560651,363.709035,-10164.710405
622.746374,382.851616,2009.970984,-9705.288466
622.748942,1646.261949,478.564520,-9877.571693
622.751510,-555.134843,4287.938099,-9877.571693
622.754077,1225.125171,3522.234867,-9820.143950
622.756645,1780.260014,1914.258080,-10030.712339
622.759213,-3062.812928,3464.807125,-9513.862658
622.761780,2718.246474,-2258.824534,-9934.999435
622.764348,-1665.404530,-440.279358,-10413.563955
622.766916,-1990.828403,38.285162,-10336.993632
622.769483,1875.972918,-3273.381317,-10375.278794
622.772051,1397.408398,1378.265818,-9513.862658
622.774619,-861.416136,-1569.691626,-10260.423309
622.777186,1856.830338,1512.263883,-9743.573627
622.779754,1014.556782,746.560651,-10432.706536
622.782322,-803.988394,-153.140646,-10068.997501
622.784889,899.701298,2603.390989,-9150.153622
622.787458,1703.689691,-1588.834206,-9992.427178
622.790026,708.275490,-229.710970,-10126.425243
622.792595,-593.420005,1856.830338,-9954.142016
622.795164,1665.404530,1091.127106,-10011.569758
622.797732,708.275490,-191.425808,-9820.143950
622.800301,-842.273555,1091.127106,-9686.145885
622.802869,823.130974,-1129.412267,-10490.134278
622.805438,401.994197,-1397.408398,-10356.136213
622.808007,727.418070,382.851616,-9686.145885
622.810575,1263.410333,-3656.232933,-9934.999435
622.813144,-382.851616,2029.113565,-9705.288466
622.815712,248.853550,2335.394858,-10336.993632
622.818281,-1569.691626,803.988394,-10834.700733
622.820850,1895.115499,6393.621987,-8709.874264
622.823418,1454.836141,1282.552914,-9533.005238
622.825987,133.998066,2641.676150,-10107.282662
622.828555,401.994197,689.132909,-9820.143950
622.831124,1454.836141,0.000000,-10451.849117
622.833692,-1167.697429,1780.260014,-10164.710405
622.836261,19.142581,344.566454,-9647.860723
622.838830,1167.697429,114.855485,-9877.571693
622.841398,-133.998066,1684.547110,-10183.852986
622.843967,918.843878,382.851616,-10126.425243
622.846535,1244.267752,401.994197,-9418.149754
622.849104,-478.564520,1320.838075,-10088.140082
622.851673,1091.127106,1722.832272,-9915.856854
622.854241,1167.697429,3254.238736,-9628.718142
622.856810,267.996131,3847.658741,-10298.708470
622.859378,-612.562586,727.418070,-9954.142016
622.861947,2526.820666,-1780.260014,-9801.001370
622.864516,-1818.545176,1627.119368,-10088.140082
622.867084,3311.666478,-650.847747,-10183.852986
622.869653,1339.980656,-1148.554848,-10068.997501
622.872221,-2411.965181,-899.701298,-10375.278794
622.874790,765.703232,-2967.100024,-10222.138147
622.877359,1320.838075,2067.398726,-9360.722011
622.879927,-574.277424,880.558717,-10394.421374
622.882496,440.279358,1205.982590,-10202.995566
622.885064,2029.113565,803.988394,-9552.147819
622.887633,-803.988394,306.281293,-10336.993632
622.890202,497.707101,-267.996131,-10164.710405
622.892772,1416.550979,1205.982590,-9858.429112
622.895341,-401.994197,1167.697429,-10241.280728
622.897910,1186.840010,-229.710970,-9992.427178
622.900479,-248.853550,191.425808,-9686.145885
622.903049,172.283227,-1607.976787,-10317.851051
622.905618,1014.556782,-861.416136,-10394.421374
622.908187,689.132909,-631.705166,-9954.142016
622.910757,421.136778,-4000.799387,-10241.280728
622.913326,1397.408398,440.279358,-9724.431046
622.915895,-2545.963246,-76.570323,-10509.276859
622.918464,1531.406464,3943.371645,-9992.427178
622.921034,2679.961312,5532.205851,-8786.444587
622.923603,574.277424,976.271621,-9801.001370
622.926172,133.998066,3101.098090,-9896.714274
622.928742,803.988394,95.712904,-9781.858789
622.931311,363.709035,631.705166,-10317.851051
622.933880,-229.710970,2277.967115,-9820.143950
622.936450,2048.256146,-267.996131,-10202.995566
622.939019,-612.562586,1569.691626,-9437.292334
622.941588,535.992262,880.558717,-9934.999435
622.944157,976.271621,325.423874,-10490.134278
622.946727,574.277424,1780.260014,-9686.145885
622.949296,-19.142581,478.564520,-10068.997501
622.951865,1301.695494,2354.537438,-9322.436850
622.954435,-210.568389,3885.943902,-9954.142016
622.957004,861.416136,3637.090352,-10241.280728
622.959573,-153.140646,497.707101,-9743.573627
622.962143,803.988394,-401.994197,-9934.999435
622.964712,-459.421939,2469.392923,-9399.007173
622.967281,2660.818731,-191.425808,-9915.856854
622.969850,1071.984525,-1512.263883,-10279.565890
622.972420,-650.847747,191.425808,-9647.860723
622.974989,287.138712,-2660.818731,-10470.991698
622.977558,1071.984525,2622.533570,-9992.427178
622.980128,880.558717,995.414202,-10030.712339
622.982697,-153.140646,1493.121302,-9705.288466
622.985266,746.560651,-593.420005,-10202.995566
622.987835,344.566454,-727.418070,-10011.569758
622.990405,574.277424,1607.976787,-9934.999435
622.992975,1473.978722,382.851616,-10356.136213
622.995545,1052.841944,-1091.127106,-10011.569758
622.998115,287.138712,2699.103893,-9418.149754
623.000685,325.423874,-899.701298,-10681.560086
623.003255,1091.127106,1282.552914,-9590.432981
623.005825,497.707101,-2813.959378,-10356.136213
623.008395,-267.996131,-1703.689691,-10413.563955
623.010965,1722.832272,-2431.107762,-9743.573627
623.013535,-248.853550,1799.402595,-9934.999435
623.016106,95.712904,3254.238736,-10183.852986
623.018676,-823.130974,325.423874,-10394.421374
623.021246,976.271621,6355.336826,-8958.727814
623.023816,382.851616,1186.840010,-9609.575562
623.026386,2067.398726,669.990328,-10126.425243
623.028956,210.568389,2316.252277,-9456.434915
623.031526,1263.410333,-344.566454,-10375.278794
623.034096,-363.709035,1320.838075,-9762.716208
623.036666,-306.281293,1282.552914,-9724.431046
623.039236,1186.840010,-38.285162,-10279.565890
623.041806,325.423874,976.271621,-9781.858789
623.044376,-401.994197,1512.263883,-10317.851051
623.046946,1416.550979,-95.712904,-10413.563955
623.049517,1225.125171,2105.683888,-8805.587168
623.052087,19.142581,2890.529701,-9973.284597
623.054657,382.851616,3215.953574,-10317.851051
623.057227,1416.550979,2335.394858,-9781.858789
623.059797,-1627.119368,3196.810994,-9111.868461
623.062367,3139.383251,401.994197,-9781.858789
623.064937,229.710970,-2009.970984,-10719.845248
623.067507,-2029.113565,133.998066,-10126.425243
623.070077,2373.680019,-3388.236802,-10604.989763
623.072647,937.986459,-363.709035,-9533.005238
623.075217,57.427742,114.855485,-10222.138147
623.077787,784.845813,1071.984525,-10241.280728
623.080357,1512.263883,937.986459,-9915.856854
623.082927,-727.418070,1665.404530,-9647.860723
623.085498,1263.410333,-306.281293,-10011.569758
623.088068,650.847747,-172.283227,-10049.854920
623.090638,-478.564520,918.843878,-9877.571693
623.093208,899.701298,-325.423874,-10126.425243
623.095779,995.414202,2048.256146,-9379.864592
623.098349,-842.273555,0.000000,-10432.706536
623.100920,823.130974,-1263.410333,-10030.712339
623.103491,478.564520,861.416136,-9743.573627
623.106062,574.277424,-2105.683888,-10413.563955
623.108633,1186.840010,-4249.652938,-10356.136213
623.111203,401.994197,267.996131,-9399.007173
623.113774,-1416.550979,-1339.980656,-10796.415571
623.116345,1531.406464,1952.543242,-10279.565890
623.118916,2029.113565,7140.182638,-8403.592971
623.121487,-76.570323,1569.691626,-10241.280728
623.124058,612.562586,2450.250342,-9475.577496
623.126628,-133.998066,-38.285162,-10183.852986
623.129199,38.285162,574.277424,-10451.849117
623.131770,861.416136,1397.408398,-9647.860723
623.134341,287.138712,1741.974853,-9934.999435
623.136912,-191.425808,0.000000,-10068.997501
623.139482,784.845813,516.849682,-9686.145885
623.142053,95.712904,1569.691626,-10432.706536
623.144624,880.558717,306.281293,-9973.284597
623.147195,1091.127106,1359.123237,-9647.860723
623.149766,-287.138712,2852.244539,-9801.001370
623.152336,899.701298,2699.103893,-10145.567824
623.154907,1473.978722,3962.514226,-10030.712339
623.157478,-1646.261949,2641.676150,-9437.292334
623.160049,2718.246474,-440.279358,-9839.286531
623.162620,-478.564520,-1129.412267,-10604.989763
623.165191,-1091.127106,229.710970,-10202.995566
623.167761,1971.685822,-3560.520029,-9954.142016
623.170332,497.707101,1761.117434,-9705.288466
623.172903,-784.845813,-1493.121302,-10547.562021
623.175474,1473.978722,1512.263883,-9322.436850
623.178045,708.275490,1550.549045,-10164.710405
623.180615,-421.136778,1359.123237,-9992.427178
623.183186,1110.269686,-1320.838075,-10183.852986
623.185757,344.566454,401.994197,-10317.851051
623.188328,76.570323,612.562586,-9801.001370
623.190899,1244.267752,-76.570323,-9992.427178
623.193470,-210.568389,1799.402595,-10107.282662
623.196040,497.707101,306.281293,-9820.143950
623.198611,976.271621,-2067.398726,-10336.993632
623.201182,-229.710970,2048.256146,-10011.569758
623.203753,1263.410333,-3292.523898,-10432.706536
623.206324,1435.693560,-4862.215523,-10490.134278
623.208895,114.855485,1339.980656,-9437.292334
623.211467,-1952.543242,-1110.269686,-10432.706536
623.214038,2316.252277,3771.088418,-10107.282662
623.216609,861.416136,6470.192310,-8537.591037
623.219180,631.705166,861.416136,-10107.282662
623.221751,-76.570323,2718.246474,-9609.575562
623.224322,-267.996131,-306.281293,-10298.708470
623.226893,880.558717,842.273555,-9896.714274
623.229464,650.847747,1531.406464,-9820.143950
623.232035,229.710970,2086.541307,-9954.142016
623.234606,172.283227,-38.285162,-9915.856854
623.237177,765.703232,1320.838075,-9647.860723
623.239748,229.710970,1531.406464,-9934.999435
623.242319,689.132909,172.283227,-10183.852986
623.244890,861.416136,1550.549045,-9743.573627
623.247461,-153.140646,2833.101958,-9456.434915
623.250032,784.845813,2469.392923,-10183.852986
623.252603,1301.695494,2373.680019,-9992.427178
623.255174,-1186.840010,3828.516160,-8920.442653
623.257745,2756.531635,-57.427742,-10049.854920
623.260316,325.423874,-1646.261949,-10528.419440
623.262887,-1550.549045,-248.853550,-10183.852986
623.265458,1837.687757,-3962.514226,-10356.136213
623.268029,727.418070,1359.123237,-9628.718142
623.270600,-440.279358,-1531.406464,-10356.136213
623.273171,1473.978722,2163.111630,-9724.431046
623.275742,1148.554848,1435.693560,-9973.284597
623.278313,-76.570323,1397.408398,-9475.577496
623.280884,459.421939,-1550.549045,-10700.702667
623.283455,382.851616,899.701298,-10145.567824
623.286027,1014.556782,-19.142581,-9801.001370
623.288598,612.562586,612.562586,-10317.851051
623.291169,287.138712,784.845813,-10145.567824
623.293740,19.142581,727.418070,-9399.007173
623.296311,555.134843,-957.129040,-10317.851051
623.298882,631.705166,-2182.254211,-10604.989763
623.301453,784.845813,-574.277424,-9801.001370
623.304024,937.986459,-3637.090352,-10413.563955
623.306595,-76.570323,1684.547110,-9667.003304
623.309167,-95.712904,995.414202,-10222.138147
623.311738,-1052.841944,1665.404530,-10949.556218
623.314309,2220.539373,6987.041992,-8518.448456
623.316880,1110.269686,746.560651,-9724.431046
623.319452,-593.420005,1933.400661,-10260.423309
623.322023,-210.568389,1569.691626,-9379.864592
623.324594,2009.970984,-1378.265818,-10202.995566
623.327165,-497.707101,1033.699363,-10490.134278
623.329737,287.138712,2124.826469,-9513.862658
623.332308,1205.982590,-421.136778,-9877.571693
623.334879,-363.709035,1091.127106,-10088.140082
623.337450,1225.125171,957.129040,-9973.284597
623.340022,421.136778,995.414202,-9915.856854
623.342593,-229.710970,2411.965181,-9858.429112
623.345164,631.705166,3713.660675,-9456.434915
623.347735,1359.123237,2967.100024,-10164.710405
623.350307,-1091.127106,612.562586,-10509.276859
623.352878,1531.406464,-19.142581,-9609.575562
623.355449,-459.421939,2679.961312,-9456.434915
623.358020,2507.678085,-1339.980656,-10394.421374
623.360592,19.142581,-1071.984525,-9839.286531
623.363163,-995.414202,-2775.674216,-10183.852986
623.365734,-325.423874,-1971.685822,-10777.272990
623.368305,1856.830338,2239.681954,-9571.290400
623.370877,-153.140646,803.988394,-10317.851051
623.373448,95.712904,899.701298,-9781.858789
623.376019,1301.695494,2335.394858,-9226.723946
623.378590,248.853550,-1052.841944,-10490.134278
623.381162,459.421939,76.570323,-10145.567824
623.383733,497.707101,976.271621,-9552.147819
623.386304,382.851616,765.703232,-10490.134278
623.388875,-382.851616,727.418070,-9667.003304
623.391447,689.132909,-363.709035,-9303.294269
623.394018,95.712904,229.710970,-10585.847182
623.396589,1071.984525,-1512.263883,-10222.138147
623.399160,823.130974,-3771.088418,-9877.571693
623.401732,95.712904,421.136778,-9934.999435
623.404303,-1225.125171,-191.425808,-10183.852986
623.406875,1244.267752,2890.529701,-10183.852986
623.409446,1895.115499,6623.332957,-8958.727814
623.412018,306.281293,1033.699363,-9820.143950
623.414589,153.140646,2565.105827,-9724.431046
623.417161,-153.140646,-210.568389,-10528.419440
623.419732,1205.982590,1320.838075,-9820.143950
623.422304,363.709035,2775.674216,-9839.286531
623.424875,95.712904,823.130974,-10068.997501
623.427447,765.703232,153.140646,-9647.860723
623.430019,172.283227,1359.123237,-9877.571693
623.432590,612.562586,497.707101,-10336.993632
623.435162,918.843878,918.843878,-9494.720077
623.437733,306.281293,2986.242605,-9877.571693
623.440305,459.421939,2679.961312,-9992.427178
623.442876,995.414202,3847.658741,-9188.438784
623.445448,-746.560651,899.701298,-10164.710405
623.448019,1110.269686,-574.277424,-10088.140082
623.450591,-727.418070,2450.250342,-9494.720077
623.453162,2947.957443,-1052.841944,-10317.851051
623.455734,-306.281293,-1397.408398,-9877.571693
623.458305,-727.418070,-2545.963246,-10222.138147
623.460877,114.855485,-1225.125171,-10011.569758
623.463448,1339.980656,803.988394,-10126.425243
623.466020,-114.855485,1320.838075,-10049.854920
623.468591,210.568389,1186.840010,-9762.716208
623.471163,1110.269686,2201.396792,-9609.575562
623.473735,267.996131,-440.279358,-10088.140082
623.476306,57.427742,287.138712,-10202.995566
623.478878,1454.836141,248.853550,-10030.712339
623.481449,669.990328,593.420005,-10164.710405
623.484021,-995.414202,880.558717,-10011.569758
623.486592,1167.697429,-1263.410333,-9647.860723
623.489164,765.703232,746.560651,-9915.856854
623.491735,-95.712904,-803.988394,-10662.417506
623.494307,1359.123237,-3866.801322,-10222.138147
623.496878,1301.695494,-229.710970,-9552.147819
623.499450,-2909.672282,-114.855485,-10643.274925
623.502021,2220.539373,3330.809059,-10126.425243
623.504593,2048.256146,6221.338760,-8671.589102
623.507165,-918.843878,1627.119368,-10164.710405
623.509736,593.420005,2469.392923,-9456.434915
623.512308,535.992262,191.425808,-9705.288466
623.514879,172.283227,-267.996131,-10681.560086
623.517451,612.562586,2335.394858,-9437.292334
623.520022,995.414202,-153.140646,-10241.280728
623.522594,-478.564520,1167.697429,-9954.142016
623.525165,957.129040,57.427742,-9743.573627
623.527737,535.992262,2182.254211,-9781.858789
623.530308,344.566454,229.710970,-10279.565890
623.532880,765.703232,1607.976787,-9801.001370
623.535451,0.000000,4287.938099,-9686.145885
623.538023,880.558717,2775.674216,-10164.710405
623.540595,-114.855485,1301.695494,-9762.716208
623.543166,1722.832272,-248.853550,-10030.712339
623.545738,-1071.984525,1416.550979,-9801.001370
623.548309,3541.377448,-899.701298,-10164.710405
623.550881,114.855485,-1110.269686,-9915.856854
623.553452,-1550.549045,-2373.680019,-10413.563955
623.556024,823.130974,-1837.687757,-10145.567824
623.558595,2009.970984,2833.101958,-9667.003304
623.561167,57.427742,-325.423874,-10356.136213
623.563738,172.283227,976.271621,-9552.147819
623.566310,1033.699363,1875.972918,-9724.431046
623.568882,267.996131,-2182.254211,-10317.851051
623.571453,-401.994197,2469.392923,-9858.429112
623.574025,421.136778,631.705166,-10222.138147
623.576596,1129.412267,-267.996131,-9513.862658
623.579168,-287.138712,1301.695494,-9667.003304
623.581739,-937.986459,1435.693560,-10222.138147
623.584311,1856.830338,-3177.668413,-10107.282662
623.586882,555.134843,-1148.554848,-10088.140082
623.589454,-267.996131,-2220.539373,-9858.429112
623.592026,727.418070,19.142581,-9494.720077
623.594597,248.853550,2431.107762,-10451.849117
623.597169,-1665.404530,1320.838075,-10681.560086
623.599740,2928.814862,5857.629725,-8480.163294
623.602312,153.140646,2009.970984,-9992.427178
623.604884,248.853550,1703.689691,-9934.999435
623.607455,861.416136,650.847747,-9456.434915
623.610027,1607.976787,-842.273555,-10490.134278
623.612598,-689.132909,2124.826469,-9647.860723
623.615170,1091.127106,172.283227,-9724.431046
623.617741,267.996131,1167.697429,-9973.284597
623.620313,593.420005,306.281293,-9724.431046
623.622885,784.845813,267.996131,-10375.278794
623.625456,344.566454,1684.547110,-10011.569758
623.628028,880.558717,2029.113565,-9705.288466
623.630599,803.988394,4192.225195,-9992.427178
623.633171,650.847747,2143.969050,-9896.714274
623.635743,-1167.697429,3101.098090,-9188.438784
623.638314,2967.100024,1282.552914,-10088.140082
623.640886,-765.703232,-1856.830338,-10624.132344
623.643457,-516.849682,210.568389,-9858.429112
623.646029,1990.828403,-3598.805190,-10011.569758
623.648600,-497.707101,1014.556782,-9820.143950
623.651172,555.134843,-535.992262,-10470.991698
623.653744,1244.267752,1703.689691,-10183.852986
623.656315,727.418070,880.558717,-9992.427178
623.658887,-306.281293,-727.418070,-9724.431046
623.661458,325.423874,1550.549045,-9934.999435
623.664030,1301.695494,210.568389,-10336.993632
623.666602,746.560651,114.855485,-10164.710405
623.669173,382.851616,631.705166,-9954.142016
623.671745,-555.134843,689.132909,-9820.143950
623.674316,478.564520,-440.279358,-10222.138147
623.676888,1225.125171,0.000000,-10049.854920
623.679459,497.707101,-1014.556782,-9858.429112
623.682031,918.843878,-4862.215523,-10490.134278
623.684603,880.558717,-382.851616,-9858.429112
623.687174,-1856.830338,-708.275490,-10317.851051
623.689746,2679.961312,4192.225195,-9858.429112
623.692317,76.570323,4900.500685,-9245.866526
623.694888,-95.712904,1684.547110,-9877.571693
623.697459,19.142581,2947.957443,-9762.716208
623.700030,210.568389,363.709035,-10145.567824
623.702601,937.986459,1263.410333,-9973.284597
623.705172,382.851616,1493.121302,-9858.429112
623.707744,765.703232,229.710970,-10470.991698
623.710315,-440.279358,1627.119368,-9494.720077
623.712886,784.845813,574.277424,-9858.429112
623.715457,497.707101,1722.832272,-9781.858789
623.718028,650.847747,1301.695494,-9877.571693
623.720599,516.849682,1646.261949,-10088.140082
623.723170,-19.142581,4441.078746,-9494.720077
623.725741,2392.822600,2258.824534,-9724.431046
623.728313,-2603.390989,2890.529701,-9973.284597
623.730884,1588.834206,229.710970,-9915.856854
623.733455,-803.988394,-593.420005,-10164.710405
623.736026,995.414202,440.279358,-10375.278794
623.738597,2009.970984,-2067.398726,-9552.147819
623.741168,1225.125171,19.142581,-9628.718142
623.743739,-650.847747,-746.560651,-10585.847182
623.746310,1186.840010,2488.535504,-9379.864592
623.748882,1646.261949,-689.132909,-10298.708470
623.751453,-1282.552914,1320.838075,-9762.716208
623.754024,1339.980656,325.423874,-9207.581365
623.756595,1129.412267,-497.707101,-10509.276859
623.759166,-765.703232,1167.697429,-10509.276859
623.761737,1952.543242,823.130974,-9284.151688
623.764308,593.420005,-899.701298,-10375.278794
623.766879,-650.847747,880.558717,-9762.716208
623.769451,1186.840010,287.138712,-9954.142016
623.772022,1225.125171,-2048.256146,-10777.272990
623.774593,229.710970,-3254.238736,-10279.565890
623.777164,1646.261949,-1320.838075,-9303.294269
623.779735,-1550.549045,-459.421939,-10853.843314
623.782306,1990.828403,5513.063270,-9609.575562
623.784877,574.277424,3292.523898,-8843.872330
623.787448,-229.710970,1531.406464,-10317.851051
623.790019,-574.277424,2967.100024,-9437.292334
623.792591,1033.699363,19.142581,-9877.571693
623.795161,172.283227,1990.828403,-10241.280728
623.797732,-172.283227,842.273555,-9628.718142
623.800303,918.843878,459.421939,-10241.280728
623.802874,-861.416136,2029.113565,-10107.282662
623.805444,229.710970,918.843878,-9686.145885
623.808015,861.416136,669.990328,-10202.995566
623.810586,-76.570323,2220.539373,-9628.718142
623.813157,421.136778,2105.683888,-9686.145885
623.815727,937.986459,3675.375514,-9839.286531
623.818298,516.849682,2316.252277,-9667.003304
623.820869,-497.707101,3215.953574,-9590.432981
623.823440,2641.676150,1837.687757,-9628.718142
623.826011,708.275490,-2488.535504,-10509.276859
623.828581,-1703.689691,-248.853550,-10356.136213
623.831152,2124.826469,-4039.084549,-10011.569758
623.833723,76.570323,38.285162,-9743.573627
623.836294,-133.998066,-497.707101,-10547.562021
623.838864,1646.261949,2067.398726,-9992.427178
623.841435,1071.984525,574.277424,-9686.145885
623.844006,-497.707101,1148.554848,-9437.292334
623.846577,823.130974,0.000000,-10068.997501
623.849147,995.414202,191.425808,-10432.706536
623.851718,-57.427742,1627.119368,-9915.856854
623.854289,382.851616,1091.127106,-9858.429112
623.856860,440.279358,-1052.841944,-10088.140082
623.859430,-248.853550,1473.978722,-9801.001370
623.862001,1378.265818,-2086.541307,-10815.558152
623.864572,440.279358,-1761.117434,-10432.706536
623.867143,516.849682,-2373.680019,-9590.432981
623.869713,306.281293,229.710970,-9801.001370
623.872284,57.427742,1990.828403,-10356.136213
623.874855,-1225.125171,1588.834206,-10490.134278
623.877426,2411.965181,5838.487144,-8939.585234
623.879997,363.709035,2545.963246,-9647.860723
623.882567,19.142581,2660.818731,-9667.003304
623.885138,535.992262,669.990328,-9724.431046
623.887709,1607.976787,-114.855485,-10279.565890
623.890280,133.998066,1531.406464,-9533.005238
623.892850,535.992262,421.136778,-10164.710405
623.895421,746.560651,1014.556782,-9992.427178
623.897992,153.140646,1684.547110,-9169.296203
623.900562,1071.984525,-516.849682,-10470.991698
623.903133,325.423874,2258.824534,-9609.575562
623.905703,803.988394,3139.383251,-9781.858789
623.908273,306.281293,2450.250342,-10336.993632
623.910844,-995.414202,1684.547110,-9609.575562
623.913414,1990.828403,-689.132909,-9858.429112
623.915985,-784.845813,2469.392923,-10107.282662
623.918555,3369.094221,-574.277424,-10107.282662
623.921126,229.710970,-2565.105827,-10126.425243
623.923696,-1550.549045,-2450.250342,-10470.991698
623.926267,976.271621,-1703.689691,-9915.856854
623.928837,918.843878,2545.963246,-10049.854920
623.931408,-478.564520,574.277424,-10758.130410
623.933978,440.279358,1339.980656,-9188.438784
623.936549,1512.263883,-574.277424,-10298.708470
623.939119,-784.845813,1397.408398,-10241.280728
623.941690,1741.974853,19.142581,-9915.856854
623.944260,1014.556782,1110.269686,-10183.852986
623.946831,-1397.408398,-57.427742,-10356.136213
623.949401,1416.550979,153.140646,-9150.153622
623.951972,957.129040,957.129040,-9858.429112
623.954542,-325.423874,-2182.254211,-10738.987829
623.957113,1205.982590,-3503.092286,-10145.567824
623.959683,1473.978722,-1397.408398,-9954.142016
623.962253,-2105.683888,-133.998066,-10375.278794
623.964824,2660.818731,4900.500685,-9456.434915
623.967394,325.423874,4268.795518,-9399.007173
623.969965,-363.709035,1473.978722,-10451.849117
623.972535,478.564520,2622.533570,-9092.725880
623.975106,516.849682,363.709035,-10470.991698
623.977676,133.998066,708.275490,-9877.571693
623.980247,669.990328,210.568389,-9839.286531
623.982817,287.138712,1761.117434,-10279.565890
623.985388,57.427742,1148.554848,-9647.860723
623.987958,1359.123237,1225.125171,-9686.145885
623.990529,-172.283227,574.277424,-10164.710405
623.993099,153.140646,1435.693560,-9609.575562
623.995670,918.843878,2737.389054,-10049.854920
623.998240,-229.710970,3541.377448,-10222.138147
624.000810,133.998066,1780.260014,-9705.288466
624.003380,727.418070,2488.535504,-9207.581365
624.005949,631.705166,2813.959378,-9877.571693
624.008519,2029.113565,-2699.103893,-10681.560086
624.011089,-1569.691626,-459.421939,-10145.567824
624.013659,918.843878,-4249.652938,-10413.563955
624.016229,1091.127106,-401.994197,-9513.862658
624.018798,-153.140646,669.990328,-10317.851051
624.021368,708.275490,1301.695494,-11026.126541
624.023938,1512.263883,19.142581,-9245.866526
624.026508,153.140646,2431.107762,-9245.866526
624.029078,-19.142581,-574.277424,-10777.272990
624.031647,1741.974853,516.849682,-9820.143950
624.034217,-344.566454,2105.683888,-9686.145885
624.036787,555.134843,-57.427742,-10413.563955
624.039357,1301.695494,38.285162,-9475.577496
624.041926,-899.701298,2335.394858,-9379.864592
624.044496,1148.554848,-2411.965181,-10911.271056
624.047066,1473.978722,-3292.523898,-9743.573627
624.049636,803.988394,-1531.406464,-9801.001370
624.052206,-1033.699363,-114.855485,-10451.849117
624.054775,3560.520029,4957.928427,-9169.296203
624.057345,-650.847747,2048.256146,-9762.716208
624.059915,-153.140646,2201.396792,-10643.274925
624.062485,650.847747,2603.390989,-9245.866526
624.065055,1301.695494,803.988394,-9954.142016
624.067624,-210.568389,1148.554848,-10068.997501
624.070194,1052.841944,478.564520,-9571.290400
624.072764,248.853550,1512.263883,-10202.995566
624.075334,287.138712,1397.408398,-9820.143950
624.077903,1014.556782,861.416136,-9896.714274
624.080473,-57.427742,1952.543242,-9724.431046
624.083043,1205.982590,478.564520,-10183.852986
624.085613,133.998066,3101.098090,-9647.860723
624.088183,248.853550,4134.797453,-9686.145885
624.090752,1167.697429,612.562586,-9973.284597
624.093322,95.712904,2756.531635,-9341.579430
624.095892,746.560651,2794.816797,-9954.142016
624.098462,2775.674216,-3235.096155,-10796.415571
624.101031,-2086.541307,-114.855485,-10107.282662
624.103601,1091.127106,-4192.225195,-10375.278794
624.106170,1225.125171,-765.703232,-9647.860723
624.108739,-401.994197,287.138712,-10356.136213
624.111309,918.843878,1837.687757,-9934.999435
624.113878,1780.260014,-516.849682,-9284.151688
624.116447,76.570323,3005.385186,-9092.725880
624.119017,191.425808,-1205.982590,-10853.843314
624.121586,1186.840010,497.707101,-9820.143950
624.124155,401.994197,2220.539373,-9820.143950
624.126724,-114.855485,-516.849682,-10356.136213
624.129294,1033.699363,-440.279358,-9609.575562
624.131863,-248.853550,1990.828403,-9801.001370
624.134432,1225.125171,-2852.244539,-10930.413637
624.137002,1665.404530,-4670.789715,-10068.997501
624.139571,593.420005,-344.566454,-9781.858789
624.142140,-1205.982590,-880.558717,-10375.278794
624.144710,3101.098090,4479.363907,-9437.292334
624.147279,-325.423874,4211.367776,-9647.860723
624.149848,172.283227,1359.123237,-10528.419440
624.152417,-306.281293,2852.244539,-9303.294269
624.154987,957.129040,-153.140646,-10356.136213
624.157556,-172.283227,1397.408398,-9705.288466
624.160125,478.564520,1148.554848,-9858.429112
624.162695,421.136778,957.129040,-10241.280728
624.165264,535.992262,1684.547110,-9399.007173
624.167833,746.560651,-114.855485,-10126.425243
624.170403,-76.570323,2565.105827,-9552.147819
624.172972,1225.125171,593.420005,-10030.712339
624.175541,267.996131,2277.967115,-10222.138147
624.178110,76.570323,5034.498750,-9341.579430
624.180680,1454.836141,57.427742,-10107.282662
624.183249,1684.547110,344.566454,-10107.282662
624.185818,-1339.980656,4613.361973,-8939.585234
624.188388,3120.240670,-2526.820666,-10528.419440
624.190957,-325.423874,-995.414202,-10145.567824
624.193526,-708.275490,-3522.234867,-10260.423309
624.196096,478.564520,-2201.396792,-9934.999435
624.198665,593.420005,1761.117434,-10394.421374
624.201234,650.847747,1301.695494,-10451.849117
624.203803,1301.695494,-727.418070,-9705.288466
624.206372,535.992262,3139.383251,-9379.864592
624.208941,306.281293,-1167.697429,-10662.417506
624.211510,1167.697429,842.273555,-10011.569758
624.214079,-248.853550,1225.125171,-10068.997501
624.216648,401.994197,210.568389,-9820.143950
624.219217,631.705166,-38.285162,-10222.138147
624.221786,555.134843,-172.283227,-10279.565890
624.224355,478.564520,-1416.550979,-9973.284597
624.226924,803.988394,-3828.516160,-10317.851051
624.229493,-114.855485,631.705166,-9686.145885
624.232062,76.570323,401.994197,-10049.854920
624.234631,-95.712904,2143.969050,-10738.987829
624.237200,325.423874,6240.481341,-9265.009107
