#time,accel_x,accel_y,accel_z
442.161476,-95.712904,-2067.398726,-10470.991698
442.164042,229.710970,4479.363907,-9150.153622
442.166608,669.990328,1493.121302,-9399.007173
442.169174,555.134843,3503.092286,-9609.575562
442.171740,727.418070,2277.967115,-9360.722011
442.174305,823.130974,76.570323,-9973.284597
442.176871,-995.414202,1837.687757,-9494.720077
442.179437,746.560651,267.996131,-9667.003304
442.182003,1359.123237,555.134843,-9571.290400
442.184569,325.423874,191.425808,-9839.286531
442.187135,114.855485,-57.427742,-9915.856854
442.189700,401.994197,2316.252277,-9322.436850
442.192266,803.988394,1627.119368,-9628.718142
442.194832,382.851616,784.845813,-9628.718142
442.197398,421.136778,2124.826469,-9437.292334
442.199964,325.423874,-153.140646,-9877.571693
442.202530,631.705166,1378.265818,-9322.436850
442.205096,382.851616,574.277424,-9820.143950
442.207661,401.994197,516.849682,-9954.142016
442.210227,440.279358,937.986459,-9399.007173
442.212793,421.136778,440.279358,-9686.145885
442.215359,708.275490,1244.267752,-9820.143950
442.217925,478.564520,957.129040,-9858.429112
442.220491,287.138712,1110.269686,-9571.290400
442.223056,1014.556782,3273.381317,-9131.011042
442.225622,-153.140646,2201.396792,-9724.431046
442.228188,-172.283227,3101.098090,-9590.432981
442.230754,1454.836141,3809.373579,-9245.866526
442.233320,325.423874,-918.843878,-10068.997501
442.235886,76.570323,2258.824534,-9475.577496
442.238451,248.853550,2220.539373,-9360.722011
442.241017,1416.550979,535.992262,-9801.001370
442.243583,-133.998066,248.853550,-9839.286531
442.246149,-784.845813,-2584.248408,-10719.845248
442.248715,2220.539373,3732.803256,-8824.729749
442.251281,-1225.125171,-3694.518094,-10394.421374
442.253846,1110.269686,1971.685822,-9628.718142
442.256436,0.000000,306.281293,-9533.005238
442.259026,421.136778,-133.998066,-10183.852986
442.261616,823.130974,95.712904,-9533.005238
442.264206,382.851616,344.566454,-10049.854920
442.266795,0.000000,1493.121302,-9552.147819
442.269385,382.851616,-1091.127106,-9896.714274
442.271975,1301.695494,765.703232,-9494.720077
442.274565,765.703232,-1607.976787,-9724.431046
442.277155,-401.994197,-459.421939,-10183.852986
442.279744,765.703232,1071.984525,-9169.296203
442.282334,191.425808,-248.853550,-10107.282662
442.284924,842.273555,937.986459,-9705.288466
442.287514,325.423874,1167.697429,-9418.149754
442.290104,267.996131,1091.127106,-9781.858789
442.292694,784.845813,-191.425808,-9743.573627
442.295283,306.281293,784.845813,-9801.001370
442.297873,535.992262,287.138712,-9590.432981
442.300463,459.421939,-57.427742,-9877.571693
442.303053,535.992262,631.705166,-9743.573627
442.305643,516.849682,765.703232,-9801.001370
442.308232,421.136778,574.277424,-9590.432981
442.310822,401.994197,1205.982590,-9437.292334
442.313412,497.707101,-114.855485,-9954.142016
442.316002,842.273555,823.130974,-9724.431046
442.318592,153.140646,1052.841944,-9571.290400
442.321181,1167.697429,-2143.969050,-10126.425243
442.323771,-153.140646,-1148.554848,-9724.431046
442.326361,574.277424,-1014.556782,-9686.145885
442.328951,1263.410333,-1875.972918,-10126.425243
442.331541,191.425808,2622.533570,-9150.153622
442.334130,823.130974,-4077.369710,-10298.708470
442.336720,-861.416136,-1282.552914,-10107.282662
442.339310,1550.549045,344.566454,-9705.288466
442.341900,19.142581,2986.242605,-9379.864592
442.344490,325.423874,2163.111630,-9418.149754
442.347079,2277.967115,-746.560651,-9877.571693
442.349669,-2086.541307,3828.516160,-9456.434915
442.352259,2258.824534,-650.847747,-9590.432981
442.354849,-918.843878,3962.514226,-9322.436850
442.357439,1225.125171,191.425808,-9934.999435
442.360043,689.132909,3254.238736,-9188.438784
442.362648,995.414202,38.285162,-9858.429112
442.365253,-191.425808,172.283227,-9667.003304
442.367858,57.427742,2182.254211,-9705.288466
442.370463,1301.695494,57.427742,-9973.284597
442.373068,19.142581,2909.672282,-9226.723946
442.375672,382.851616,133.998066,-9781.858789
442.378277,478.564520,1071.984525,-9667.003304
442.380882,-153.140646,2450.250342,-9494.720077
442.383487,1397.408398,1473.978722,-9609.575562
442.386092,306.281293,708.275490,-9781.858789
442.388697,-57.427742,-95.712904,-9934.999435
442.391301,555.134843,1971.685822,-9341.579430
442.393906,765.703232,421.136778,-9896.714274
442.396511,401.994197,803.988394,-9705.288466
442.399116,363.709035,976.271621,-9609.575562
442.401721,421.136778,1052.841944,-9647.860723
442.404325,535.992262,535.992262,-9647.860723
442.406930,210.568389,842.273555,-9839.286531
442.409535,114.855485,535.992262,-9820.143950
442.412140,880.558717,1052.841944,-9667.003304
442.414745,1033.699363,803.988394,-9686.145885
442.417350,0.000000,574.277424,-9628.718142
442.419954,823.130974,2794.816797,-9590.432981
442.422559,363.709035,2833.101958,-9724.431046
442.425164,172.283227,2029.113565,-9781.858789
442.427769,899.701298,4479.363907,-8958.727814
442.430374,248.853550,-1454.836141,-10298.708470
442.432979,248.853550,4728.217458,-9188.438784
442.435583,-287.138712,1512.263883,-9705.288466
442.438188,1799.402595,669.990328,-9781.858789
442.440793,-267.996131,880.558717,-9552.147819
442.443398,-1033.699363,-2833.101958,-10604.989763
442.446003,2297.109696,3005.385186,-8997.012976
442.448607,-899.701298,-3369.094221,-10356.136213
442.451212,1014.556782,1454.836141,-9762.716208
442.453817,-191.425808,133.998066,-9379.864592
442.456422,995.414202,-95.712904,-9896.714274
442.459027,1052.841944,-248.853550,-9494.720077
442.461632,-153.140646,1837.687757,-9839.286531
442.464240,-191.425808,1627.119368,-9513.862658
442.466853,248.853550,-401.994197,-9781.858789
442.469466,1320.838075,-382.851616,-9743.573627
442.472078,114.855485,-1091.127106,-9743.573627
442.474691,57.427742,784.845813,-9934.999435
442.477303,1033.699363,-287.138712,-9475.577496
442.479916,95.712904,-325.423874,-9877.571693
442.482529,555.134843,650.847747,-9686.145885
442.485141,382.851616,957.129040,-9647.860723
442.487754,172.283227,765.703232,-9762.716208
442.490366,497.707101,1359.123237,-9399.007173
442.492979,497.707101,325.423874,-9877.571693
442.495591,478.564520,497.707101,-9647.860723
442.498204,287.138712,727.418070,-9705.288466
442.500817,555.134843,937.986459,-9724.431046
442.503429,229.710970,478.564520,-9877.571693
442.506042,57.427742,363.709035,-9762.716208
442.508654,995.414202,1263.410333,-9418.149754
442.511267,976.271621,421.136778,-9801.001370
442.513880,-210.568389,-555.134843,-10011.569758
442.516492,153.140646,708.275490,-9379.864592
442.519105,1244.267752,-2354.537438,-9934.999435
442.521717,210.568389,861.416136,-9647.860723
442.524330,650.847747,-2641.676150,-10068.997501
442.526943,57.427742,-1225.125171,-10068.997501
442.529555,-172.283227,2201.396792,-9131.011042
442.532168,1971.685822,593.420005,-9456.434915
442.534780,-478.564520,516.849682,-9896.714274
442.537393,1225.125171,-3579.662610,-10413.563955
442.540006,-1110.269686,5225.924558,-8939.585234
442.542618,2163.111630,-382.851616,-10107.282662
442.545231,-421.136778,2411.965181,-9781.858789
442.547843,535.992262,3120.240670,-9284.151688
442.550456,1320.838075,1301.695494,-9781.858789
442.553068,-497.707101,1665.404530,-10088.140082
442.555681,95.712904,19.142581,-9801.001370
442.558294,535.992262,2029.113565,-9341.579430
442.560906,957.129040,-1110.269686,-9896.714274
442.563519,-574.277424,1665.404530,-9513.862658
442.566131,1129.412267,-746.560651,-10317.851051
442.568748,784.845813,2029.113565,-9379.864592
442.571365,95.712904,2143.969050,-9437.292334
442.573981,497.707101,440.279358,-10011.569758
442.576598,191.425808,2737.389054,-9533.005238
442.579215,574.277424,1914.258080,-9609.575562
442.581832,727.418070,631.705166,-9781.858789
442.584448,497.707101,727.418070,-9686.145885
442.587065,382.851616,478.564520,-9705.288466
442.589682,535.992262,842.273555,-9762.716208
442.592298,708.275490,325.423874,-9839.286531
442.594915,267.996131,1397.408398,-9437.292334
442.597532,650.847747,19.142581,-9762.716208
442.600148,363.709035,631.705166,-9762.716208
442.602765,-210.568389,1397.408398,-9667.003304
442.605382,918.843878,344.566454,-9934.999435
442.607998,612.562586,689.132909,-9533.005238
442.610615,555.134843,2507.678085,-9456.434915
442.613232,57.427742,2163.111630,-9801.001370
442.615849,344.566454,2411.965181,-9762.716208
442.618465,1186.840010,4134.797453,-9054.440718
442.621082,229.710970,-803.988394,-10222.138147
442.623699,248.853550,5895.914886,-8805.587168
442.626315,344.566454,440.279358,-9858.429112
442.628932,1531.406464,727.418070,-10011.569758
442.631549,-957.129040,-382.851616,-9839.286531
442.634165,-153.140646,-1129.412267,-10375.278794
442.636782,2277.967115,2469.392923,-9092.725880
442.639399,-842.273555,-3464.807125,-10356.136213
442.642015,1397.408398,2909.672282,-9303.294269
442.644632,76.570323,-1933.400661,-10049.854920
442.647249,1148.554848,-191.425808,-9686.145885
442.649865,1052.841944,-38.285162,-9341.579430
442.652482,-440.279358,1416.550979,-9781.858789
442.655099,861.416136,153.140646,-9609.575562
442.657716,746.560651,0.000000,-9781.858789
442.660332,727.418070,-803.988394,-9743.573627
442.662949,267.996131,1320.838075,-9245.866526
442.665566,765.703232,-612.562586,-10298.708470
442.668182,0.000000,-1167.697429,-9992.427178
442.670799,153.140646,57.427742,-9628.718142
442.673418,1148.554848,153.140646,-9475.577496
442.676037,-38.285162,957.129040,-9781.858789
442.678656,306.281293,1091.127106,-9647.860723
442.681274,899.701298,784.845813,-9533.005238
442.683893,325.423874,363.709035,-9896.714274
442.686512,325.423874,1110.269686,-9686.145885
442.689131,382.851616,191.425808,-9915.856854
442.691750,382.851616,918.843878,-9609.575562
442.694369,803.988394,727.418070,-9647.860723
442.696988,287.138712,459.421939,-9934.999435
442.699607,478.564520,1320.838075,-9533.005238
442.702225,497.707101,-1110.269686,-9839.286531
442.704844,-267.996131,689.132909,-9475.577496
442.707463,1205.982590,-1588.834206,-9934.999435
442.710082,1205.982590,-535.992262,-9877.571693
442.712701,382.851616,0.000000,-9552.147819
442.715320,133.998066,-3771.088418,-10432.706536
442.717939,325.423874,1665.404530,-9399.007173
442.720558,1416.550979,0.000000,-9609.575562
442.723176,-114.855485,-1071.984525,-10298.708470
442.725795,1282.552914,-2737.389054,-10260.423309
442.728414,-976.271621,4843.072942,-8863.014910
442.731033,2545.963246,-976.271621,-9954.142016
442.733652,-1397.408398,3637.090352,-9571.290400
442.736271,-133.998066,4555.934230,-9265.009107
442.738890,1780.260014,1320.838075,-9686.145885
442.741508,-535.992262,1512.263883,-9992.427178
442.744127,478.564520,1837.687757,-9303.294269
442.746746,957.129040,1416.550979,-9590.432981
442.749365,535.992262,-1225.125171,-10126.425243
442.751984,-689.132909,1378.265818,-9552.147819
442.754603,1703.689691,-153.140646,-10088.140082
442.757222,114.855485,2239.681954,-9322.436850
442.759841,38.285162,1780.260014,-9513.862658
442.762459,440.279358,1301.695494,-9858.429112
442.765078,459.421939,1780.260014,-9724.431046
442.767697,248.853550,2813.959378,-9418.149754
442.770316,957.129040,248.853550,-9609.575562
442.772935,287.138712,880.558717,-9647.860723
442.775554,478.564520,574.277424,-9724.431046
442.778174,612.562586,746.560651,-9915.856854
442.780793,440.279358,1052.841944,-9781.858789
442.783413,287.138712,344.566454,-9399.007173
442.786033,899.701298,1033.699363,-9647.860723
442.788653,976.271621,650.847747,-9973.284597
442.791272,440.279358,1014.556782,-9647.860723
442.793892,306.281293,1110.269686,-9513.862658
442.796512,1052.841944,842.273555,-9801.001370
442.799132,210.568389,3177.668413,-9418.149754
442.801751,191.425808,1741.974853,-9801.001370
442.804371,880.558717,4517.649069,-9379.864592
442.806991,497.707101,-306.281293,-9896.714274
442.809611,248.853550,3943.371645,-9169.296203
442.812231,-172.283227,2335.394858,-9245.866526
442.814850,1684.547110,2239.681954,-9609.575562
442.817470,-382.851616,612.562586,-9915.856854
442.820090,-708.275490,-2411.965181,-10624.132344
442.822710,2354.537438,2431.107762,-8977.870395
442.825329,-995.414202,-3483.949706,-10336.993632
442.827949,957.129040,1665.404530,-9647.860723
442.830569,19.142581,-842.273555,-9839.286531
442.833189,1186.840010,-976.271621,-9992.427178
442.835808,727.418070,306.281293,-9245.866526
442.838428,-689.132909,1952.543242,-9647.860723
442.841048,-114.855485,689.132909,-9839.286531
442.843668,842.273555,229.710970,-9667.003304
442.846288,248.853550,-497.707101,-9801.001370
442.848907,574.277424,1378.265818,-9111.868461
442.851527,669.990328,-1052.841944,-10279.565890
442.854147,-38.285162,-669.990328,-9839.286531
442.856767,555.134843,172.283227,-9609.575562
442.859386,1205.982590,172.283227,-9628.718142
442.862006,-325.423874,1301.695494,-9552.147819
442.864625,-19.142581,344.566454,-9839.286531
442.867244,1167.697429,880.558717,-9360.722011
442.869863,267.996131,708.275490,-9762.716208
442.872482,306.281293,401.994197,-9954.142016
442.875101,382.851616,593.420005,-9686.145885
442.877720,708.275490,593.420005,-9628.718142
442.880339,689.132909,823.130974,-9647.860723
442.882958,-497.707101,937.986459,-9724.431046
442.885577,995.414202,0.000000,-9667.003304
442.888197,287.138712,-823.130974,-9724.431046
442.890816,-555.134843,-497.707101,-9934.999435
442.893435,1550.549045,-2392.822600,-10088.140082
442.896054,478.564520,1971.685822,-9284.151688
442.898673,497.707101,-3120.240670,-10279.565890
442.901292,-459.421939,-363.709035,-9647.860723
442.903911,2105.683888,1071.984525,-9341.579430
442.906530,-669.990328,1722.832272,-9552.147819
442.909149,918.843878,-3464.807125,-10432.706536
442.911769,-516.849682,3981.656806,-9092.725880
442.914388,918.843878,823.130974,-9915.856854
442.917007,2297.109696,-229.710970,-9667.003304
442.919626,-880.558717,5206.781978,-8863.014910
442.922245,1703.689691,1569.691626,-9724.431046
442.924864,363.709035,2450.250342,-9303.294269
442.927483,-114.855485,-440.279358,-9934.999435
442.930102,574.277424,1646.261949,-9303.294269
442.932721,631.705166,842.273555,-9724.431046
442.935341,133.998066,976.271621,-9705.288466
442.937960,861.416136,-401.994197,-10049.854920
442.940579,669.990328,2316.252277,-9265.009107
442.943198,287.138712,1454.836141,-9379.864592
442.945817,191.425808,1071.984525,-9858.429112
442.948436,459.421939,1818.545176,-9552.147819
442.951055,478.564520,2373.680019,-9437.292334
442.953674,210.568389,-76.570323,-9781.858789
442.956293,689.132909,1397.408398,-9226.723946
442.958913,535.992262,880.558717,-10011.569758
442.961532,57.427742,459.421939,-10068.997501
442.964151,746.560651,1148.554848,-9092.725880
442.966769,535.992262,612.562586,-9399.007173
442.969387,133.998066,803.988394,-9801.001370
442.972004,497.707101,1148.554848,-9705.288466
442.974622,937.986459,1627.119368,-9590.432981
442.977240,229.710970,1531.406464,-9494.720077
442.979858,-172.283227,2105.683888,-9437.292334
442.982476,1473.978722,2852.244539,-9628.718142
442.985094,229.710970,1033.699363,-10107.282662
442.987712,-325.423874,5723.631659,-8843.872330
442.990330,689.132909,114.855485,-9915.856854
442.992947,1550.549045,995.414202,-9724.431046
442.995565,-842.273555,880.558717,-9590.432981
442.998183,1186.840010,4575.076811,-8939.585234
443.000801,-19.142581,-2890.529701,-10394.421374
443.003419,899.701298,574.277424,-9475.577496
443.006037,708.275490,1875.972918,-9073.583299
443.008655,-95.712904,-4115.654872,-10853.843314
443.011273,765.703232,1129.412267,-9341.579430
443.013891,593.420005,0.000000,-9801.001370
443.016508,612.562586,-1014.556782,-10068.997501
443.019126,574.277424,918.843878,-9399.007173
443.021744,-229.710970,1320.838075,-9973.284597
443.024362,669.990328,708.275490,-9533.005238
443.026980,1205.982590,-267.996131,-9801.001370
443.029598,-669.990328,-708.275490,-9934.999435
443.032216,574.277424,210.568389,-9628.718142
443.034834,1167.697429,-248.853550,-9877.571693
443.037452,19.142581,-976.271621,-9839.286531
443.040069,516.849682,1378.265818,-9762.716208
443.042687,803.988394,421.136778,-9839.286531
443.045305,-210.568389,957.129040,-9265.009107
443.047923,976.271621,1129.412267,-9475.577496
443.050541,995.414202,689.132909,-9915.856854
443.053159,-38.285162,1071.984525,-9724.431046
443.055777,478.564520,306.281293,-9647.860723
443.058395,287.138712,497.707101,-9820.143950
443.061013,689.132909,0.000000,-9762.716208
443.063630,-287.138712,-57.427742,-9915.856854
443.066248,593.420005,-1110.269686,-10049.854920
443.068866,1225.125171,229.710970,-9571.290400
443.071481,-95.712904,-1071.984525,-9839.286531
443.074097,325.423874,-1875.972918,-10164.710405
443.076712,899.701298,172.283227,-9609.575562
443.079327,229.710970,-1263.410333,-9934.999435
443.081942,57.427742,-1052.841944,-10030.712339
443.084558,899.701298,-2871.387120,-10279.565890
443.087173,-746.560651,4996.213589,-8863.014910
443.089788,2622.533570,-1014.556782,-10049.854920
443.092403,-1550.549045,4077.369710,-9628.718142
443.095018,1818.545176,2277.967115,-9437.292334
443.097634,76.570323,1875.972918,-9743.573627
443.100249,382.851616,1761.117434,-10068.997501
443.102864,1129.412267,3177.668413,-9035.298138
443.105479,669.990328,-516.849682,-10049.854920
443.108095,248.853550,-880.558717,-9934.999435
443.110710,-57.427742,1110.269686,-9494.720077
443.113325,1397.408398,765.703232,-9954.142016
443.115940,114.855485,382.851616,-9820.143950
443.118555,574.277424,1473.978722,-9647.860723
443.121171,440.279358,1780.260014,-9705.288466
443.123786,401.994197,2469.392923,-9590.432981
443.126401,593.420005,1780.260014,-9724.431046
443.129016,669.990328,516.849682,-9934.999435
443.131632,-153.140646,631.705166,-9686.145885
443.134247,478.564520,957.129040,-9628.718142
443.136862,593.420005,746.560651,-9992.427178
443.139477,459.421939,708.275490,-9628.718142
443.142092,210.568389,803.988394,-9399.007173
443.144708,612.562586,478.564520,-9762.716208
443.147323,440.279358,1454.836141,-9820.143950
443.149938,-57.427742,1110.269686,-9743.573627
443.152553,765.703232,1971.685822,-9513.862658
443.155169,-133.998066,1722.832272,-9590.432981
443.157784,1071.984525,3751.945837,-9360.722011
443.160399,478.564520,1205.982590,-9724.431046
443.163014,765.703232,2737.389054,-9571.290400
443.165629,-669.990328,3273.381317,-9245.866526
443.168245,1761.117434,2009.970984,-9552.147819
443.170860,-363.709035,-382.851616,-9896.714274
443.173475,-229.710970,210.568389,-10164.710405
443.176088,2431.107762,1856.830338,-9284.151688
443.178701,-497.707101,-3637.090352,-10317.851051
443.181314,1282.552914,2545.963246,-9111.868461
443.183926,191.425808,19.142581,-9360.722011
443.186539,1301.695494,-1378.265818,-10145.567824
443.189152,669.990328,153.140646,-9590.432981
443.191765,-516.849682,1167.697429,-9762.716208
443.194378,325.423874,57.427742,-9628.718142
443.196991,631.705166,1397.408398,-9533.005238
443.199604,248.853550,363.709035,-9743.573627
443.202216,1263.410333,459.421939,-9494.720077
443.204829,-421.136778,-172.283227,-10107.282662
443.207442,784.845813,-421.136778,-9590.432981
443.210055,612.562586,-95.712904,-9628.718142
443.212668,555.134843,1110.269686,-9437.292334
443.215281,287.138712,631.705166,-9724.431046
443.217893,459.421939,-306.281293,-9973.284597
443.220506,669.990328,1454.836141,-9284.151688
443.223119,440.279358,-95.712904,-10107.282662
443.225732,516.849682,1244.267752,-9724.431046
443.228345,555.134843,689.132909,-9628.718142
443.230958,-57.427742,-421.136778,-9934.999435
443.233570,459.421939,1301.695494,-9590.432981
443.236183,1071.984525,-650.847747,-9954.142016
443.238796,-153.140646,-95.712904,-9724.431046
443.241409,1186.840010,-1837.687757,-9877.571693
443.244022,574.277424,727.418070,-9552.147819
443.246635,267.996131,-3464.807125,-10413.563955
443.249248,-689.132909,-172.283227,-9513.862658
443.251860,1875.972918,842.273555,-9475.577496
443.254473,-593.420005,535.992262,-9647.860723
443.257086,784.845813,-4134.797453,-10547.562021
443.259699,-1129.412267,4421.936165,-9092.725880
443.262312,-363.709035,2775.674216,-9667.003304
443.264925,2086.541307,803.988394,-9705.288466
443.267537,-1071.984525,5685.346498,-8863.014910
443.270150,1569.691626,1875.972918,-9513.862658
443.272763,-210.568389,1780.260014,-9705.288466
443.275376,344.566454,1416.550979,-9513.862658
443.277989,976.271621,1167.697429,-9399.007173
443.280600,555.134843,-976.271621,-9934.999435
443.283211,-57.427742,669.990328,-9475.577496
443.285822,937.986459,459.421939,-10011.569758
443.288433,-38.285162,1205.982590,-9609.575562
443.291044,631.705166,1761.117434,-9360.722011
443.293655,593.420005,2297.109696,-9743.573627
443.296266,344.566454,669.990328,-9858.429112
443.298877,382.851616,2565.105827,-9360.722011
443.301488,516.849682,-478.564520,-10030.712339
443.304099,306.281293,1244.267752,-9360.722011
443.306710,784.845813,1167.697429,-9839.286531
443.309321,459.421939,-287.138712,-10088.140082
443.311932,344.566454,1856.830338,-9226.723946
443.314543,114.855485,478.564520,-9801.001370
443.317154,708.275490,612.562586,-9915.856854
443.319765,344.566454,2201.396792,-9494.720077
443.322376,363.709035,1186.840010,-9801.001370
443.324987,1339.980656,1454.836141,-9686.145885
443.327598,-210.568389,3139.383251,-9418.149754
443.330209,114.855485,2105.683888,-9494.720077
443.332820,1167.697429,1761.117434,-9973.284597
443.335431,-133.998066,3828.516160,-9226.723946
443.338042,1397.408398,2545.963246,-9418.149754
443.340653,995.414202,3579.662610,-9092.725880
443.343264,-593.420005,-3177.668413,-10413.563955
443.345875,1588.834206,1703.689691,-9399.007173
443.348486,-287.138712,-2718.246474,-10126.425243
443.351097,861.416136,-1531.406464,-10260.423309
443.353708,-421.136778,1205.982590,-9092.725880
443.356319,1110.269686,-1550.549045,-10298.708470
443.358930,1148.554848,-1684.547110,-10126.425243
443.361541,76.570323,2239.681954,-9360.722011
443.364152,248.853550,229.710970,-10068.997501
443.366763,593.420005,937.986459,-9456.434915
443.369374,631.705166,612.562586,-9801.001370
443.371985,765.703232,-114.855485,-9513.862658
443.374596,153.140646,287.138712,-9839.286531
443.377207,765.703232,172.283227,-9820.143950
443.379818,1186.840010,-823.130974,-9820.143950
443.382429,133.998066,1435.693560,-9628.718142
443.385037,306.281293,650.847747,-9877.571693
443.387644,727.418070,248.853550,-9724.431046
443.390252,440.279358,1416.550979,-9303.294269
443.392860,555.134843,746.560651,-9896.714274
443.395468,325.423874,210.568389,-10068.997501
443.398075,133.998066,1033.699363,-9322.436850
443.400683,593.420005,-114.855485,-9820.143950
443.403291,459.421939,-459.421939,-10145.567824
443.405899,823.130974,1473.978722,-9571.290400
443.408507,-267.996131,-3043.670347,-10202.995566
443.411114,172.283227,478.564520,-9494.720077
443.413722,1205.982590,-1665.404530,-10049.854920
443.416330,-746.560651,-2565.105827,-10202.995566
443.418938,1665.404530,-172.283227,-9724.431046
443.421545,57.427742,2335.394858,-9399.007173
443.424153,957.129040,-1895.115499,-9973.284597
443.426761,2086.541307,19.142581,-9667.003304
443.429369,-1990.828403,4517.649069,-9494.720077
443.431976,2105.683888,248.853550,-9781.858789
443.434584,-899.701298,4804.787781,-9092.725880
443.437192,899.701298,2526.820666,-9647.860723
443.439800,555.134843,2488.535504,-9111.868461
443.442408,172.283227,363.709035,-9934.999435
443.445015,535.992262,1033.699363,-9590.432981
443.447623,516.849682,-612.562586,-9934.999435
443.450231,95.712904,-172.283227,-9762.716208
443.452839,937.986459,1052.841944,-9571.290400
443.455446,306.281293,1071.984525,-9590.432981
443.458054,516.849682,1684.547110,-9456.434915
443.460662,363.709035,1684.547110,-9801.001370
443.463270,516.849682,2756.531635,-9303.294269
443.465878,746.560651,478.564520,-9762.716208
443.468485,363.709035,-76.570323,-9781.858789
443.471093,382.851616,1990.828403,-9207.581365
443.473701,803.988394,-344.566454,-10375.278794
443.476309,497.707101,1225.125171,-9322.436850
443.478916,114.855485,1339.980656,-9245.866526
443.481524,344.566454,-95.712904,-10011.569758
443.484132,612.562586,2354.537438,-9456.434915
443.486740,248.853550,1416.550979,-9762.716208
443.489345,1186.840010,1990.828403,-9533.005238
443.491950,344.566454,2392.822600,-9456.434915
443.494555,-401.994197,3790.230998,-9303.294269
443.497160,1205.982590,1378.265818,-9858.429112
443.499765,727.418070,2871.387120,-9647.860723
443.502370,478.564520,3292.523898,-9494.720077
443.504976,1282.552914,4709.074877,-8633.303941
443.507581,133.998066,-2909.672282,-10413.563955
443.510186,669.990328,861.416136,-9533.005238
443.512791,38.285162,-1454.836141,-9820.143950
443.515396,382.851616,-3120.240670,-10547.562021
443.518001,-287.138712,1473.978722,-8997.012976
443.520606,1339.980656,-1359.123237,-10068.997501
443.523212,1473.978722,-861.416136,-9896.714274
443.525817,-306.281293,2048.256146,-9686.145885
443.528422,210.568389,-210.568389,-10011.569758
443.531027,727.418070,1014.556782,-9322.436850
443.533632,976.271621,1129.412267,-9686.145885
443.536237,114.855485,-325.423874,-9667.003304
443.538842,746.560651,-229.710970,-9667.003304
443.541448,593.420005,-421.136778,-9820.143950
443.544053,459.421939,-306.281293,-9705.288466
443.546658,689.132909,1416.550979,-9724.431046
443.549263,210.568389,133.998066,-9973.284597
443.551868,421.136778,478.564520,-9571.290400
443.554473,880.558717,708.275490,-9647.860723
443.557079,-133.998066,267.996131,-10317.851051
443.559684,210.568389,1627.119368,-9418.149754
443.562289,1129.412267,-133.998066,-9399.007173
443.564894,248.853550,0.000000,-9877.571693
443.567499,267.996131,-76.570323,-9839.286531
443.570104,401.994197,-1741.974853,-10183.852986
443.572709,803.988394,957.129040,-9533.005238
443.575315,325.423874,-3732.803256,-10088.140082
443.577920,-708.275490,-727.418070,-9743.573627
443.580525,1933.400661,-133.998066,-9724.431046
443.583130,-114.855485,2794.816797,-9303.294269
443.585735,784.845813,-2584.248408,-10222.138147
443.588340,631.705166,1990.828403,-9360.722011
443.590945,-267.996131,2794.816797,-9513.862658
443.593548,1837.687757,1148.554848,-9762.716208
443.596151,-1091.127106,6336.194245,-9016.155557
443.598753,1550.549045,2316.252277,-9533.005238
443.601356,-440.279358,1091.127106,-9915.856854
443.603959,421.136778,2565.105827,-9207.581365
443.606561,823.130974,880.558717,-9552.147819
443.609164,421.136778,-612.562586,-10145.567824
443.611767,95.712904,267.996131,-9513.862658
443.614369,593.420005,76.570323,-9858.429112
443.616972,574.277424,1646.261949,-9552.147819
443.619575,267.996131,1339.980656,-9590.432981
443.622177,382.851616,1148.554848,-9992.427178
443.624780,497.707101,3617.947771,-9226.723946
443.627383,669.990328,114.855485,-9992.427178
443.629985,306.281293,363.709035,-9399.007173
443.632588,191.425808,2009.970984,-9647.860723
443.635191,650.847747,-267.996131,-10413.563955
443.637793,191.425808,1607.976787,-9341.579430
443.640396,555.134843,612.562586,-9667.003304
443.642998,287.138712,421.136778,-9762.716208
443.645601,363.709035,2239.681954,-9456.434915
443.648204,995.414202,382.851616,-10183.852986
443.650806,-114.855485,3483.949706,-9379.864592
443.653409,593.420005,1052.841944,-9533.005238
443.656012,1071.984525,1990.828403,-9705.288466
443.658614,-574.277424,4402.793584,-9245.866526
443.661217,1569.691626,3081.955509,-9494.720077
443.663820,-459.421939,421.136778,-10068.997501
443.666422,-306.281293,38.285162,-10030.712339
443.669025,2507.678085,1550.549045,-9054.440718
443.671628,-669.990328,-4019.941968,-10528.419440
443.674230,1320.838075,2048.256146,-9456.434915
443.676833,306.281293,-3254.238736,-10222.138147
443.679436,1110.269686,-2182.254211,-9896.714274
443.682038,248.853550,114.855485,-9513.862658
443.684641,-574.277424,497.707101,-9877.571693
443.687244,1014.556782,689.132909,-9667.003304
443.689846,593.420005,2029.113565,-9571.290400
443.692449,191.425808,746.560651,-9590.432981
443.695052,708.275490,1186.840010,-9303.294269
443.697613,191.425808,-1148.554848,-10336.993632
443.700174,516.849682,325.423874,-9552.147819
443.702735,593.420005,-612.562586,-9915.856854
443.705296,803.988394,516.849682,-9456.434915
443.707857,612.562586,1110.269686,-9628.718142
443.710418,306.281293,172.283227,-9667.003304
443.712979,784.845813,1014.556782,-9322.436850
443.715540,363.709035,765.703232,-10260.423309
443.718101,363.709035,440.279358,-9934.999435
443.720662,574.277424,918.843878,-9226.723946
443.723224,344.566454,-229.710970,-9781.858789
443.725785,1339.980656,440.279358,-9705.288466
443.728346,-76.570323,-861.416136,-9992.427178
443.730907,210.568389,-708.275490,-9973.284597
443.733468,861.416136,38.285162,-9169.296203
443.736029,229.710970,-2411.965181,-9992.427178
443.738590,650.847747,-2947.957443,-10394.421374
443.741151,497.707101,1205.982590,-9552.147819
443.743712,76.570323,1493.121302,-9494.720077
443.746273,2297.109696,-229.710970,-9686.145885
443.748834,-2163.111630,4613.361973,-9341.579430
443.751396,1933.400661,440.279358,-9647.860723
443.753957,-746.560651,5455.635528,-9092.725880
443.756518,1071.984525,3407.379382,-9724.431046
443.759079,1531.406464,2947.957443,-8843.872330
443.761640,-363.709035,-555.134843,-10088.140082
443.764201,191.425808,1014.556782,-9475.577496
443.766762,689.132909,-306.281293,-9954.142016
443.769323,248.853550,-172.283227,-9839.286531
443.771884,784.845813,746.560651,-9456.434915
443.774445,535.992262,1225.125171,-9475.577496
443.777006,325.423874,2201.396792,-9437.292334
443.779568,746.560651,2009.970984,-9820.143950
443.782129,784.845813,823.130974,-9915.856854
443.784690,229.710970,401.994197,-9475.577496
443.787251,612.562586,1071.984525,-9360.722011
443.789812,823.130974,306.281293,-9954.142016
443.792373,153.140646,1301.695494,-9992.427178
443.794934,593.420005,708.275490,-9399.007173
443.797495,287.138712,823.130974,-9437.292334
443.800061,0.000000,1952.543242,-9513.862658
443.802628,1493.121302,918.843878,-9839.286531
443.805194,19.142581,2603.390989,-9724.431046
443.807760,-535.992262,2947.957443,-9360.722011
443.810326,1225.125171,1856.830338,-9590.432981
443.812892,-593.420005,4402.793584,-9322.436850
443.815459,1531.406464,3445.664544,-9437.292334
443.818025,-248.853550,918.843878,-9858.429112
443.820591,-574.277424,114.855485,-10126.425243
443.823157,1722.832272,2163.111630,-8901.300072
443.825724,-210.568389,-3885.943902,-10279.565890
443.828290,689.132909,-1091.127106,-10183.852986
443.830856,-325.423874,-38.285162,-9265.009107
443.833422,1569.691626,-2718.246474,-10222.138147
443.835988,76.570323,-114.855485,-9628.718142
443.838555,-612.562586,267.996131,-9896.714274
443.841121,1339.980656,708.275490,-9647.860723
443.843687,344.566454,2182.254211,-9609.575562
443.846253,267.996131,516.849682,-9743.573627
443.848820,344.566454,1282.552914,-9399.007173
443.851386,172.283227,-287.138712,-9973.284597
443.853952,363.709035,-1397.408398,-9839.286531
443.856518,459.421939,287.138712,-9609.575562
443.859084,708.275490,-153.140646,-9858.429112
443.861651,344.566454,2086.541307,-9399.007173
443.864217,191.425808,-363.709035,-10049.854920
443.866783,669.990328,1167.697429,-9054.440718
443.869349,574.277424,765.703232,-9896.714274
443.871916,267.996131,153.140646,-10260.423309
443.874482,382.851616,784.845813,-9245.866526
443.877048,937.986459,-38.285162,-9628.718142
443.879614,248.853550,-1320.838075,-9954.142016
443.882180,-38.285162,-535.992262,-9781.858789
443.884747,1129.412267,-1052.841944,-10068.997501
443.887313,-593.420005,-3062.812928,-10068.997501
443.889879,1473.978722,-976.271621,-9571.290400
443.892445,153.140646,2392.822600,-9341.579430
443.895012,937.986459,-2737.389054,-10375.278794
443.897578,535.992262,2029.113565,-9533.005238
443.900144,-1818.545176,4747.360038,-9399.007173
443.902715,2124.826469,76.570323,-9762.716208
443.905285,-1014.556782,5398.207786,-8920.442653
443.907856,976.271621,3809.373579,-9590.432981
443.910427,382.851616,1837.687757,-9418.149754
443.912997,133.998066,1359.123237,-9609.575562
443.915568,1205.982590,421.136778,-9494.720077
443.918139,325.423874,-861.416136,-10068.997501
443.920709,-114.855485,1110.269686,-9418.149754
443.923280,631.705166,650.847747,-9801.001370
443.925851,421.136778,1148.554848,-9552.147819
443.928421,325.423874,1033.699363,-9475.577496
443.930992,363.709035,2354.537438,-9762.716208
443.933563,918.843878,2450.250342,-9475.577496
443.936133,421.136778,-287.138712,-9762.716208
443.938704,382.851616,229.710970,-9513.862658
443.941275,-19.142581,1359.123237,-9686.145885
443.943845,918.843878,382.851616,-10202.995566
443.946416,899.701298,1225.125171,-9188.438784
443.948987,497.707101,574.277424,-9590.432981
443.951557,19.142581,1129.412267,-9820.143950
443.954128,803.988394,3120.240670,-9418.149754
443.956699,1416.550979,784.845813,-9896.714274
443.959269,-612.562586,4728.217458,-9016.155557
443.961840,114.855485,2182.254211,-9724.431046
443.964411,2086.541307,1722.832272,-9839.286531
443.966981,-497.707101,2890.529701,-9686.145885
443.969552,1071.984525,5187.639397,-8709.874264
443.972123,-76.570323,-2622.533570,-10317.851051
443.974693,-497.707101,-976.271621,-9934.999435
443.977264,535.992262,612.562586,-9303.294269
443.979835,-114.855485,-5474.778109,-11102.696864
443.982405,57.427742,727.418070,-9131.011042
443.984976,1033.699363,-593.420005,-9647.860723
443.987547,1684.547110,-2335.394858,-10107.282662
443.990117,-937.986459,1952.543242,-9399.007173
443.992688,689.132909,-555.134843,-10260.423309
443.995259,478.564520,2316.252277,-9226.723946
443.997829,803.988394,899.701298,-9705.288466
444.000400,19.142581,153.140646,-9762.716208
444.002971,401.994197,-133.998066,-9781.858789
444.005510,669.990328,-899.701298,-10126.425243
444.008049,516.849682,382.851616,-9475.577496
444.010589,708.275490,267.996131,-9781.858789
444.013128,516.849682,899.701298,-9724.431046
444.015667,114.855485,287.138712,-9896.714274
444.018206,612.562586,957.129040,-9533.005238
444.020746,535.992262,191.425808,-9705.288466
444.023285,153.140646,669.990328,-9820.143950
444.025824,1167.697429,478.564520,-9475.577496
444.028363,459.421939,-401.994197,-9667.003304
444.030903,-363.709035,-1646.261949,-10107.282662
444.033442,1052.841944,-382.851616,-9628.718142
444.035981,-459.421939,-3158.525832,-10298.708470
444.038520,1359.123237,-2182.254211,-10030.712339
444.041060,57.427742,2775.674216,-9245.866526
444.043599,765.703232,-1933.400661,-10107.282662
444.046138,995.414202,1052.841944,-9552.147819
444.048677,-784.845813,3388.236802,-9188.438784
444.051217,1971.685822,57.427742,-9934.999435
444.053756,-861.416136,5474.778109,-8997.012976
444.056295,957.129040,4307.080680,-9513.862658
444.058834,267.996131,2201.396792,-9131.011042
444.061374,133.998066,1588.834206,-9743.573627
444.063913,957.129040,114.855485,-9743.573627
444.066452,248.853550,-516.849682,-9915.856854
444.068991,-38.285162,765.703232,-9571.290400
444.071531,918.843878,-229.710970,-9896.714274
444.074070,38.285162,1512.263883,-9533.005238
444.076609,287.138712,2737.389054,-9265.009107
444.079148,650.847747,995.414202,-9992.427178
444.081688,57.427742,2201.396792,-9533.005238
444.084227,267.996131,-248.853550,-9724.431046
444.086766,631.705166,1148.554848,-9399.007173
444.089305,325.423874,1148.554848,-9877.571693
444.091845,459.421939,803.988394,-10107.282662
444.094384,612.562586,1148.554848,-9169.296203
444.096923,-76.570323,899.701298,-9456.434915
444.099462,861.416136,1320.838075,-9647.860723
444.102002,1148.554848,1244.267752,-9973.284597
444.104541,-669.990328,3866.801322,-9399.007173
444.107089,1071.984525,1512.263883,-9533.005238
444.109637,784.845813,3292.523898,-9303.294269
444.112185,593.420005,4441.078746,-9418.149754
444.114733,440.279358,2105.683888,-9743.573627
444.117281,-1014.556782,-1244.267752,-10490.134278
444.119829,1875.972918,2660.818731,-8882.157491
444.122377,-497.707101,-4230.510357,-10336.993632
444.124925,1263.410333,38.285162,-10451.849117
444.127473,-401.994197,899.701298,-9245.866526
444.130022,1378.265818,-2909.672282,-10394.421374
444.132570,669.990328,-593.420005,-9686.145885
444.135118,-823.130974,248.853550,-9705.288466
444.137666,1148.554848,401.994197,-9801.001370
444.140214,440.279358,2239.681954,-9494.720077
444.142762,267.996131,593.420005,-9992.427178
444.145310,765.703232,1799.402595,-9265.009107
444.147858,248.853550,-363.709035,-10068.997501
444.150406,459.421939,-1990.828403,-10183.852986
444.152954,229.710970,669.990328,-9494.720077
444.155502,995.414202,-153.140646,-9839.286531
444.158050,497.707101,1263.410333,-9609.575562
444.160598,-133.998066,325.423874,-9992.427178
444.163146,1148.554848,267.996131,-9399.007173
444.165694,267.996131,842.273555,-9705.288466
444.168242,153.140646,133.998066,-10107.282662
444.170790,918.843878,-574.277424,-9801.001370
444.173338,689.132909,1359.123237,-9188.438784
444.175887,-38.285162,-3196.810994,-10202.995566
444.178435,57.427742,-267.996131,-9686.145885
444.180983,1282.552914,-267.996131,-9762.716208
444.183531,708.275490,-3924.229064,-10585.847182
444.186079,478.564520,-1607.976787,-9820.143950
444.188635,-382.851616,2239.681954,-9188.438784
444.191190,2182.254211,-1071.984525,-9896.714274
444.193746,-1646.261949,5513.063270,-9169.296203
444.196302,1895.115499,803.988394,-10107.282662
444.198858,669.990328,1914.258080,-9552.147819
444.201414,287.138712,3158.525832,-9705.288466
444.203969,1741.974853,3732.803256,-8863.014910
444.206525,-421.136778,172.283227,-10011.569758
444.209081,229.710970,899.701298,-9705.288466
444.211637,976.271621,-19.142581,-9475.577496
444.214192,918.843878,-995.414202,-10202.995566
444.216748,76.570323,1071.984525,-9437.292334
444.219304,631.705166,2411.965181,-9533.005238
444.221860,440.279358,133.998066,-10088.140082
444.224416,287.138712,1971.685822,-9513.862658
444.226971,727.418070,2239.681954,-9552.147819
444.229527,363.709035,-306.281293,-9781.858789
444.232083,191.425808,1205.982590,-9303.294269
444.234639,861.416136,995.414202,-9801.001370
444.237195,516.849682,899.701298,-9992.427178
444.239750,-287.138712,1799.402595,-9092.725880
444.242306,1244.267752,1837.687757,-9226.723946
444.244862,1033.699363,784.845813,-10068.997501
444.247418,-478.564520,4364.508422,-9379.864592
444.249973,937.986459,1378.265818,-10011.569758
444.252529,478.564520,3215.953574,-9360.722011
444.255085,765.703232,4575.076811,-8958.727814
444.257641,95.712904,1875.972918,-9667.003304
444.260197,-746.560651,-976.271621,-10662.417506
444.262752,1741.974853,3120.240670,-8958.727814
444.265308,-267.996131,-3426.521963,-9992.427178
444.267864,842.273555,-2622.533570,-10260.423309
444.270420,-325.423874,1359.123237,-8958.727814
444.272976,1722.832272,-3522.234867,-10624.132344
444.275531,-76.570323,-306.281293,-9915.856854
444.278087,-382.851616,-267.996131,-9801.001370
444.280643,1225.125171,363.709035,-9494.720077
444.283199,19.142581,2086.541307,-9475.577496
444.285754,689.132909,344.566454,-9877.571693
444.288310,516.849682,574.277424,-9724.431046
444.290872,306.281293,229.710970,-9877.571693
444.293433,497.707101,631.705166,-9284.151688
444.295994,880.558717,-784.845813,-9801.001370
444.298555,325.423874,535.992262,-9954.142016
444.301117,325.423874,1129.412267,-9628.718142
444.303678,421.136778,459.421939,-9781.858789
444.306239,976.271621,267.996131,-9341.579430
444.308800,172.283227,535.992262,-9801.001370
444.311362,899.701298,765.703232,-9954.142016
444.313923,478.564520,325.423874,-9533.005238
444.316484,-497.707101,-1052.841944,-9858.429112
444.319045,1091.127106,-555.134843,-9475.577496
444.321607,-631.705166,-3445.664544,-10432.706536
444.324168,1263.410333,-1512.263883,-9973.284597
444.326729,421.136778,2392.822600,-9150.153622
444.329291,1014.556782,-3751.945837,-10375.278794
444.331852,191.425808,1512.263883,-9360.722011
444.334413,95.712904,1761.117434,-9743.573627
444.336974,2354.537438,-287.138712,-10145.567824
444.339536,-1052.841944,6240.481341,-8920.442653
444.342097,803.988394,4670.789715,-9322.436850
444.344658,-38.285162,1875.972918,-9360.722011
444.347219,976.271621,2411.965181,-9552.147819
444.349781,1033.699363,-421.136778,-9820.143950
444.352342,-325.423874,746.560651,-9896.714274
444.354903,344.566454,1091.127106,-9418.149754
444.357464,957.129040,-1110.269686,-10107.282662
444.360026,-76.570323,1607.976787,-9341.579430
444.362587,363.709035,1320.838075,-9456.434915
444.365148,689.132909,421.136778,-10202.995566
444.367710,363.709035,3369.094221,-9169.296203
444.370271,823.130974,133.998066,-9820.143950
444.372832,191.425808,-459.421939,-9513.862658
444.375393,267.996131,2163.111630,-9360.722011
444.377955,823.130974,306.281293,-10451.849117
444.380516,-19.142581,1320.838075,-9686.145885
444.383077,1091.127106,2431.107762,-8958.727814
444.385638,784.845813,229.710970,-9705.288466
444.388200,-669.990328,4383.651003,-9475.577496
444.390761,746.560651,2124.826469,-9934.999435
444.393327,1301.695494,1952.543242,-9781.858789
444.395893,440.279358,4747.360038,-8920.442653
444.398459,535.992262,3330.809059,-9073.583299
444.401025,-689.132909,-1397.408398,-10566.704602
444.403590,1799.402595,2871.387120,-9265.009107
444.406156,-516.849682,-4096.512291,-10509.276859
444.408722,727.418070,-325.423874,-9724.431046
444.411288,153.140646,-1071.984525,-9303.294269
444.413854,1722.832272,-3158.525832,-10470.991698
444.416420,459.421939,-1205.982590,-10088.140082
444.418986,-516.849682,95.712904,-9858.429112
444.421552,1339.980656,19.142581,-9667.003304
444.424118,153.140646,1818.545176,-9303.294269
444.426684,574.277424,459.421939,-9781.858789
444.429250,478.564520,2392.822600,-9513.862658
444.431815,421.136778,-957.129040,-10356.136213
444.434381,-382.851616,689.132909,-9437.292334
444.436947,995.414202,-114.855485,-9609.575562
444.439513,708.275490,229.710970,-9743.573627
444.442079,344.566454,1244.267752,-9801.001370
444.444645,76.570323,516.849682,-10011.569758
444.447211,650.847747,535.992262,-9322.436850
444.449777,363.709035,957.129040,-9379.864592
444.452343,229.710970,-957.129040,-10164.710405
444.454909,1263.410333,765.703232,-9647.860723
444.457475,-133.998066,-2067.398726,-10068.997501
444.460041,95.712904,-574.277424,-9494.720077
444.462606,1435.693560,-478.564520,-9245.866526
444.465172,114.855485,-1588.834206,-10164.710405
444.467738,746.560651,-5321.637462,-10777.272990
444.470304,-1033.699363,3254.238736,-9073.583299
444.472870,2660.818731,-1722.832272,-10107.282662
444.475436,-1301.695494,4555.934230,-9226.723946
444.478002,1397.408398,3943.371645,-9571.290400
444.480568,593.420005,2086.541307,-9839.286531
444.483134,421.136778,4421.936165,-9667.003304
444.485700,1473.978722,3751.945837,-8709.874264
444.488266,-344.566454,746.560651,-9839.286531
444.490831,153.140646,1359.123237,-9647.860723
444.493397,746.560651,-287.138712,-9801.001370
444.495937,421.136778,-669.990328,-10279.565890
444.498477,478.564520,1301.695494,-9169.296203
444.501016,976.271621,1550.549045,-9418.149754
444.503556,57.427742,114.855485,-10068.997501
444.506096,344.566454,1837.687757,-9743.573627
444.508636,612.562586,1780.260014,-9590.432981
444.511176,172.283227,478.564520,-9647.860723
444.513716,497.707101,535.992262,-9245.866526
444.516256,880.558717,976.271621,-9877.571693
444.518796,-191.425808,478.564520,-10164.710405
444.521335,497.707101,2622.533570,-8997.012976
444.523875,1627.119368,631.705166,-9513.862658
444.526415,-631.705166,3464.807125,-9513.862658
444.528955,497.707101,1627.119368,-9705.288466
444.531495,1416.550979,2967.100024,-9705.288466
444.534035,459.421939,4689.932296,-9379.864592
444.536575,210.568389,3139.383251,-9111.868461
444.539115,-76.570323,-2124.826469,-10432.706536
444.541654,1531.406464,2986.242605,-9207.581365
444.544194,-401.994197,-2909.672282,-10164.710405
444.546734,421.136778,-3158.525832,-10509.276859
444.549274,-133.998066,1301.695494,-8901.300072
444.551814,1933.400661,-3694.518094,-10356.136213
444.554354,-95.712904,-746.560651,-9781.858789
444.556894,-401.994197,-1052.841944,-10164.710405
444.559434,1416.550979,1033.699363,-9609.575562
444.561974,267.996131,803.988394,-9533.005238
444.564513,535.992262,899.701298,-9743.573627
444.567053,421.136778,899.701298,-9571.290400
444.569593,76.570323,708.275490,-10183.852986
444.572133,421.136778,1205.982590,-9456.434915
444.574673,899.701298,-842.273555,-9762.716208
444.577213,-19.142581,57.427742,-9686.145885
444.579753,421.136778,1684.547110,-9456.434915
444.582293,363.709035,-248.853550,-10164.710405
444.584832,114.855485,1091.127106,-9322.436850
444.587372,976.271621,19.142581,-9686.145885
444.589912,1033.699363,172.283227,-9724.431046
444.592452,-325.423874,-957.129040,-9896.714274
444.594992,937.986459,210.568389,-9552.147819
444.597540,172.283227,-2048.256146,-9877.571693
444.600088,689.132909,-4000.799387,-10509.276859
444.602636,-459.421939,1665.404530,-9379.864592
444.605184,1531.406464,-1722.832272,-9858.429112
444.607732,1110.269686,-229.710970,-9781.858789
444.610280,-1091.127106,3311.666478,-9322.436850
444.612828,2545.963246,-803.988394,-10183.852986
444.615376,-612.562586,4881.358104,-9150.153622
444.617924,708.275490,5723.631659,-9360.722011
444.620472,-287.138712,1990.828403,-9399.007173
444.623020,823.130974,2584.248408,-9513.862658
444.625568,1110.269686,287.138712,-9609.575562
444.628116,669.990328,191.425808,-9628.718142
444.630664,172.283227,478.564520,-9934.999435
444.633212,918.843878,-708.275490,-9858.429112
444.635760,95.712904,1473.978722,-9360.722011
444.638308,325.423874,1531.406464,-9265.009107
444.640856,976.271621,995.414202,-10030.712339
444.643404,325.423874,2316.252277,-9513.862658
444.645952,535.992262,478.564520,-9686.145885
444.648500,382.851616,153.140646,-9494.720077
444.651048,574.277424,1454.836141,-9628.718142
444.653596,727.418070,229.710970,-10490.134278
444.656144,153.140646,2182.254211,-9399.007173
444.658692,1052.841944,937.986459,-9418.149754
444.661240,593.420005,3196.810994,-9341.579430
444.663788,-555.134843,2890.529701,-9647.860723
444.666336,2029.113565,1607.976787,-9934.999435
444.668884,-287.138712,3522.234867,-9552.147819
444.671432,784.845813,5685.346498,-8518.448456
444.673980,-133.998066,-1818.545176,-10088.140082
444.676528,-133.998066,1033.699363,-9724.431046
444.679076,325.423874,287.138712,-9513.862658
444.681624,-95.712904,-5321.637462,-11121.839445
444.684172,-574.277424,1205.982590,-8977.870395
444.686720,1799.402595,-2258.824534,-9743.573627
444.689268,1416.550979,-1837.687757,-10107.282662
444.691816,-1359.123237,-344.566454,-9934.999435
444.694364,1110.269686,153.140646,-9973.284597
444.696912,401.994197,1244.267752,-9322.436850
444.699467,555.134843,669.990328,-9513.862658
444.702022,-76.570323,229.710970,-9801.001370
444.704577,535.992262,2124.826469,-9628.718142
444.707132,861.416136,-803.988394,-10068.997501
444.709687,287.138712,306.281293,-9475.577496
444.712242,325.423874,-153.140646,-9667.003304
444.714796,421.136778,1550.549045,-9437.292334
444.717351,344.566454,229.710970,-9934.999435
444.719906,1014.556782,1167.697429,-9494.720077
444.722461,191.425808,784.845813,-9571.290400
444.725016,689.132909,-631.705166,-9839.286531
444.727571,1531.406464,-784.845813,-9533.005238
444.730126,-650.847747,-2220.539373,-10317.851051
444.732681,1493.121302,-976.271621,-10049.854920
444.735235,-172.283227,1378.265818,-9188.438784
444.737790,784.845813,-6068.198114,-10719.845248
444.740345,-880.558717,2105.683888,-9265.009107
444.742900,1205.982590,-401.994197,-10126.425243
444.745455,746.560651,2163.111630,-9743.573627
444.748010,-382.851616,6240.481341,-8939.585234
444.750565,1014.556782,3158.525832,-9418.149754
444.753120,57.427742,1531.406464,-9877.571693
444.755675,1359.123237,4115.654872,-9303.294269
444.758229,-363.709035,-306.281293,-9992.427178
444.760784,76.570323,1607.976787,-9533.005238
444.763339,918.843878,421.136778,-9513.862658
444.765894,382.851616,-555.134843,-10279.565890
444.768449,133.998066,765.703232,-9475.577496
444.771004,899.701298,2220.539373,-9379.864592
444.773559,210.568389,842.273555,-9934.999435
444.776114,555.134843,1244.267752,-9475.577496
444.778669,287.138712,689.132909,-9762.716208
444.781223,669.990328,-76.570323,-9571.290400
444.783778,708.275490,1148.554848,-9571.290400
444.786333,727.418070,497.707101,-10088.140082
444.788888,57.427742,1473.978722,-9705.288466
444.791443,1359.123237,1397.408398,-9341.579430
444.793998,535.992262,3560.520029,-9150.153622
444.796553,-497.707101,1856.830338,-9877.571693
444.799108,1856.830338,1895.115499,-9762.716208
444.801668,-440.279358,1895.115499,-9724.431046
444.804229,382.851616,6049.055533,-8805.587168
444.806790,746.560651,-497.707101,-9667.003304
444.809351,459.421939,1665.404530,-9494.720077
444.811911,248.853550,-918.843878,-9724.431046
444.814472,-133.998066,-4441.078746,-10968.698798
444.817033,-401.994197,1301.695494,-9035.298138
444.819594,2239.681954,-3139.383251,-10107.282662
444.822154,631.705166,-1339.980656,-9820.143950
444.824715,-727.418070,-574.277424,-9877.571693
444.827276,535.992262,-19.142581,-10336.993632
444.829837,401.994197,1454.836141,-9399.007173
444.832397,631.705166,612.562586,-9494.720077
444.834958,650.847747,1684.547110,-9379.864592
444.837519,267.996131,-133.998066,-10298.708470
444.840080,172.283227,899.701298,-9762.716208
444.842640,861.416136,0.000000,-9590.432981
444.845201,153.140646,593.420005,-9743.573627
444.847762,459.421939,1052.841944,-9552.147819
444.850323,0.000000,19.142581,-10068.997501
444.852883,325.423874,210.568389,-9647.860723
444.855444,1148.554848,153.140646,-9724.431046
444.858005,-421.136778,-1952.543242,-10202.995566
444.860566,574.277424,401.994197,-9188.438784
444.863126,937.986459,-1014.556782,-9896.714274
444.865687,516.849682,-4230.510357,-10681.560086
444.868248,0.000000,459.421939,-9437.292334
444.870808,363.709035,-1186.840010,-9839.286531
444.873369,1933.400661,-1071.984525,-9801.001370
444.875930,-1397.408398,4326.223261,-9245.866526
444.878491,2067.398726,842.273555,-10107.282662
444.881051,-612.562586,3101.098090,-9552.147819
444.883612,1110.269686,6202.196179,-8997.012976
444.886173,287.138712,2507.678085,-9303.294269
444.888734,478.564520,2507.678085,-9647.860723
444.891294,842.273555,-191.425808,-9858.429112
444.893855,-133.998066,1205.982590,-9571.290400
444.896416,516.849682,574.277424,-9801.001370
444.898977,957.129040,-995.414202,-9992.427178
444.901537,19.142581,1799.402595,-9245.866526
444.904103,0.000000,2105.683888,-9494.720077
444.906668,995.414202,669.990328,-9973.284597
444.909233,535.992262,1339.980656,-9437.292334
444.911798,210.568389,-172.283227,-9781.858789
444.914363,287.138712,1301.695494,-9399.007173
444.916928,1110.269686,861.416136,-9552.147819
444.919493,-382.851616,1359.123237,-10049.854920
444.922058,1378.265818,1684.547110,-9399.007173
444.924624,-172.283227,3043.670347,-9341.579430
444.927189,-535.992262,2794.816797,-9686.145885
444.929754,1780.260014,2048.256146,-9513.862658
444.932319,-574.277424,3235.096155,-9705.288466
444.934884,421.136778,5876.772306,-8977.870395
444.937449,95.712904,-1205.982590,-10011.569758
444.940014,1282.552914,3790.230998,-8767.302006
444.942579,-287.138712,-3196.810994,-10260.423309
444.945144,287.138712,-3215.953574,-10662.417506
444.947710,-19.142581,2182.254211,-8824.729749
444.950275,2220.539373,-4670.789715,-10547.562021
444.952840,1320.838075,-2220.539373,-10030.712339
444.955405,-1244.267752,0.000000,-9552.147819
444.957970,995.414202,421.136778,-10126.425243
444.960535,153.140646,1378.265818,-9475.577496
444.963100,727.418070,535.992262,-9456.434915
444.965665,267.996131,306.281293,-9513.862658
444.968231,421.136778,1091.127106,-9954.142016
444.970796,344.566454,229.710970,-9781.858789
444.973361,574.277424,689.132909,-9801.001370
444.975926,765.703232,746.560651,-9590.432981
444.978491,38.285162,-287.138712,-9628.718142
444.981056,421.136778,727.418070,-9915.856854
444.983621,899.701298,976.271621,-9743.573627
444.986186,-57.427742,-631.705166,-10049.854920
444.988752,803.988394,-918.843878,-9533.005238
444.991317,-382.851616,-1895.115499,-9762.716208
444.993882,1339.980656,593.420005,-9609.575562
444.996447,689.132909,-2067.398726,-10202.995566
444.999012,535.992262,-4594.219392,-10509.276859
445.001577,-899.701298,2143.969050,-8843.872330
445.004142,1646.261949,-1895.115499,-10317.851051
445.006711,153.140646,2813.959378,-9590.432981
445.009280,-57.427742,6068.198114,-9054.440718
445.011849,880.558717,1167.697429,-9934.999435
445.014418,650.847747,3924.229064,-9379.864592
445.016987,1435.693560,3790.230998,-8997.012976
445.019556,-784.845813,1550.549045,-9801.001370
445.022124,1033.699363,-38.285162,-9839.286531
445.024693,650.847747,784.845813,-9494.720077
445.027262,114.855485,421.136778,-10183.852986
445.029831,574.277424,-38.285162,-9571.290400
445.032400,784.845813,1722.832272,-9418.149754
445.034969,210.568389,1473.978722,-9839.286531
445.037538,1091.127106,727.418070,-9915.856854
445.040107,325.423874,1033.699363,-9609.575562
445.042675,38.285162,612.562586,-9494.720077
445.045244,669.990328,899.701298,-9686.145885
445.047813,363.709035,1186.840010,-9858.429112
445.050382,1282.552914,1014.556782,-9801.001370
445.052951,-459.421939,3311.666478,-9207.581365
445.055520,95.712904,1933.400661,-9762.716208
445.058089,1627.119368,1282.552914,-9877.571693
445.060658,440.279358,4938.785846,-9131.011042
445.063227,325.423874,3809.373579,-9418.149754
445.065795,-459.421939,-153.140646,-10375.278794
445.068364,1493.121302,4115.654872,-8748.159426
445.070933,-325.423874,-3675.375514,-10222.138147
445.073502,382.851616,-2852.244539,-10624.132344
445.076071,0.000000,1952.543242,-8863.014910
445.078640,2201.396792,-5111.069074,-10738.987829
445.081209,-612.562586,-765.703232,-9609.575562
445.083778,746.560651,-995.414202,-9858.429112
445.086346,421.136778,1378.265818,-9724.431046
445.088915,267.996131,535.992262,-9973.284597
445.091484,708.275490,708.275490,-9360.722011
445.094053,593.420005,2201.396792,-9188.438784
445.096622,306.281293,-1225.125171,-10451.849117
445.099191,172.283227,1320.838075,-9437.292334
445.101760,1129.412267,363.709035,-9628.718142
445.104329,248.853550,287.138712,-9954.142016
445.106897,382.851616,1971.685822,-9284.151688
445.109470,899.701298,-861.416136,-9858.429112
445.112042,765.703232,1378.265818,-9418.149754
445.114614,-401.994197,229.710970,-10126.425243
445.117186,1052.841944,-382.851616,-9552.147819
445.119759,-325.423874,-1875.972918,-9533.005238
445.122331,1301.695494,-2660.818731,-10260.423309
445.124903,-153.140646,1952.543242,-9341.579430
445.127475,1359.123237,-4632.504554,-10566.704602
445.130048,-267.996131,1378.265818,-9418.149754
445.132620,478.564520,-133.998066,-9839.286531
445.135192,1416.550979,363.709035,-10030.712339
445.137764,-861.416136,7446.463931,-8633.303941
445.140336,957.129040,1339.980656,-9915.856854
445.142909,95.712904,1473.978722,-9820.143950
445.145481,1588.834206,3713.660675,-9092.725880
445.148053,-459.421939,-306.281293,-9896.714274
445.150625,401.994197,1186.840010,-9513.862658
445.153198,727.418070,918.843878,-9705.288466
445.155770,899.701298,-401.994197,-10336.993632
445.158342,-267.996131,2048.256146,-9188.438784
445.160914,1014.556782,1167.697429,-9303.294269
445.163486,401.994197,440.279358,-9801.001370
445.166059,574.277424,1071.984525,-9877.571693
445.168631,631.705166,-38.285162,-9858.429112
445.171203,172.283227,1148.554848,-9475.577496
445.173775,535.992262,1397.408398,-9609.575562
445.176348,1359.123237,344.566454,-9801.001370
445.178920,-631.705166,2316.252277,-9590.432981
445.181492,957.129040,1454.836141,-10030.712339
445.184064,-497.707101,3924.229064,-9379.864592
445.186636,1684.547110,3866.801322,-9188.438784
445.189209,-191.425808,842.273555,-9839.286531
445.191781,-555.134843,2392.822600,-10049.854920
445.194353,2182.254211,2699.103893,-9150.153622
445.196925,-574.277424,-2986.242605,-10413.563955
445.199498,1167.697429,3273.381317,-8958.727814
445.202070,382.851616,-4019.941968,-9992.427178
445.204642,-19.142581,-3522.234867,-10394.421374
445.207214,306.281293,-593.420005,-9533.005238
445.209787,2143.969050,-2890.529701,-10279.565890
445.212361,-1148.554848,1914.258080,-9265.009107
445.214935,459.421939,784.845813,-10279.565890
445.217510,612.562586,-19.142581,-9418.149754
445.220084,612.562586,1531.406464,-9035.298138
445.222658,287.138712,267.996131,-10413.563955
445.225233,363.709035,1129.412267,-9743.573627
445.227807,421.136778,669.990328,-9513.862658
445.230382,1014.556782,401.994197,-9379.864592
445.232956,-363.709035,861.416136,-9743.573627
445.235530,937.986459,421.136778,-9896.714274
445.238105,1148.554848,765.703232,-9686.145885
445.240679,-689.132909,153.140646,-9801.001370
445.243253,650.847747,38.285162,-9284.151688
445.245828,-114.855485,-2258.824534,-9877.571693
445.248402,1416.550979,-1895.115499,-10260.423309
445.250977,-325.423874,1684.547110,-9399.007173
445.253551,1282.552914,-5359.922624,-10451.849117
445.256125,-344.566454,1512.263883,-9073.583299
445.258700,421.136778,-765.703232,-10049.854920
445.261274,1416.550979,1148.554848,-9992.427178
445.263848,-669.990328,6910.471669,-8901.300072
445.266423,574.277424,1435.693560,-9820.143950
445.268997,382.851616,2086.541307,-9552.147819
445.271572,1588.834206,3962.514226,-9303.294269
445.274146,-784.845813,-823.130974,-10126.425243
445.276720,57.427742,1301.695494,-9399.007173
445.279295,918.843878,1091.127106,-9667.003304
445.281869,210.568389,-248.853550,-10413.563955
445.284444,153.140646,2201.396792,-8824.729749
445.287018,1167.697429,-153.140646,-9647.860723
445.289592,-516.849682,1435.693560,-10107.282662
445.292167,555.134843,1875.972918,-9628.718142
445.294741,631.705166,267.996131,-9628.718142
445.297315,1071.984525,823.130974,-9475.577496
445.299890,19.142581,1186.840010,-9647.860723
445.302464,1473.978722,1033.699363,-9820.143950
445.305039,76.570323,2928.814862,-9552.147819
445.307613,-267.996131,1722.832272,-9686.145885
445.310187,1186.840010,2220.539373,-9494.720077
445.312762,650.847747,4747.360038,-9303.294269
445.315338,191.425808,3349.951640,-9475.577496
445.317914,-784.845813,1282.552914,-10317.851051
445.320490,1780.260014,4287.938099,-8863.014910
445.323066,-153.140646,-4287.938099,-10164.710405
445.325643,784.845813,-1397.408398,-10126.425243
445.328219,421.136778,1339.980656,-8958.727814
445.330795,1588.834206,-5532.205851,-10853.843314
445.333371,-1148.554848,-689.132909,-9494.720077
445.335947,1875.972918,-1895.115499,-9858.429112
445.338523,-95.712904,2143.969050,-9552.147819
445.341100,593.420005,344.566454,-10202.995566
445.343676,555.134843,-287.138712,-9437.292334
445.346252,191.425808,1569.691626,-9322.436850
445.348828,363.709035,-708.275490,-10700.702667
445.351404,287.138712,2048.256146,-9360.722011
445.353980,612.562586,306.281293,-9475.577496
445.356557,172.283227,363.709035,-9647.860723
445.359133,669.990328,1416.550979,-9456.434915
445.361709,325.423874,19.142581,-10011.569758
445.364285,306.281293,459.421939,-9781.858789
445.366861,937.986459,-1205.982590,-9686.145885
445.369437,-325.423874,-1339.980656,-9877.571693
445.372014,1052.841944,-114.855485,-9647.860723
445.374590,363.709035,-823.130974,-9724.431046
445.377166,535.992262,-5800.201982,-10853.843314
445.379742,-1167.697429,2373.680019,-8901.300072
445.382318,2220.539373,-2775.674216,-10222.138147
445.384894,-631.705166,4153.940034,-9245.866526
445.387471,1052.841944,3656.232933,-9513.862658
445.390047,689.132909,1359.123237,-10068.997501
445.392623,746.560651,6278.766502,-9035.298138
445.395199,267.996131,3215.953574,-9035.298138
445.397777,-38.285162,880.558717,-9877.571693
445.400355,957.129040,-401.994197,-9724.431046
445.402933,210.568389,1780.260014,-9284.151688
445.405511,765.703232,-57.427742,-10470.991698
445.408089,535.992262,516.849682,-9724.431046
445.410667,95.712904,1301.695494,-9073.583299
445.413245,229.710970,38.285162,-9743.573627
445.415823,1052.841944,1167.697429,-10126.425243
445.418401,287.138712,727.418070,-9781.858789
445.420979,401.994197,1091.127106,-9226.723946
445.423557,267.996131,555.134843,-9628.718142
445.426135,880.558717,689.132909,-9705.288466
445.428713,803.988394,3349.951640,-9513.862658
445.431291,-363.709035,1990.828403,-9839.286531
445.433869,1148.554848,1914.258080,-9533.005238
445.436447,555.134843,4402.793584,-9169.296203
445.439025,267.996131,4307.080680,-9284.151688
445.441603,-421.136778,823.130974,-10336.993632
445.444181,2029.113565,4421.936165,-8920.442653
445.446759,95.712904,-3464.807125,-10126.425243
445.449337,57.427742,-3235.096155,-10470.991698
445.451915,555.134843,1818.545176,-8767.302006
445.454493,2067.398726,-5321.637462,-10834.700733
445.457071,-1148.554848,-1167.697429,-9820.143950
445.459649,-746.560651,650.847747,-9399.007173
445.462227,937.986459,1512.263883,-10145.567824
445.464805,114.855485,-287.138712,-9801.001370
445.467383,842.273555,1091.127106,-8786.444587
445.469961,306.281293,1167.697429,-9667.003304
445.472539,267.996131,574.277424,-10643.274925
445.475117,535.992262,1186.840010,-9552.147819
445.477695,689.132909,-114.855485,-9111.868461
445.480273,440.279358,497.707101,-9705.288466
445.482851,382.851616,1588.834206,-9934.999435
445.485429,1052.841944,95.712904,-9973.284597
445.488007,76.570323,-1416.550979,-9781.858789
445.490585,-421.136778,-133.998066,-9150.153622
445.493163,937.986459,-1914.258080,-9839.286531
445.495741,727.418070,-3024.527766,-10681.560086
445.498319,-248.853550,1359.123237,-9399.007173
445.500897,1129.412267,-2871.387120,-9954.142016
445.503476,1378.265818,-306.281293,-9475.577496
445.506054,-1167.697429,2182.254211,-9341.579430
445.508633,1761.117434,-267.996131,-10279.565890
445.511212,-689.132909,4919.643266,-9322.436850
445.513791,363.709035,5398.207786,-9245.866526
445.516369,-95.712904,1531.406464,-9609.575562
445.518948,2009.970984,3598.805190,-9284.151688
445.521527,-306.281293,-478.564520,-10164.710405
445.524105,210.568389,1282.552914,-9437.292334
445.526684,555.134843,2029.113565,-9533.005238
445.529263,976.271621,-708.275490,-10375.278794
445.531841,114.855485,1646.261949,-8958.727814
445.534420,95.712904,708.275490,-9494.720077
445.536999,229.710970,1320.838075,-10183.852986
445.539578,631.705166,880.558717,-9781.858789
445.542156,1071.984525,497.707101,-9494.720077
445.544735,-76.570323,650.847747,-9590.432981
445.547314,1320.838075,650.847747,-9667.003304
445.549892,248.853550,3196.810994,-9513.862658
445.552471,-306.281293,1435.693560,-10145.567824
445.555050,574.277424,2182.254211,-9762.716208
445.557629,823.130974,4996.213589,-8805.587168
445.560207,555.134843,4900.500685,-9284.151688
445.562786,-344.566454,153.140646,-10183.852986
445.565365,2067.398726,4938.785846,-8767.302006
445.567943,-133.998066,-4919.643266,-10681.560086
445.570522,861.416136,-421.136778,-9762.716208
445.573101,440.279358,784.845813,-8843.872330
445.575680,1091.127106,-5953.342629,-11140.982026
445.578258,-746.560651,-95.712904,-9609.575562
445.580837,2143.969050,-2258.824534,-10068.997501
445.583416,-57.427742,1569.691626,-9858.429112
445.585994,210.568389,401.994197,-9743.573627
445.588573,937.986459,708.275490,-8977.870395
445.591152,95.712904,497.707101,-9628.718142
445.593730,363.709035,574.277424,-10681.560086
445.596309,344.566454,1320.838075,-9609.575562
445.598888,114.855485,325.423874,-9226.723946
445.601467,1014.556782,57.427742,-9571.290400
445.604046,114.855485,1186.840010,-9896.714274
445.606625,593.420005,440.279358,-10375.278794
445.609204,497.707101,-1091.127106,-9820.143950
445.611783,-401.994197,-976.271621,-9418.149754
445.614362,765.703232,-382.851616,-9456.434915
445.616941,918.843878,-3713.660675,-10470.991698
445.619520,153.140646,-957.129040,-9934.999435
445.622099,133.998066,-172.283227,-9456.434915
445.624678,1952.543242,-1914.258080,-9762.716208
445.627258,-1914.258080,4421.936165,-9035.298138
445.629837,2105.683888,-1052.841944,-10413.563955
445.632416,-574.277424,5570.491013,-9150.153622
445.634995,306.281293,5015.356170,-9073.583299
445.637574,-516.849682,2124.826469,-9379.864592
445.640153,1454.836141,2411.965181,-9322.436850
445.642732,57.427742,-765.703232,-10088.140082
445.645311,-57.427742,1531.406464,-9475.577496
445.647890,880.558717,1473.978722,-10030.712339
445.650469,727.418070,-1091.127106,-10336.993632
445.653049,-95.712904,2526.820666,-8537.591037
445.655628,823.130974,-229.710970,-9686.145885
445.658207,555.134843,1186.840010,-10088.140082
445.660786,229.710970,1129.412267,-9839.286531
445.663365,650.847747,497.707101,-9513.862658
445.665944,650.847747,1167.697429,-9456.434915
445.668523,-172.283227,765.703232,-9724.431046
445.671102,823.130974,2201.396792,-9801.001370
445.673681,-114.855485,3637.090352,-9667.003304
445.676260,1263.410333,2545.963246,-9590.432981
445.678839,-421.136778,2373.680019,-9169.296203
445.681419,574.277424,6144.768437,-9073.583299
445.683998,937.986459,-229.710970,-10049.854920
445.686577,-593.420005,229.710970,-9915.856854
445.689156,1244.267752,2201.396792,-9226.723946
445.691735,133.998066,-5991.627790,-10604.989763
445.694314,-765.703232,-918.843878,-9686.145885
445.696893,1722.832272,-2086.541307,-9762.716208
445.699472,976.271621,-2545.963246,-10394.421374
445.702051,-918.843878,2029.113565,-9207.581365
445.704630,861.416136,937.986459,-10260.423309
445.707210,210.568389,95.712904,-9609.575562
445.709789,1110.269686,746.560651,-8843.872330
445.712368,38.285162,0.000000,-10624.132344
445.714947,382.851616,1205.982590,-10279.565890
445.717526,918.843878,76.570323,-9245.866526
445.720105,497.707101,363.709035,-9073.583299
445.722684,574.277424,899.701298,-9839.286531
445.725263,995.414202,363.709035,-10279.565890
445.727843,-555.134843,172.283227,-9915.856854
445.730422,842.273555,-669.990328,-9533.005238
445.733002,650.847747,-2124.826469,-9494.720077
445.735581,842.273555,-1971.685822,-10451.849117
445.738161,-497.707101,574.277424,-9954.142016
445.740740,1091.127106,-1741.974853,-9801.001370
445.743319,1665.404530,-976.271621,-9743.573627
445.745899,-1493.121302,2967.100024,-9188.438784
445.748478,2373.680019,-1512.263883,-10241.280728
445.751058,-861.416136,6891.329088,-8863.014910
445.753637,593.420005,3426.521963,-9667.003304
445.756217,287.138712,1856.830338,-9915.856854
445.758796,1148.554848,4804.787781,-8690.731683
445.761376,-287.138712,-1052.841944,-10088.140082
445.763955,363.709035,1454.836141,-9552.147819
445.766535,229.710970,1512.263883,-9992.427178
445.769114,574.277424,0.000000,-10375.278794
445.771694,363.709035,1856.830338,-8652.446522
445.774273,1014.556782,0.000000,-9284.151688
445.776852,-306.281293,1512.263883,-10088.140082
445.779432,593.420005,918.843878,-10164.710405
445.782011,344.566454,631.705166,-9820.143950
445.784591,574.277424,765.703232,-9188.438784
445.787170,-153.140646,344.566454,-9533.005238
445.789750,574.277424,1397.408398,-10260.423309
445.792329,267.996131,3732.803256,-9647.860723
445.794909,1205.982590,3522.234867,-9456.434915
445.797488,-325.423874,1531.406464,-9456.434915
445.800068,689.132909,4862.215523,-9265.009107
445.802647,1990.828403,1071.984525,-9724.431046
445.805227,-803.988394,1263.410333,-9954.142016
445.807806,1225.125171,1473.978722,-9379.864592
445.810386,-114.855485,-6183.053598,-10719.845248
445.812966,-344.566454,-4192.225195,-10375.278794
445.815545,765.703232,-344.566454,-9360.722011
445.818125,1722.832272,-3330.809059,-10604.989763
445.820705,-1014.556782,3215.953574,-9245.866526
445.823285,669.990328,555.134843,-10183.852986
445.825864,287.138712,-382.851616,-9322.436850
445.828444,976.271621,1205.982590,-8843.872330
445.831024,287.138712,574.277424,-10604.989763
445.833604,421.136778,1167.697429,-10317.851051
445.836183,689.132909,631.705166,-9341.579430
445.838763,210.568389,-765.703232,-9379.864592
445.841343,114.855485,1071.984525,-9877.571693
445.843923,-95.712904,1301.695494,-10317.851051
445.846503,1186.840010,-1263.410333,-10030.712339
445.849082,-401.994197,-1091.127106,-9590.432981
445.851662,1052.841944,-325.423874,-9341.579430
445.854242,1167.697429,-3081.955509,-10164.710405
445.856822,248.853550,-3139.383251,-10719.845248
445.859401,-114.855485,1646.261949,-9188.438784
445.861981,2431.107762,-2699.103893,-10049.854920
445.864561,-708.275490,3349.951640,-9379.864592
445.867141,937.986459,4326.223261,-9016.155557
445.869720,746.560651,1033.699363,-10222.138147
445.872300,823.130974,6776.473603,-9341.579430
445.874880,248.853550,2622.533570,-9284.151688
445.877460,153.140646,57.427742,-9781.858789
445.880040,497.707101,-114.855485,-9609.575562
445.882619,574.277424,2067.398726,-9494.720077
445.885199,823.130974,-516.849682,-10662.417506
445.887779,-248.853550,1301.695494,-9533.005238
445.890359,803.988394,382.851616,-9150.153622
445.892938,535.992262,459.421939,-9590.432981
445.895518,0.000000,1282.552914,-10298.708470
445.898098,555.134843,957.129040,-10030.712339
445.900678,880.558717,555.134843,-9590.432981
445.903257,-172.283227,995.414202,-9399.007173
445.905837,1167.697429,1282.552914,-9705.288466
445.908417,-459.421939,3790.230998,-9724.431046
445.910997,1837.687757,3005.385186,-9628.718142
445.913577,-574.277424,2163.111630,-9494.720077
445.916157,516.849682,6029.912952,-8767.302006
445.918737,842.273555,-440.279358,-9877.571693
445.921317,0.000000,3598.805190,-9437.292334
445.923897,478.564520,-1129.412267,-10030.712339
445.926476,-95.712904,-5187.639397,-10949.556218
445.929056,-746.560651,-1895.115499,-9628.718142
445.931636,1875.972918,-2239.681954,-9533.005238
445.934216,1014.556782,-2756.531635,-10432.706536
445.936796,-765.703232,2967.100024,-9456.434915
445.939376,1205.982590,669.990328,-10317.851051
445.941956,229.710970,-574.277424,-9265.009107
445.944536,880.558717,1799.402595,-8595.018779
445.947116,382.851616,-555.134843,-10547.562021
445.949696,76.570323,2163.111630,-10279.565890
445.952276,631.705166,555.134843,-9513.862658
445.954856,421.136778,38.285162,-8958.727814
445.957436,382.851616,1033.699363,-9571.290400
445.960016,133.998066,1033.699363,-10222.138147
445.962596,995.414202,-535.992262,-10011.569758
445.965176,-76.570323,-1397.408398,-9647.860723
445.967756,727.418070,-765.703232,-9494.720077
445.970336,459.421939,-1818.545176,-9858.429112
445.972916,555.134843,-4919.643266,-10872.985894
445.975495,-727.418070,1933.400661,-9341.579430
445.978075,2699.103893,-1186.840010,-10030.712339
445.980655,344.566454,1588.834206,-9590.432981
445.983235,-229.710970,5991.627790,-8614.161360
445.985815,1091.127106,1091.127106,-10011.569758
445.988395,612.562586,5283.352301,-9609.575562
445.990975,306.281293,3771.088418,-9092.725880
445.993555,344.566454,555.134843,-9571.290400
445.996135,957.129040,-555.134843,-9418.149754
445.998715,555.134843,1646.261949,-9379.864592
446.001295,191.425808,880.558717,-10624.132344
446.003875,306.281293,1148.554848,-9188.438784
446.006455,1052.841944,708.275490,-8690.731683
446.009035,-57.427742,478.564520,-10068.997501
446.011615,478.564520,1473.978722,-10222.138147
446.014195,497.707101,899.701298,-9724.431046
446.016774,784.845813,689.132909,-9418.149754
446.019353,-497.707101,1071.984525,-9245.866526
446.021933,574.277424,1646.261949,-9667.003304
446.024512,535.992262,2967.100024,-10030.712339
446.027091,1359.123237,4058.227130,-9399.007173
446.029671,-535.992262,2890.529701,-9437.292334
446.032250,-401.994197,2277.967115,-9781.858789
446.034829,2067.398726,3081.955509,-9073.583299
446.037409,-689.132909,-2622.533570,-10470.991698
446.039988,995.414202,3273.381317,-9245.866526
446.042567,440.279358,-3771.088418,-9992.427178
446.045147,-133.998066,-4460.221326,-10279.565890
446.047726,976.271621,-1033.699363,-9265.009107
446.050305,1512.263883,-3407.379382,-10528.419440
446.052885,-861.416136,4192.225195,-9303.294269
446.055464,1033.699363,172.283227,-10011.569758
446.058043,612.562586,-382.851616,-8786.444587
446.060623,76.570323,1933.400661,-9073.583299
446.063202,1033.699363,-440.279358,-11179.267187
446.065781,-153.140646,1493.121302,-9820.143950
446.068360,689.132909,555.134843,-9016.155557
446.070940,1263.410333,-650.847747,-9475.577496
446.073519,-95.712904,1148.554848,-9724.431046
446.076098,650.847747,-191.425808,-10107.282662
446.078678,459.421939,-727.418070,-10126.425243
446.081257,650.847747,-133.998066,-9360.722011
446.083836,842.273555,-3541.377448,-9973.284597
446.086416,382.851616,-1416.550979,-10088.140082
446.088995,229.710970,363.709035,-9571.290400
446.091574,1895.115499,-1741.974853,-10202.995566
446.094154,-1550.549045,4383.651003,-9226.723946
446.096733,1895.115499,-1684.547110,-10011.569758
446.099312,-650.847747,5551.348432,-8748.159426
446.101892,267.996131,4957.928427,-9475.577496
446.104471,516.849682,1167.697429,-10298.708470
446.107050,1052.841944,3158.525832,-9341.579430
446.109630,306.281293,-1071.984525,-9762.716208
446.112209,-210.568389,1091.127106,-9418.149754
446.114788,459.421939,1875.972918,-10107.282662
446.117368,1071.984525,-861.416136,-10681.560086
446.119947,-133.998066,1741.974853,-8614.161360
446.122525,382.851616,267.996131,-9131.011042
446.125104,1148.554848,459.421939,-10202.995566
446.127683,153.140646,1856.830338,-9858.429112
446.130262,1014.556782,516.849682,-9839.286531
446.132841,114.855485,1244.267752,-9284.151688
446.135420,191.425808,1378.265818,-9743.573627
446.137999,229.710970,3024.527766,-9762.716208
446.140577,1244.267752,4230.510357,-9437.292334
446.143156,-497.707101,1722.832272,-9954.142016
446.145735,631.705166,5034.498750,-9016.155557
446.148314,1895.115499,861.416136,-9552.147819
446.150893,-631.705166,555.134843,-9647.860723
446.153472,1205.982590,2258.824534,-9341.579430
446.156051,76.570323,-6029.912952,-11083.554283
446.158629,-133.998066,-4383.651003,-10260.423309
446.161208,650.847747,-1359.123237,-9303.294269
446.163787,1378.265818,-3043.670347,-10432.706536
446.166366,-1071.984525,4096.512291,-9475.577496
446.168945,842.273555,0.000000,-10432.706536
446.171524,248.853550,-191.425808,-9131.011042
446.174103,937.986459,2086.541307,-8556.733618
446.176681,-306.281293,-210.568389,-10777.272990
446.179260,210.568389,1320.838075,-10126.425243
446.181839,535.992262,631.705166,-9073.583299
446.184418,937.986459,-631.705166,-9475.577496
446.186997,-306.281293,1435.693560,-9552.147819
446.189576,957.129040,-306.281293,-9992.427178
446.192155,172.283227,-1588.834206,-10145.567824
446.194734,574.277424,344.566454,-9533.005238
446.197312,957.129040,-3464.807125,-9896.714274
446.199891,153.140646,-2431.107762,-10088.140082
446.202470,210.568389,727.418070,-9379.864592
446.205049,2201.396792,-1722.832272,-10183.852986
446.207628,-1071.984525,4383.651003,-9475.577496
446.210207,1091.127106,2469.392923,-9322.436850
446.212786,765.703232,1588.834206,-9628.718142
446.215364,325.423874,6948.756830,-9150.153622
446.217943,210.568389,2124.826469,-9896.714274
446.220522,823.130974,2718.246474,-9456.434915
446.223101,593.420005,-995.414202,-9647.860723
446.225679,-153.140646,1378.265818,-9207.581365
446.228258,459.421939,1071.984525,-10298.708470
446.230836,689.132909,248.853550,-10432.706536
446.233415,401.994197,535.992262,-8997.012976
446.235993,287.138712,133.998066,-9399.007173
446.238572,401.994197,1531.406464,-10107.282662
446.241150,784.845813,1301.695494,-9858.429112
446.243729,401.994197,459.421939,-9590.432981
446.246308,650.847747,2009.970984,-9265.009107
446.248886,133.998066,1990.828403,-9513.862658
446.251465,995.414202,1971.685822,-9743.573627
446.254043,535.992262,4670.789715,-9456.434915
446.256622,267.996131,3981.656806,-9609.575562
446.259200,-229.710970,76.570323,-9743.573627
446.261779,1205.982590,4498.506488,-8786.444587
446.264357,0.000000,-4058.227130,-10451.849117
446.266936,287.138712,-1799.402595,-10356.136213
446.269514,689.132909,631.705166,-9245.866526
446.272093,880.558717,-6068.198114,-10681.560086
446.274672,-861.416136,-382.851616,-9265.009107
446.277250,2143.969050,-1205.982590,-10049.854920
446.279829,555.134843,2526.820666,-10145.567824
446.282407,-267.996131,-363.709035,-9992.427178
446.284986,535.992262,1244.267752,-8556.733618
446.287564,995.414202,727.418070,-9820.143950
446.290143,-133.998066,325.423874,-10815.558152
446.292721,478.564520,957.129040,-9475.577496
446.295300,995.414202,-95.712904,-9207.581365
446.297878,-153.140646,363.709035,-9839.286531
446.300457,784.845813,-287.138712,-9877.571693
446.303036,114.855485,-937.986459,-10183.852986
446.305614,746.560651,76.570323,-9667.003304
446.308193,861.416136,-3905.086483,-10011.569758
446.310771,-363.709035,-210.568389,-9667.003304
446.313350,650.847747,-1167.697429,-9628.718142
446.315928,1914.258080,-727.418070,-9915.856854
446.318507,-1454.836141,3943.371645,-9437.292334
446.321085,1646.261949,-76.570323,-9858.429112
446.323664,-172.283227,3177.668413,-9245.866526
446.326242,401.994197,6738.188442,-8939.585234
446.328820,363.709035,1110.269686,-10164.710405
446.331399,1493.121302,4326.223261,-9226.723946
446.333977,-153.140646,-1301.695494,-10011.569758
446.336555,0.000000,937.986459,-9322.436850
446.339134,1014.556782,2009.970984,-9686.145885
446.341712,210.568389,-746.560651,-10643.274925
446.344290,267.996131,2124.826469,-8767.302006
446.346869,555.134843,401.994197,-9609.575562
446.349447,191.425808,478.564520,-10222.138147
446.352025,650.847747,1531.406464,-9647.860723
446.354603,210.568389,76.570323,-10030.712339
446.357182,478.564520,1512.263883,-9513.862658
446.359760,19.142581,2833.101958,-9322.436850
446.362338,1205.982590,1071.984525,-9954.142016
446.364917,210.568389,4402.793584,-9265.009107
446.367495,363.709035,5455.635528,-9226.723946
446.370073,-401.994197,-114.855485,-9915.856854
446.372651,95.712904,4039.084549,-8882.157491
446.375230,478.564520,-2679.961312,-10126.425243
446.377808,-57.427742,-4192.225195,-10796.415571
446.380386,516.849682,976.271621,-9379.864592
446.382965,2029.113565,-5570.491013,-10413.563955
446.385543,-1225.125171,-535.992262,-9399.007173
446.388121,1359.123237,-19.142581,-9743.573627
446.390699,1282.552914,1205.982590,-10375.278794
446.393278,-459.421939,19.142581,-9686.145885
446.395856,1301.695494,803.988394,-8633.303941
446.398434,574.277424,248.853550,-10202.995566
446.401013,-210.568389,937.986459,-10356.136213
446.403591,765.703232,1416.550979,-9265.009107
446.406169,899.701298,-803.988394,-9609.575562
446.408748,-823.130974,516.849682,-9858.429112
446.411326,1301.695494,95.712904,-9609.575562
446.413904,210.568389,-1933.400661,-10413.563955
446.416482,440.279358,823.130974,-9686.145885
446.419061,1052.841944,-3522.234867,-9934.999435
446.421639,287.138712,-2756.531635,-10930.413637
446.424217,-1091.127106,2488.535504,-9150.153622
446.426796,2584.248408,-2163.111630,-10260.423309
446.429351,-880.558717,4613.361973,-9667.003304
446.431907,937.986459,2603.390989,-9418.149754
446.434463,746.560651,1531.406464,-9494.720077
446.437019,306.281293,6929.614250,-9054.440718
446.439574,153.140646,1627.119368,-10088.140082
446.442130,995.414202,2947.957443,-9552.147819
446.444686,574.277424,-1339.980656,-9762.716208
446.447241,114.855485,1588.834206,-9169.296203
446.449797,765.703232,842.273555,-10394.421374
446.452353,153.140646,459.421939,-9858.429112
446.454909,172.283227,976.271621,-8920.442653
446.457464,880.558717,401.994197,-9590.432981
446.460020,631.705166,1244.267752,-10183.852986
446.462576,382.851616,1301.695494,-9762.716208
446.465132,478.564520,1761.117434,-9475.577496
446.467687,-210.568389,803.988394,-9667.003304
446.470243,133.998066,2947.957443,-9399.007173
446.472799,918.843878,4460.221326,-9456.434915
446.475355,-76.570323,2029.113565,-9858.429112
446.477910,-172.283227,4077.369710,-9590.432981
446.480466,2086.541307,1875.972918,-9265.009107
446.483022,-574.277424,-1627.119368,-9896.714274
446.485578,1167.697429,3541.377448,-8843.872330
446.488133,478.564520,-5091.926493,-10700.702667
446.490689,-344.566454,-3005.385186,-10279.565890
446.493245,1359.123237,-2507.678085,-9379.864592
446.495800,497.707101,-2526.820666,-10011.569758
446.498356,-1129.412267,3617.947771,-9667.003304
446.500912,823.130974,689.132909,-10049.854920
446.503468,382.851616,-708.275490,-9303.294269
446.506023,248.853550,2086.541307,-8882.157491
446.508579,1129.412267,114.855485,-10796.415571
446.511135,-19.142581,1091.127106,-9973.284597
446.513691,440.279358,440.279358,-9207.581365
446.516246,899.701298,-76.570323,-9437.292334
446.518802,650.847747,-918.843878,-10049.854920
446.521358,-306.281293,-172.283227,-9915.856854
446.523914,957.129040,172.283227,-9801.001370
446.526469,1110.269686,-3541.377448,-10202.995566
446.529025,-210.568389,-1091.127106,-9628.718142
446.531584,19.142581,-440.279358,-9360.722011
446.534142,2163.111630,-1818.545176,-10279.565890
446.536700,-1359.123237,4919.643266,-9265.009107
446.539259,1856.830338,-1971.685822,-10470.991698
446.541817,-976.271621,5206.781978,-8709.874264
446.544375,267.996131,5149.354235,-8939.585234
446.546934,1110.269686,1569.691626,-10298.708470
446.549492,1301.695494,3809.373579,-9399.007173
446.552050,267.996131,-1722.832272,-9801.001370
446.554609,-133.998066,1129.412267,-9188.438784
446.557167,669.990328,1741.974853,-10088.140082
446.559725,727.418070,-631.705166,-10509.276859
446.562284,-248.853550,1895.115499,-8595.018779
446.564842,669.990328,440.279358,-9284.151688
446.567400,1033.699363,689.132909,-10088.140082
446.569959,478.564520,1684.547110,-9686.145885
446.572517,248.853550,1952.543242,-9533.005238
446.575075,0.000000,689.132909,-9647.860723
446.577634,153.140646,2488.535504,-9533.005238
446.580192,746.560651,4402.793584,-9571.290400
446.582750,76.570323,1416.550979,-9896.714274
446.585309,38.285162,5264.209720,-9322.436850
446.587867,2086.541307,1473.978722,-9437.292334
446.590426,-459.421939,-133.998066,-9820.143950
446.592984,1397.408398,2833.101958,-8748.159426
446.595542,76.570323,-6049.055533,-11179.267187
446.598101,-133.998066,-5111.069074,-10834.700733
446.600659,880.558717,-1646.261949,-9226.723946
446.603217,1205.982590,-2469.392923,-10126.425243
446.605776,-1052.841944,3617.947771,-9533.005238
446.608334,1167.697429,-344.566454,-10432.706536
446.610892,440.279358,363.709035,-9035.298138
446.613453,574.277424,1339.980656,-8863.014910
446.616013,344.566454,842.273555,-10528.419440
446.618574,306.281293,746.560651,-9954.142016
446.621135,650.847747,880.558717,-9092.725880
446.623695,95.712904,-382.851616,-9647.860723
446.626256,803.988394,210.568389,-9743.573627
446.628817,191.425808,-1473.978722,-10145.567824
446.631377,784.845813,401.994197,-9686.145885
446.633938,803.988394,-2794.816797,-10107.282662
446.636498,497.707101,-3637.090352,-10107.282662
446.639059,-325.423874,1263.410333,-9150.153622
446.641620,2450.250342,-2545.963246,-10432.706536
446.644180,-1148.554848,5589.633594,-9207.581365
446.646741,1473.978722,-401.994197,-10183.852986
446.649301,1071.984525,918.843878,-9552.147819
446.651862,172.283227,6776.473603,-9016.155557
446.654423,555.134843,1971.685822,-9954.142016
446.656983,421.136778,2316.252277,-9743.573627
446.659544,823.130974,-1110.269686,-9590.432981
446.662104,-38.285162,1722.832272,-9035.298138
446.664665,746.560651,842.273555,-10490.134278
446.667226,574.277424,-114.855485,-10375.278794
446.669786,210.568389,1454.836141,-8786.444587
446.672347,306.281293,-19.142581,-9609.575562
446.674908,574.277424,2201.396792,-9877.571693
446.677468,76.570323,1301.695494,-9533.005238
446.680029,995.414202,1435.693560,-9762.716208
446.682589,-287.138712,3311.666478,-9150.153622
446.685150,1205.982590,957.129040,-9513.862658
446.687711,344.566454,4019.941968,-9647.860723
446.690271,459.421939,5225.924558,-9207.581365
446.692832,-516.849682,1244.267752,-9954.142016
446.695392,1952.543242,4230.510357,-8805.587168
446.697953,497.707101,-2928.814862,-9973.284597
446.700514,172.283227,-3235.096155,-10470.991698
446.703074,459.421939,1052.841944,-9360.722011
446.705635,1435.693560,-5876.772306,-10796.415571
446.708196,-708.275490,-574.277424,-9188.438784
446.710756,1684.547110,459.421939,-9437.292334
446.713317,1397.408398,421.136778,-10662.417506
446.715880,57.427742,-95.712904,-9303.294269
446.718442,880.558717,631.705166,-9035.298138
446.721005,612.562586,459.421939,-10317.851051
446.723568,191.425808,363.709035,-10470.991698
446.726131,497.707101,1071.984525,-9284.151688
446.728694,401.994197,516.849682,-9207.581365
446.731256,976.271621,-1205.982590,-10088.140082
446.733819,-191.425808,19.142581,-9762.716208
446.736382,497.707101,689.132909,-9820.143950
446.738945,1301.695494,-3541.377448,-10126.425243
446.741508,-191.425808,-1952.543242,-9667.003304
446.744070,-114.855485,153.140646,-9360.722011
446.746633,2067.398726,-1952.543242,-10183.852986
446.749196,-1129.412267,4900.500685,-9456.434915
446.751759,1761.117434,-1531.406464,-10375.278794
446.754322,-918.843878,4651.647134,-8863.014910
446.756885,0.000000,5493.920690,-8901.300072
446.759447,1186.840010,1875.972918,-10145.567824
446.762010,1052.841944,3215.953574,-9686.145885
446.764573,344.566454,-1263.410333,-9724.431046
446.767136,-421.136778,1454.836141,-9073.583299
446.769699,727.418070,1378.265818,-10145.567824
446.772261,631.705166,-497.707101,-10509.276859
446.774824,248.853550,1741.974853,-8595.018779
446.777387,708.275490,-401.994197,-9533.005238
446.779950,516.849682,1320.838075,-9973.284597
446.782513,-95.712904,1454.836141,-9705.288466
446.785075,995.414202,1741.974853,-9801.001370
446.787638,76.570323,3426.521963,-9188.438784
446.790201,1167.697429,1416.550979,-9513.862658
446.792764,-306.281293,2871.387120,-9820.143950
446.795327,535.992262,6604.190376,-8863.014910
446.797889,-363.709035,210.568389,-10088.140082
446.800452,1148.554848,4709.074877,-8671.589102
446.803015,114.855485,-4192.225195,-10317.851051
446.805578,401.994197,-1110.269686,-10088.140082
446.808141,497.707101,363.709035,-9418.149754
446.810704,612.562586,-5781.059402,-10834.700733
446.813266,-401.994197,-995.414202,-9303.294269
446.815829,727.418070,1493.121302,-9513.862658
446.818393,1435.693560,823.130974,-10624.132344
446.820958,-95.712904,-306.281293,-9456.434915
446.823522,880.558717,937.986459,-8748.159426
446.826086,631.705166,593.420005,-9992.427178
446.828650,133.998066,631.705166,-10585.847182
446.831215,765.703232,1014.556782,-9379.864592
446.833779,38.285162,363.709035,-9226.723946
446.836343,765.703232,-842.273555,-9820.143950
446.838907,708.275490,-1933.400661,-10183.852986
446.841472,440.279358,1110.269686,-9858.429112
446.844036,1282.552914,-2622.533570,-9992.427178
446.846600,191.425808,-4249.652938,-10164.710405
446.849164,-535.992262,1301.695494,-9054.440718
446.851729,2488.535504,-2660.818731,-10336.993632
446.854293,-1014.556782,5570.491013,-9418.149754
446.856857,1703.689691,-267.996131,-10030.712339
446.859421,-650.847747,3101.098090,-9303.294269
446.861985,-344.566454,6776.473603,-8958.727814
446.864550,823.130974,2067.398726,-9858.429112
446.867114,593.420005,2163.111630,-9992.427178
446.869678,918.843878,-842.273555,-9590.432981
446.872242,0.000000,1225.125171,-9111.868461
446.874807,574.277424,1397.408398,-10202.995566
446.877371,555.134843,-153.140646,-10202.995566
446.879935,133.998066,1856.830338,-8614.161360
446.882499,631.705166,344.566454,-9533.005238
446.885064,918.843878,382.851616,-10451.849117
446.887628,57.427742,2316.252277,-9437.292334
446.890192,248.853550,1263.410333,-9647.860723
446.892756,114.855485,1990.828403,-9571.290400
446.895321,1359.123237,4287.938099,-9169.296203
446.897885,-19.142581,669.990328,-10298.708470
446.900449,574.277424,6317.051664,-8977.870395
446.903013,1512.263883,918.843878,-9667.003304
446.905578,-497.707101,1435.693560,-9399.007173
446.908142,1071.984525,937.986459,-9303.294269
446.910706,76.570323,-5647.061336,-11121.839445
446.913270,-133.998066,-3330.809059,-10394.421374
446.915834,1378.265818,-2833.101958,-9533.005238
446.918399,555.134843,-2124.826469,-9877.571693
446.920964,-555.134843,3445.664544,-9533.005238
446.923530,1148.554848,363.709035,-10547.562021
446.926095,57.427742,133.998066,-9207.581365
446.928661,382.851616,1014.556782,-9035.298138
446.931227,650.847747,0.000000,-10528.419440
446.933792,133.998066,1244.267752,-10049.854920
446.936358,612.562586,631.705166,-9360.722011
446.938923,1454.836141,-1263.410333,-9360.722011
446.941489,-459.421939,-535.992262,-9973.284597
446.944054,-133.998066,-497.707101,-10107.282662
446.946620,1684.547110,-3081.955509,-10298.708470
446.949185,-191.425808,1837.687757,-9207.581365
446.951751,1167.697429,-3790.230998,-9705.288466
446.954317,669.990328,-95.712904,-9781.858789
446.956882,-229.710970,1837.687757,-9877.571693
446.959448,1818.545176,-344.566454,-10413.563955
446.962013,-1091.127106,6719.045861,-8824.729749
446.964579,133.998066,3866.801322,-8939.585234
446.967144,1129.412267,2718.246474,-9858.429112
446.969710,995.414202,5168.496816,-9379.864592
446.972275,-287.138712,-1895.115499,-10222.138147
446.974841,153.140646,1033.699363,-9111.868461
446.977407,1244.267752,1780.260014,-9647.860723
446.979972,612.562586,-535.992262,-10892.128475
446.982538,325.423874,1301.695494,-9111.868461
446.985103,746.560651,612.562586,-9322.436850
446.987669,612.562586,459.421939,-10088.140082
446.990234,-172.283227,2488.535504,-9513.862658
446.992800,650.847747,631.705166,-9820.143950
446.995365,325.423874,2909.672282,-9131.011042
446.997931,1263.410333,2373.680019,-9475.577496
447.000497,-363.709035,1875.972918,-9896.714274
447.003062,363.709035,6776.473603,-9092.725880
447.005628,382.851616,267.996131,-9992.427178
447.008193,363.709035,4498.506488,-8709.874264
447.010759,421.136778,-3483.949706,-10241.280728
447.013324,-38.285162,-3177.668413,-10547.562021
447.015890,-248.853550,-459.421939,-9724.431046
447.018455,1703.689691,-4192.225195,-10049.854920
447.021021,-76.570323,-1416.550979,-9341.579430
447.023567,229.710970,1990.828403,-9379.864592
447.026113,1167.697429,-823.130974,-10987.841379
447.028659,-401.994197,1033.699363,-9131.011042
447.031205,1301.695494,708.275490,-8920.442653
447.033751,440.279358,-19.142581,-10298.708470
447.036296,172.283227,1512.263883,-10068.997501
447.038842,957.129040,612.562586,-9533.005238
447.041388,1167.697429,-784.845813,-9456.434915
447.043934,-153.140646,-880.558717,-9839.286531
447.046480,133.998066,-1071.984525,-10068.997501
447.049026,1282.552914,-2737.389054,-10413.563955
447.051572,0.000000,1875.972918,-9245.866526
447.054118,995.414202,-3503.092286,-9667.003304
447.056664,708.275490,-478.564520,-9839.286531
447.059210,-248.853550,1722.832272,-9743.573627
447.061756,1818.545176,-19.142581,-10394.421374
447.064302,-861.416136,5359.922624,-8882.157491
447.066847,19.142581,4421.936165,-8805.587168
447.069393,1014.556782,2507.678085,-9877.571693
447.071939,957.129040,5130.211654,-9341.579430
447.074485,-516.849682,-1607.976787,-10298.708470
447.077031,210.568389,1167.697429,-9016.155557
447.079577,1148.554848,1914.258080,-9686.145885
447.082123,497.707101,-1071.984525,-11026.126541
447.084669,555.134843,1780.260014,-8729.016845
447.087215,459.421939,-229.710970,-9552.147819
447.089761,669.990328,995.414202,-10088.140082
447.092307,555.134843,2890.529701,-9379.864592
447.094852,95.712904,1014.556782,-9801.001370
447.097398,-191.425808,2928.814862,-9054.440718
447.099944,1225.125171,3885.943902,-9226.723946
447.102490,57.427742,976.271621,-10145.567824
447.105036,363.709035,6106.483275,-9360.722011
447.107582,1493.121302,1129.412267,-9647.860723
447.110128,-325.423874,2124.826469,-9207.581365
447.112674,803.988394,-95.712904,-9552.147819
447.115220,459.421939,-5034.498750,-10643.274925
447.117766,-172.283227,-2871.387120,-10375.278794
447.120312,1473.978722,-3062.812928,-9647.860723
447.122857,440.279358,-1799.402595,-9647.860723
447.125407,-95.712904,2890.529701,-9475.577496
447.127957,976.271621,-478.564520,-10375.278794
447.130507,669.990328,880.558717,-8863.014910
447.133057,153.140646,1665.404530,-9188.438784
447.135607,746.560651,-842.273555,-10815.558152
447.138157,497.707101,2201.396792,-9418.149754
447.140707,133.998066,-516.849682,-9494.720077
447.143257,937.986459,-650.847747,-9303.294269
447.145807,287.138712,-727.418070,-9705.288466
447.148357,631.705166,57.427742,-10011.569758
447.150907,1110.269686,-2450.250342,-10145.567824
447.153457,516.849682,-6183.053598,-10566.704602
447.156007,-976.271621,1646.261949,-9092.725880
447.158557,1990.828403,-1588.834206,-10241.280728
447.161107,-306.281293,4268.795518,-9858.429112
447.163657,995.414202,3464.807125,-9399.007173
447.166207,708.275490,918.843878,-9647.860723
447.168757,-344.566454,7197.610381,-8614.161360
447.171307,803.988394,2373.680019,-9724.431046
447.173857,669.990328,2067.398726,-9896.714274
447.176407,1052.841944,-1033.699363,-9571.290400
447.178957,248.853550,2163.111630,-9169.296203
447.181507,401.994197,172.283227,-10547.562021
447.184057,765.703232,880.558717,-9399.007173
447.186607,421.136778,555.134843,-9111.868461
447.189157,612.562586,593.420005,-9801.001370
447.191707,210.568389,1588.834206,-10126.425243
447.194257,727.418070,1741.974853,-9628.718142
447.196807,746.560651,2909.672282,-9284.151688
447.199356,784.845813,746.560651,-9743.573627
447.201906,0.000000,3675.375514,-9379.864592
447.204456,459.421939,6738.188442,-9207.581365
447.207006,842.273555,612.562586,-9877.571693
447.209556,-133.998066,3866.801322,-8767.302006
447.212106,421.136778,-2488.535504,-9858.429112
447.214656,133.998066,-4287.938099,-10777.272990
447.217206,612.562586,1014.556782,-9341.579430
447.219756,957.129040,-4900.500685,-10547.562021
447.222306,-114.855485,-1588.834206,-9552.147819
447.224856,937.986459,1914.258080,-9207.581365
447.227410,784.845813,-459.421939,-10892.128475
447.229963,-172.283227,325.423874,-9092.725880
447.232517,995.414202,689.132909,-9150.153622
447.235071,382.851616,-631.705166,-10700.702667
447.237624,555.134843,1684.547110,-9934.999435
447.240178,401.994197,267.996131,-9379.864592
447.242732,976.271621,-459.421939,-9341.579430
447.245285,267.996131,-1607.976787,-10107.282662
447.247839,306.281293,708.275490,-9647.860723
447.250393,1014.556782,-3732.803256,-10643.274925
447.252946,478.564520,-5091.926493,-10432.706536
447.255500,-631.705166,2201.396792,-8556.733618
447.258054,2699.103893,-2679.961312,-10336.993632
447.260607,-918.843878,5359.922624,-9475.577496
447.263161,1416.550979,1033.699363,-9992.427178
447.265715,-229.710970,2411.965181,-9494.720077
447.268268,-229.710970,6891.329088,-8614.161360
447.270822,1129.412267,2201.396792,-9820.143950
447.273376,1129.412267,3885.943902,-9590.432981
447.275929,287.138712,-1071.984525,-9954.142016
447.278483,401.994197,1339.980656,-9150.153622
447.281037,497.707101,191.425808,-10509.276859
447.283590,612.562586,306.281293,-10030.712339
447.286144,478.564520,918.843878,-8786.444587
447.288698,593.420005,229.710970,-9762.716208
447.291251,153.140646,1741.974853,-10164.710405
447.293805,593.420005,1646.261949,-9628.718142
447.296359,689.132909,3407.379382,-9188.438784
447.298912,1244.267752,842.273555,-9705.288466
447.301466,-153.140646,3158.525832,-9399.007173
447.304020,401.994197,7044.469734,-9322.436850
447.306573,1282.552914,650.847747,-9915.856854
447.309127,-401.994197,3445.664544,-8767.302006
447.311681,669.990328,-1665.404530,-9513.862658
447.314234,-153.140646,-5130.211654,-11026.126541
447.316788,363.709035,1225.125171,-9341.579430
447.319341,1148.554848,-4843.072942,-10547.562021
447.321895,153.140646,-1780.260014,-9667.003304
447.324449,631.705166,2565.105827,-9016.155557
447.327002,842.273555,421.136778,-10643.274925
447.329559,267.996131,0.000000,-9131.011042
447.332115,440.279358,1129.412267,-9265.009107
447.334671,708.275490,-191.425808,-10662.417506
447.337228,382.851616,1454.836141,-9934.999435
447.339784,153.140646,-76.570323,-9360.722011
447.342341,478.564520,-363.709035,-9303.294269
447.344897,669.990328,-1646.261949,-10126.425243
447.347453,842.273555,459.421939,-9686.145885
447.350010,612.562586,-1914.258080,-10202.995566
447.352566,631.705166,-5149.354235,-10470.991698
447.355122,-1071.984525,2545.963246,-8729.016845
447.357679,1780.260014,-2182.254211,-10356.136213
447.360235,-229.710970,3656.232933,-9954.142016
447.362791,555.134843,4843.072942,-9073.583299
447.365348,1339.980656,1071.984525,-9705.288466
447.367904,-497.707101,6317.051664,-8901.300072
447.370460,631.705166,2737.389054,-9552.147819
447.373017,650.847747,1339.980656,-10030.712339
447.375573,899.701298,-38.285162,-9494.720077
447.378129,172.283227,1263.410333,-9207.581365
447.380686,306.281293,-325.423874,-10815.558152
447.383242,574.277424,1148.554848,-9284.151688
447.385798,631.705166,516.849682,-9035.298138
447.388355,229.710970,382.851616,-10241.280728
447.390911,1052.841944,1933.400661,-10222.138147
447.393467,-95.712904,2086.541307,-9399.007173
447.396024,459.421939,2469.392923,-9284.151688
447.398580,880.558717,3694.518094,-9303.294269
447.401137,19.142581,1397.408398,-9801.001370
447.403693,287.138712,5149.354235,-9743.573627
447.406249,1895.115499,3369.094221,-9111.868461
447.408806,-344.566454,-1914.258080,-9571.290400
447.411362,612.562586,2565.105827,-8997.012976
447.413918,669.990328,-4613.361973,-10566.704602
447.416475,-38.285162,-3369.094221,-10566.704602
447.419031,631.705166,-2813.959378,-9705.288466
447.421587,746.560651,-1225.125171,-9647.860723
447.424144,-287.138712,3445.664544,-9379.864592
447.426700,1033.699363,-823.130974,-10547.562021
447.429256,746.560651,669.990328,-8977.870395
447.431815,210.568389,784.845813,-9590.432981
447.434374,937.986459,267.996131,-10643.274925
447.436933,267.996131,1052.841944,-9456.434915
447.439491,229.710970,267.996131,-9188.438784
447.442050,842.273555,-2067.398726,-9667.003304
447.444609,0.000000,516.849682,-9762.716208
447.447167,918.843878,-3541.377448,-10681.560086
447.449726,-344.566454,497.707101,-9571.290400
447.452285,1359.123237,-2450.250342,-9513.862658
447.454844,2335.394858,-2928.814862,-9992.427178
447.457402,-1493.121302,4670.789715,-9552.147819
447.459961,1703.689691,-593.420005,-10470.991698
447.462520,-555.134843,4613.361973,-8958.727814
447.465079,57.427742,4977.071008,-8997.012976
447.467637,937.986459,2584.248408,-9801.001370
447.470196,1244.267752,4345.365842,-9360.722011
447.472755,-38.285162,-2392.822600,-10088.140082
447.475313,-114.855485,1435.693560,-9284.151688
447.477872,861.416136,2124.826469,-9858.429112
447.480431,727.418070,-267.996131,-9896.714274
447.482990,133.998066,1761.117434,-8556.733618
447.485548,803.988394,440.279358,-9475.577496
447.488107,401.994197,803.988394,-10470.991698
447.490666,-19.142581,2431.107762,-9667.003304
447.493225,823.130974,2354.537438,-9418.149754
447.495783,1014.556782,2143.969050,-9513.862658
447.498342,-267.996131,1761.117434,-9724.431046
447.500901,516.849682,6891.329088,-9226.723946
447.503459,1014.556782,937.986459,-10107.282662
447.506018,-574.277424,535.992262,-9437.292334
447.508577,957.129040,1473.978722,-8843.872330
447.511136,210.568389,-6355.336826,-11045.269122
447.513694,-19.142581,-976.271621,-9877.571693
447.516253,1167.697429,-3139.383251,-9820.143950
447.518812,555.134843,-1952.543242,-9839.286531
447.521371,76.570323,3809.373579,-8939.585234
447.523929,689.132909,-1301.695494,-10892.128475
447.526488,-229.710970,1110.269686,-8786.444587
447.529047,842.273555,1263.410333,-9188.438784
447.531605,1148.554848,-95.712904,-10911.271056
447.534166,-153.140646,1129.412267,-9590.432981
447.536727,153.140646,153.140646,-9169.296203
447.539288,1454.836141,-1952.543242,-9571.290400
447.541849,-650.847747,-76.570323,-9992.427178
447.544410,210.568389,-2488.535504,-10470.991698
447.546971,191.425808,-3235.096155,-10222.138147
447.549532,38.285162,784.845813,-8939.585234
447.552093,2105.683888,-2507.678085,-9686.145885
447.554654,-1569.691626,4115.654872,-9820.143950
447.557215,2009.970984,-880.558717,-10566.704602
447.559776,-765.703232,5570.491013,-8882.157491
447.562337,191.425808,4402.793584,-9131.011042
447.564898,937.986459,2679.961312,-9647.860723
447.567459,861.416136,2507.678085,-9781.858789
447.570020,708.275490,-1971.685822,-9934.999435
447.572581,-114.855485,2450.250342,-9188.438784
447.575142,612.562586,1359.123237,-10202.995566
447.577703,746.560651,-689.132909,-9896.714274
447.580264,229.710970,1167.697429,-8633.303941
447.582825,574.277424,631.705166,-9647.860723
447.585386,669.990328,1244.267752,-10528.419440
447.587947,-229.710970,3273.381317,-9265.009107
447.590508,478.564520,1914.258080,-9379.864592
447.593069,708.275490,-3407.379382,-9207.581365
447.595630,-133.998066,3407.379382,-9590.432981
447.598191,-38.285162,2450.250342,-10413.563955
447.600752,1684.547110,3407.379382,-9399.007173
447.603313,-440.279358,-1761.117434,-9609.575562
447.605874,631.705166,2603.390989,-8575.876198
447.608435,765.703232,-5130.211654,-10585.847182
447.610996,229.710970,-3158.525832,-10509.276859
447.613557,516.849682,-2469.392923,-9801.001370
447.616118,1071.984525,-1378.265818,-9839.286531
447.618679,306.281293,3292.523898,-9513.862658
447.621240,516.849682,-1550.549045,-10298.708470
447.623801,631.705166,1225.125171,-8805.587168
447.626362,19.142581,1148.554848,-9724.431046
447.628923,880.558717,229.710970,-10930.413637
447.631484,325.423874,669.990328,-9341.579430
447.634045,-133.998066,-95.712904,-9188.438784
447.636608,976.271621,-2182.254211,-9801.001370
447.639170,937.986459,440.279358,-9934.999435
447.641733,287.138712,-2009.970984,-10298.708470
447.644296,823.130974,-6967.899411,-10815.558152
447.646858,-823.130974,1856.830338,-8786.444587
447.649421,2297.109696,-1703.689691,-9915.856854
447.651983,-727.418070,3771.088418,-10183.852986
447.654546,650.847747,4019.941968,-9590.432981
447.657109,1205.982590,1856.830338,-9322.436850
447.659671,-612.562586,6336.194245,-9016.155557
447.662234,937.986459,3101.098090,-9303.294269
447.664796,823.130974,1263.410333,-9896.714274
447.667359,746.560651,-1454.836141,-9801.001370
447.669921,57.427742,2584.248408,-9418.149754
447.672484,421.136778,153.140646,-10662.417506
447.675047,708.275490,727.418070,-9226.723946
447.677609,516.849682,1014.556782,-8767.302006
447.680172,-191.425808,574.277424,-10413.563955
447.682734,612.562586,1071.984525,-10624.132344
447.685297,746.560651,3809.373579,-8997.012976
447.687860,1225.125171,727.418070,-9513.862658
447.690422,-133.998066,3005.385186,-9475.577496
447.692985,555.134843,6546.762634,-8786.444587
447.695547,421.136778,229.710970,-10719.845248
447.698110,421.136778,3847.658741,-8977.870395
447.700673,516.849682,-2603.390989,-9322.436850
447.703235,-19.142581,-3866.801322,-10547.562021
447.705798,784.845813,421.136778,-9399.007173
447.708360,880.558717,-4421.936165,-10662.417506
447.710923,306.281293,-2450.250342,-9973.284597
447.713486,708.275490,1607.976787,-9303.294269
447.716048,689.132909,1914.258080,-9915.856854
447.718611,382.851616,57.427742,-9016.155557
447.721173,1014.556782,1320.838075,-9016.155557
447.723736,344.566454,746.560651,-10624.132344
447.726298,114.855485,172.283227,-10375.278794
447.728861,689.132909,1244.267752,-8595.018779
447.731424,803.988394,-1895.115499,-9590.432981
447.733986,-421.136778,-1378.265818,-10547.562021
447.736549,976.271621,-1837.687757,-10126.425243
447.739113,-229.710970,-497.707101,-10183.852986
447.741677,957.129040,-2411.965181,-9533.005238
447.744242,2239.681954,-2450.250342,-9322.436850
447.746806,-1263.410333,4555.934230,-9781.858789
447.749370,1722.832272,-267.996131,-10509.276859
447.751935,-631.705166,4823.930362,-8977.870395
447.754499,-172.283227,4555.934230,-9111.868461
447.757063,861.416136,2986.242605,-9724.431046
447.759627,1244.267752,3617.947771,-9284.151688
447.762192,-95.712904,-708.275490,-9820.143950
447.764756,57.427742,727.418070,-9877.571693
447.767320,727.418070,2163.111630,-9915.856854
447.769885,574.277424,-267.996131,-9743.573627
447.772449,803.988394,1244.267752,-8537.591037
447.775013,325.423874,1148.554848,-9686.145885
447.777577,401.994197,478.564520,-10949.556218
447.780142,689.132909,3694.518094,-9150.153622
447.782706,1129.412267,1301.695494,-9322.436850
447.785270,306.281293,3043.670347,-9418.149754
447.787834,95.712904,5493.920690,-9111.868461
447.790399,-38.285162,1052.841944,-10624.132344
447.792963,1569.691626,4632.504554,-9207.581365
447.795527,172.283227,-3235.096155,-9571.290400
447.798092,382.851616,-1895.115499,-9743.573627
447.800656,497.707101,-631.705166,-9628.718142
447.803220,669.990328,-4536.791650,-10758.130410
447.805784,191.425808,-2411.965181,-9858.429112
447.808349,842.273555,1397.408398,-9475.577496
447.810913,918.843878,1933.400661,-9820.143950
447.813477,172.283227,-516.849682,-9820.143950
447.816042,440.279358,1071.984525,-8977.870395
447.818606,1225.125171,669.990328,-9877.571693
447.821170,306.281293,-57.427742,-10758.130410
447.823734,-172.283227,1263.410333,-8843.872330
447.826299,1473.978722,-1646.261949,-9341.579430
447.828863,-363.709035,-918.843878,-10222.138147
447.831427,880.558717,-2584.248408,-10241.280728
447.833992,-306.281293,-708.275490,-10164.710405
447.836556,861.416136,-1741.974853,-9475.577496
447.839120,1454.836141,-1665.404530,-9322.436850
447.841686,-765.703232,3407.379382,-9360.722011
447.844251,1684.547110,-421.136778,-10719.845248
447.846816,-287.138712,4709.074877,-9111.868461
447.849382,-421.136778,5302.494882,-9016.155557
447.851947,937.986459,2928.814862,-9647.860723
447.854512,1378.265818,3139.383251,-9303.294269
447.857078,95.712904,-516.849682,-9667.003304
447.859643,-248.853550,612.562586,-9973.284597
447.862209,803.988394,2009.970984,-10030.712339
447.864774,382.851616,-229.710970,-9915.856854
447.867339,401.994197,210.568389,-8863.014910
447.869905,306.281293,2526.820666,-9379.864592
447.872470,440.279358,612.562586,-10911.271056
447.875036,306.281293,3215.953574,-9418.149754
447.877601,1397.408398,2584.248408,-8863.014910
447.880166,-133.998066,1320.838075,-9533.005238
447.882732,248.853550,7446.463931,-8690.731683
447.885297,133.998066,689.132909,-10566.704602
447.887863,1416.550979,4402.793584,-9322.436850
447.890428,191.425808,-3024.527766,-9877.571693
447.892993,555.134843,-727.418070,-9303.294269
447.895559,382.851616,172.283227,-9571.290400
447.898124,1148.554848,-4632.504554,-10681.560086
447.900690,421.136778,-2201.396792,-9915.856854
447.903255,-229.710970,2565.105827,-9284.151688
447.905820,1167.697429,421.136778,-10241.280728
447.908386,153.140646,612.562586,-8977.870395
447.910951,440.279358,210.568389,-9303.294269
447.913516,1091.127106,957.129040,-10183.852986
447.916082,229.710970,-153.140646,-10853.843314
447.918647,-95.712904,957.129040,-8863.014910
447.921213,784.845813,-995.414202,-9092.725880
447.923778,1282.552914,-765.703232,-10126.425243
447.926343,133.998066,-229.710970,-9934.999435
447.928909,612.562586,-6202.196179,-11121.839445
447.931474,-421.136778,1454.836141,-8748.159426
447.934040,2469.392923,-2890.529701,-9322.436850
447.936605,-976.271621,4977.071008,-9609.575562
447.939170,1301.695494,1607.976787,-10375.278794
447.941736,478.564520,3254.238736,-9571.290400
447.944302,-555.134843,6451.049730,-9265.009107
447.946869,727.418070,2909.672282,-9341.579430
447.949435,440.279358,95.712904,-9724.431046
447.952002,842.273555,1110.269686,-9303.294269
447.954569,-19.142581,689.132909,-10049.854920
447.957135,497.707101,612.562586,-10509.276859
447.959702,957.129040,1186.840010,-9207.581365
447.962268,516.849682,478.564520,-8977.870395
447.964835,172.283227,650.847747,-10643.274925
447.967401,784.845813,3081.955509,-10202.995566
447.969968,344.566454,1627.119368,-9533.005238
447.972535,784.845813,4115.654872,-8786.444587
447.975101,-114.855485,1569.691626,-9628.718142
447.977668,325.423874,3732.803256,-9896.714274
447.980234,1741.974853,3809.373579,-9839.286531
447.982801,-114.855485,-1531.406464,-10413.563955
447.985367,593.420005,2450.250342,-8365.307810
447.987934,382.851616,-3330.809059,-9877.571693
447.990501,114.855485,-4804.787781,-10949.556218
447.993067,-76.570323,-1780.260014,-9781.858789
447.995634,2182.254211,-516.849682,-10088.140082
447.998200,-727.418070,2009.970984,-9724.431046
448.000767,-382.851616,440.279358,-9628.718142
448.003333,1550.549045,401.994197,-8805.587168
448.005900,401.994197,344.566454,-9954.142016
448.008467,-306.281293,133.998066,-11064.411702
448.011033,478.564520,1014.556782,-9054.440718
448.013600,1148.554848,-1301.695494,-8997.012976
448.016166,38.285162,-765.703232,-9647.860723
448.018733,631.705166,-2584.248408,-10509.276859
448.021299,-153.140646,-1684.547110,-10643.274925
448.023866,401.994197,-459.421939,-9265.009107
448.026433,1722.832272,-3062.812928,-9590.432981
448.029000,-1129.412267,4153.940034,-8977.870395
448.031567,2009.970984,-2009.970984,-10930.413637
448.034135,210.568389,3732.803256,-9647.860723
448.036702,-421.136778,6719.045861,-8824.729749
448.039269,861.416136,2507.678085,-9513.862658
448.041836,918.843878,2699.103893,-9265.009107
448.044403,689.132909,-1110.269686,-9609.575562
448.046970,-401.994197,1339.980656,-9992.427178
448.049538,746.560651,2201.396792,-10298.708470
448.052105,650.847747,287.138712,-9781.858789
448.054672,172.283227,133.998066,-8480.163294
448.057239,803.988394,1971.685822,-9207.581365
448.059806,344.566454,1933.400661,-10911.271056
448.062373,-19.142581,2852.244539,-9571.290400
448.064941,1186.840010,3866.801322,-8709.874264
448.067508,114.855485,57.427742,-9647.860723
448.070075,210.568389,5513.063270,-9265.009107
448.072642,1607.976787,2967.100024,-10011.569758
448.075209,0.000000,440.279358,-10241.280728
448.077776,918.843878,1550.549045,-8748.159426
448.080343,57.427742,-6221.338760,-10413.563955
448.082911,0.000000,-1435.693560,-9705.288466
448.085478,650.847747,-1493.121302,-9801.001370
448.088045,1741.974853,-1684.547110,-10279.565890
448.090612,-1129.412267,3464.807125,-9647.860723
448.093179,650.847747,-401.994197,-9992.427178
448.095746,1454.836141,440.279358,-8403.592971
448.098314,114.855485,823.130974,-9801.001370
448.100881,57.427742,363.709035,-11217.552349
448.103448,727.418070,1435.693560,-9513.862658
448.106015,612.562586,-1225.125171,-8997.012976
448.108582,535.992262,-1512.263883,-9552.147819
448.111149,593.420005,-1895.115499,-10356.136213
448.113717,172.283227,-2048.256146,-10815.558152
448.116284,133.998066,-76.570323,-9437.292334
448.118851,1741.974853,-3196.810994,-9456.434915
448.121418,-1071.984525,4211.367776,-8709.874264
448.123985,1703.689691,-2124.826469,-11045.269122
448.126552,-555.134843,6106.483275,-9341.579430
448.129120,593.420005,4996.213589,-9111.868461
448.131688,574.277424,3139.383251,-9667.003304
448.134255,899.701298,2182.254211,-9111.868461
448.136823,612.562586,-1569.691626,-9609.575562
448.139391,-382.851616,2182.254211,-9743.573627
448.141959,727.418070,1665.404530,-10604.989763
448.144526,612.562586,-287.138712,-9801.001370
448.147094,76.570323,1052.841944,-8193.024582
448.149662,957.129040,861.416136,-9513.862658
448.152229,38.285162,1416.550979,-10930.413637
448.154797,-76.570323,3656.232933,-9686.145885
448.157365,1837.687757,3273.381317,-9092.725880
448.159933,-344.566454,1818.545176,-9226.723946
448.162500,-19.142581,3215.953574,-9686.145885
448.165068,1818.545176,3675.375514,-10011.569758
448.167636,57.427742,-937.986459,-10432.706536
448.170203,727.418070,2986.242605,-8537.591037
448.172771,497.707101,-5953.342629,-10145.567824
448.175339,-153.140646,-3598.805190,-10202.995566
448.177907,937.986459,-1914.258080,-9801.001370
448.180474,1301.695494,-1512.263883,-10241.280728
448.183042,-650.847747,3579.662610,-9647.860723
448.185610,-76.570323,-842.273555,-9475.577496
448.188177,1263.410333,1014.556782,-8307.880067
448.190745,325.423874,918.843878,-10107.282662
448.193313,421.136778,-306.281293,-11466.405899
448.195881,401.994197,1531.406464,-9207.581365
448.198448,631.705166,-1722.832272,-9150.153622
448.201016,899.701298,-1205.982590,-9399.007173
448.203584,535.992262,-1205.982590,-10107.282662
448.206152,382.851616,-3924.229064,-11236.694930
448.208719,-19.142581,976.271621,-9513.862658
448.211287,2258.824534,-3215.953574,-9533.005238
448.213855,-842.273555,4153.940034,-9226.723946
448.216422,976.271621,2488.535504,-10049.854920
448.218990,842.273555,2967.100024,-9877.571693
448.221558,-535.992262,6527.620053,-9245.866526
448.224126,976.271621,2852.244539,-9494.720077
448.226693,861.416136,1301.695494,-9207.581365
448.229261,612.562586,-1282.552914,-9475.577496
448.231829,-210.568389,2679.961312,-9667.003304
448.234398,823.130974,229.710970,-11121.839445
448.236966,612.562586,363.709035,-8997.012976
448.239534,516.849682,1550.549045,-8212.167163
448.242103,306.281293,-19.142581,-10432.706536
448.244671,535.992262,2794.816797,-10604.989763
448.247239,1033.699363,2718.246474,-9667.003304
448.249808,478.564520,2354.537438,-9207.581365
448.252376,-153.140646,5321.637462,-8422.735552
448.254944,-114.855485,937.986459,-9954.142016
448.257513,1378.265818,4938.785846,-9724.431046
448.260081,382.851616,-2316.252277,-10145.567824
448.262649,478.564520,-2029.113565,-9590.432981
448.265218,210.568389,-746.560651,-9188.438784
448.267786,880.558717,-5666.203917,-10643.274925
448.270354,-95.712904,-1703.689691,-9896.714274
448.272923,1416.550979,1627.119368,-10107.282662
448.275491,1014.556782,1397.408398,-10279.565890
448.278059,-133.998066,-727.418070,-8824.729749
448.280628,746.560651,1167.697429,-8461.020714
448.283196,133.998066,593.420005,-10490.134278
448.285764,899.701298,-114.855485,-10700.702667
448.288333,535.992262,689.132909,-8958.727814
448.290901,344.566454,-1301.695494,-8997.012976
448.293469,1052.841944,-3905.086483,-10088.140082
448.296038,-133.998066,2163.111630,-9743.573627
448.298606,1110.269686,-3885.943902,-11083.554283
448.301174,765.703232,-57.427742,-9341.579430
448.303743,-229.710970,842.273555,-8977.870395
448.306311,1646.261949,-1244.267752,-10145.567824
448.308879,-1148.554848,6757.331022,-9073.583299
448.311448,765.703232,5034.498750,-9418.149754
448.314016,440.279358,3981.656806,-9590.432981
448.316584,1205.982590,3445.664544,-9054.440718
448.319153,-363.709035,-727.418070,-9131.011042
448.321721,535.992262,-76.570323,-9820.143950
448.324289,995.414202,1914.258080,-10528.419440
448.326858,669.990328,516.849682,-10528.419440
448.329426,0.000000,-114.855485,-8671.589102
448.331994,1033.699363,2048.256146,-8422.735552
448.334563,478.564520,1282.552914,-10509.276859
448.337131,95.712904,2431.107762,-10317.851051
448.339699,574.277424,4441.078746,-9226.723946
448.342268,-114.855485,1971.685822,-9016.155557
448.344836,114.855485,2603.390989,-9360.722011
448.347404,1282.552914,4498.506488,-9284.151688
448.349972,133.998066,-2029.113565,-11064.411702
448.352541,823.130974,3905.086483,-8805.587168
448.355109,842.273555,-5206.781978,-10126.425243
448.357677,-287.138712,-4058.227130,-10011.569758
448.360246,-306.281293,-1741.974853,-9590.432981
448.362814,2086.541307,784.845813,-10145.567824
448.365382,-401.994197,1761.117434,-10432.706536
448.367950,-612.562586,287.138712,-9418.149754
448.370519,1435.693560,478.564520,-8116.454259
448.373087,191.425808,248.853550,-9686.145885
448.375655,153.140646,574.277424,-11370.692995
448.378224,421.136778,708.275490,-9820.143950
448.380792,421.136778,-1416.550979,-9054.440718
448.383360,1263.410333,-3579.662610,-9667.003304
448.385929,-210.568389,2029.113565,-9418.149754
448.388497,880.558717,-4268.795518,-11198.409768
448.391065,440.279358,153.140646,-9801.001370
448.393633,-19.142581,153.140646,-9226.723946
448.396202,1493.121302,-191.425808,-9513.862658
448.398770,-918.843878,6087.340694,-9150.153622
448.401338,976.271621,4345.365842,-9494.720077
448.403907,229.710970,4613.361973,-9839.286531
448.406475,727.418070,3694.518094,-9322.436850
448.409043,-459.421939,-727.418070,-8843.872330
448.411611,784.845813,-535.992262,-9513.862658
448.414180,1033.699363,2105.683888,-10490.134278
448.416748,459.421939,803.988394,-10949.556218
448.419316,-76.570323,38.285162,-8863.014910
448.421885,1148.554848,1531.406464,-8346.165229
448.424453,38.285162,1244.267752,-10432.706536
448.427021,708.275490,2335.394858,-10260.423309
448.429589,784.845813,4383.651003,-9418.149754
448.432158,-229.710970,3101.098090,-8958.727814
448.434726,95.712904,1550.549045,-9533.005238
448.437294,1225.125171,4957.928427,-9054.440718
448.439863,57.427742,-2890.529701,-11160.124606
448.442431,459.421939,3579.662610,-9016.155557
448.445000,631.705166,-4383.651003,-9934.999435
448.447568,57.427742,-4670.789715,-10260.423309
448.450137,727.418070,-2641.676150,-9341.579430
448.452705,2182.254211,1282.552914,-10068.997501
448.455273,114.855485,1244.267752,-10681.560086
448.457842,-612.562586,172.283227,-9379.864592
448.460410,1148.554848,382.851616,-8307.880067
448.462979,210.568389,229.710970,-9915.856854
448.465547,76.570323,-172.283227,-11466.405899
448.468116,497.707101,823.130974,-9686.145885
448.470684,229.710970,-1186.840010,-9341.579430
448.473252,1378.265818,-3598.805190,-9609.575562
448.475821,-191.425808,2163.111630,-9686.145885
448.478389,803.988394,-1703.689691,-10681.560086
448.480958,1914.258080,-1627.119368,-9973.284597
448.483526,-842.273555,3483.949706,-8671.589102
448.486095,2029.113565,-3158.525832,-10241.280728
448.488663,-957.129040,5723.631659,-9150.153622
448.491232,976.271621,4153.940034,-9399.007173
448.493800,133.998066,4785.645200,-9877.571693
448.496368,823.130974,3790.230998,-9571.290400
448.498937,-172.283227,-1071.984525,-9016.155557
448.501505,-440.279358,-344.566454,-9781.858789
448.504074,765.703232,2201.396792,-10700.702667
448.506642,765.703232,497.707101,-10566.704602
448.509211,344.566454,1167.697429,-8518.448456
448.511779,267.996131,1014.556782,-8805.587168
448.514347,612.562586,1091.127106,-10317.851051
448.516916,1014.556782,2507.678085,-10222.138147
448.519484,555.134843,3656.232933,-9705.288466
448.522053,114.855485,4575.076811,-8595.018779
448.524621,-133.998066,746.560651,-9533.005238
448.527190,899.701298,4823.930362,-9265.009107
448.529758,344.566454,-2852.244539,-10624.132344
448.532326,-95.712904,-1014.556782,-10164.710405
448.534895,727.418070,-631.705166,-9054.440718
448.537463,823.130974,-6585.047795,-10604.989763
448.540036,-325.423874,-1320.838075,-9245.866526
448.542605,1435.693560,2105.683888,-9896.714274
448.545173,1014.556782,535.992262,-10987.841379
448.547742,-248.853550,287.138712,-9226.723946
448.550311,976.271621,191.425808,-8537.591037
448.552879,880.558717,612.562586,-10356.136213
448.555448,76.570323,172.283227,-10853.843314
448.558017,459.421939,555.134843,-9379.864592
448.560585,1339.980656,-937.986459,-9226.723946
448.563154,267.996131,-2143.969050,-9686.145885
448.565723,287.138712,-3656.232933,-10298.708470
448.568291,-57.427742,478.564520,-10183.852986
448.570860,2450.250342,-3349.951640,-10183.852986
448.573428,-1282.552914,5474.778109,-8480.163294
448.575997,1684.547110,-1397.408398,-10164.710405
448.578566,1071.984525,2545.963246,-9399.007173
448.581134,-555.134843,6374.479406,-9628.718142
448.583703,612.562586,3579.662610,-10011.569758
448.586272,727.418070,861.416136,-9552.147819
448.588840,823.130974,401.994197,-8575.876198
448.591409,76.570323,363.709035,-9686.145885
448.593978,957.129040,1780.260014,-10834.700733
448.596546,497.707101,497.707101,-10164.710405
448.599115,287.138712,1320.838075,-8461.020714
448.601684,363.709035,1684.547110,-9437.292334
448.604252,248.853550,1684.547110,-10490.134278
448.606821,842.273555,4402.793584,-9724.431046
448.609390,325.423874,1627.119368,-9705.288466
448.611958,382.851616,3943.371645,-9207.581365
448.614527,1416.550979,3215.953574,-8805.587168
448.617096,-248.853550,-267.996131,-10394.421374
448.619664,1033.699363,2239.681954,-9571.290400
448.622233,153.140646,-5111.069074,-10738.987829
448.624802,210.568389,-2009.970984,-9552.147819
448.627370,689.132909,-3005.385186,-9399.007173
448.629939,1320.838075,-689.132909,-9820.143950
448.632507,-689.132909,2909.672282,-10336.993632
448.635076,172.283227,-133.998066,-10451.849117
448.637645,1359.123237,669.990328,-8135.596840
448.640213,191.425808,497.707101,-9188.438784
448.642782,95.712904,-918.843878,-11236.694930
448.645350,1071.984525,1225.125171,-9896.714274
448.647919,-421.136778,-229.710970,-9379.864592
448.650487,1244.267752,-4077.369710,-9705.288466
448.653055,-38.285162,-708.275490,-9399.007173
448.655624,535.992262,-1320.838075,-10260.423309
448.658192,1933.400661,-2086.541307,-10394.421374
448.660761,-1014.556782,4019.941968,-8901.300072
448.663329,2143.969050,-3254.238736,-10241.280728
448.665898,-1167.697429,5168.496816,-9054.440718
448.668466,957.129040,4364.508422,-9073.583299
