#time,accel_x,accel_y,accel_z
732.500796,1607.976787,1244.267752,-8939.585234
732.503931,1952.543242,-267.996131,-9896.714274
732.507065,1569.691626,995.414202,-9475.577496
732.510200,765.703232,-1033.699363,-9820.143950
732.513335,229.710970,1741.974853,-9379.864592
732.516470,-1493.121302,765.703232,-9973.284597
732.519604,-210.568389,784.845813,-9379.864592
732.522739,2048.256146,1129.412267,-9513.862658
732.525874,4326.223261,746.560651,-9954.142016
732.529008,5149.354235,995.414202,-9035.298138
732.532143,229.710970,267.996131,-9571.290400
732.535278,-2124.826469,363.709035,-9801.001370
732.538412,-2220.539373,440.279358,-9705.288466
732.541547,-765.703232,1761.117434,-9245.866526
732.544682,-574.277424,957.129040,-9647.860723
732.547816,-325.423874,669.990328,-9552.147819
732.550951,95.712904,1129.412267,-9724.431046
732.554086,1741.974853,-76.570323,-9552.147819
732.557220,1339.980656,937.986459,-9494.720077
732.560355,765.703232,-574.277424,-9667.003304
732.563490,-1473.978722,1933.400661,-9284.151688
732.566624,-1818.545176,-19.142581,-10356.136213
732.569759,267.996131,1550.549045,-9016.155557
732.572894,516.849682,497.707101,-9973.284597
732.576028,727.418070,1263.410333,-9705.288466
732.579163,1435.693560,574.277424,-9399.007173
732.582298,1033.699363,-38.285162,-9686.145885
732.585433,363.709035,976.271621,-9456.434915
732.588567,-650.847747,555.134843,-9590.432981
732.591702,248.853550,1339.980656,-9418.149754
732.594837,-899.701298,-172.283227,-10279.565890
732.597991,-1856.830338,1493.121302,-9207.581365
732.601145,-1684.547110,574.277424,-9667.003304
732.604299,2201.396792,765.703232,-9571.290400
732.607453,650.847747,-803.988394,-9724.431046
732.610607,-1071.984525,918.843878,-9131.011042
732.613762,-1033.699363,976.271621,-9724.431046
732.616916,2354.537438,478.564520,-9839.286531
732.620070,1205.982590,957.129040,-9322.436850
732.623224,-306.281293,478.564520,-9858.429112
732.626378,401.994197,2067.398726,-9379.864592
732.629532,2124.826469,803.988394,-9724.431046
732.632687,1952.543242,153.140646,-9092.725880
732.635841,38.285162,574.277424,-9322.436850
732.638995,-803.988394,172.283227,-10183.852986
732.642149,1320.838075,1780.260014,-9533.005238
732.645303,1301.695494,-38.285162,-9820.143950
732.648457,746.560651,2105.683888,-9054.440718
732.651612,861.416136,-555.134843,-10049.854920
732.654766,1875.972918,1895.115499,-9360.722011
732.657920,1990.828403,-325.423874,-9781.858789
732.661074,1052.841944,650.847747,-9111.868461
732.664228,-133.998066,172.283227,-9954.142016
732.667382,-555.134843,1110.269686,-9590.432981
732.670536,-95.712904,1071.984525,-9475.577496
732.673691,-1225.125171,995.414202,-9667.003304
732.676845,0.000000,1493.121302,-9590.432981
732.679999,1531.406464,287.138712,-9724.431046
732.683153,2201.396792,1646.261949,-9111.868461
732.686307,1339.980656,-478.564520,-9762.716208
732.689461,229.710970,497.707101,-9379.864592
732.692616,1512.263883,555.134843,-10068.997501
732.695770,765.703232,957.129040,-9647.860723
732.698982,57.427742,1320.838075,-9207.581365
732.702152,899.701298,746.560651,-9934.999435
732.705322,2220.539373,2258.824534,-9379.864592
732.708492,3617.947771,-746.560651,-9992.427178
732.711662,-1301.695494,574.277424,-9092.725880
732.714831,-19.142581,-248.853550,-9877.571693
732.718001,535.992262,2297.109696,-9360.722011
732.721171,-650.847747,344.566454,-10011.569758
732.724341,-3637.090352,918.843878,-9571.290400
732.727511,-1378.265818,-210.568389,-9762.716208
732.730681,2507.678085,1493.121302,-9705.288466
732.733851,3388.236802,1167.697429,-9418.149754
732.737021,1359.123237,-784.845813,-9552.147819
732.740191,-765.703232,172.283227,-9571.290400
732.743361,-3081.955509,325.423874,-10317.851051
732.746531,-708.275490,1091.127106,-9379.864592
732.749701,-191.425808,1225.125171,-9188.438784
732.752871,440.279358,382.851616,-9992.427178
732.756041,57.427742,1512.263883,-9667.003304
732.759211,478.564520,-306.281293,-9686.145885
732.762381,1952.543242,1722.832272,-8843.872330
732.765551,842.273555,-880.558717,-10126.425243
732.768721,-765.703232,1703.689691,-9379.864592
732.771891,-1512.263883,210.568389,-10183.852986
732.775061,-995.414202,1703.689691,-9111.868461
732.778231,-1416.550979,650.847747,-9628.718142
732.781401,631.705166,1454.836141,-9743.573627
732.784571,1741.974853,708.275490,-9628.718142
732.787741,210.568389,-325.423874,-9513.862658
732.790911,-344.566454,574.277424,-9360.722011
732.794081,1397.408398,-153.140646,-10068.997501
732.797251,-1569.691626,1014.556782,-9590.432981
732.800435,-3196.810994,957.129040,-9533.005238
732.803619,-1588.834206,1741.974853,-9571.290400
732.806803,2737.389054,1071.984525,-9915.856854
732.809986,2526.820666,-133.998066,-9437.292334
732.813170,1186.840010,1301.695494,-9360.722011
732.816354,784.845813,-344.566454,-9915.856854
732.819538,2354.537438,2143.969050,-9131.011042
732.822722,133.998066,-612.562586,-9781.858789
732.825906,-1359.123237,1856.830338,-8863.014910
732.829090,-1014.556782,153.140646,-10375.278794
732.832274,1359.123237,1837.687757,-9571.290400
732.835457,3522.234867,306.281293,-9475.577496
732.838641,2201.396792,784.845813,-9207.581365
732.841825,1282.552914,306.281293,-9552.147819
732.845009,1205.982590,708.275490,-9992.427178
732.848193,-325.423874,861.416136,-9379.864592
732.851377,-401.994197,459.421939,-9513.862658
732.854561,-803.988394,1435.693560,-9628.718142
732.857745,-727.418070,555.134843,-9801.001370
732.860928,535.992262,1091.127106,-9284.151688
732.864112,1091.127106,631.705166,-9590.432981
732.867296,1856.830338,325.423874,-9475.577496
732.870480,1186.840010,1091.127106,-9628.718142
732.873664,1071.984525,440.279358,-9705.288466
732.876848,421.136778,1339.980656,-9379.864592
732.880032,0.000000,-19.142581,-9743.573627
732.883215,1684.547110,2220.539373,-9284.151688
732.886399,1780.260014,267.996131,-10068.997501
732.889583,2756.531635,1110.269686,-9073.583299
732.892767,4498.506488,1167.697429,-9418.149754
732.895951,2641.676150,-210.568389,-10011.569758
732.899135,-4000.799387,440.279358,-9341.579430
732.902215,-1493.121302,153.140646,-9743.573627
732.905295,153.140646,2431.107762,-9475.577496
732.908375,-114.855485,497.707101,-9954.142016
732.911455,-2105.683888,1531.406464,-9150.153622
732.914535,306.281293,-1033.699363,-10068.997501
732.917615,2679.961312,1244.267752,-9418.149754
732.920695,3062.812928,363.709035,-9207.581365
732.923775,191.425808,842.273555,-9379.864592
732.926855,-2163.111630,-210.568389,-10222.138147
732.929935,-3464.807125,1110.269686,-9552.147819
732.933014,-248.853550,1263.410333,-9686.145885
732.936094,-95.712904,708.275490,-9513.862658
732.939174,1378.265818,1244.267752,-9226.723946
732.942254,2086.541307,191.425808,-10068.997501
732.945334,1205.982590,497.707101,-9456.434915
732.948414,-382.851616,306.281293,-9360.722011
732.951494,-344.566454,708.275490,-9647.860723
732.954574,-918.843878,1167.697429,-10030.712339
732.957654,-1071.984525,669.990328,-9705.288466
732.960734,401.994197,1225.125171,-9054.440718
732.963814,1205.982590,574.277424,-9858.429112
732.966894,612.562586,1033.699363,-9667.003304
732.969974,210.568389,95.712904,-9456.434915
732.973054,-957.129040,516.849682,-9590.432981
732.976074,957.129040,306.281293,-9705.288466
732.979094,-1627.119368,267.996131,-9686.145885
732.982114,-2928.814862,1033.699363,-9877.571693
732.985134,-918.843878,1359.123237,-9437.292334
732.988155,2277.967115,1493.121302,-9513.862658
732.991175,3503.092286,0.000000,-9781.858789
732.994195,1359.123237,1033.699363,-9188.438784
732.997215,19.142581,-114.855485,-9820.143950
733.000235,440.279358,1627.119368,-9552.147819
733.003255,-1282.552914,478.564520,-9647.860723
733.006275,-1493.121302,1033.699363,-9092.725880
733.009295,-153.140646,1397.408398,-10107.282662
733.012315,2909.672282,1033.699363,-9743.573627
733.015335,3407.379382,842.273555,-9054.440718
733.018355,1875.972918,210.568389,-9724.431046
733.021375,765.703232,708.275490,-9647.860723
733.024396,-287.138712,210.568389,-9571.290400
733.027416,19.142581,1282.552914,-9513.862658
733.030436,-440.279358,478.564520,-9801.001370
733.033456,-535.992262,1339.980656,-9303.294269
733.036476,267.996131,842.273555,-9839.286531
733.039496,1971.685822,746.560651,-9590.432981
733.042516,1531.406464,497.707101,-9245.866526
733.045536,2124.826469,363.709035,-9207.581365
733.048556,1263.410333,727.418070,-9973.284597
733.051576,-555.134843,172.283227,-9781.858789
733.054596,172.283227,1722.832272,-9016.155557
733.057616,1761.117434,669.990328,-10049.854920
733.060637,-727.418070,1301.695494,-9475.577496
733.063657,2718.246474,-306.281293,-9705.288466
733.066677,4900.500685,1129.412267,-9245.866526
733.069697,2239.681954,382.851616,-9743.573627
733.072683,-4058.227130,-133.998066,-9743.573627
733.075670,-2163.111630,267.996131,-9877.571693
733.078657,-727.418070,708.275490,-10068.997501
733.081644,-191.425808,2009.970984,-8920.442653
733.084630,-1071.984525,1014.556782,-9667.003304
733.087617,1914.258080,-57.427742,-10126.425243
733.090604,1895.115499,114.855485,-9265.009107
733.093590,2105.683888,861.416136,-8863.014910
733.096577,-1129.412267,669.990328,-9762.716208
733.099564,-2641.676150,459.421939,-9801.001370
733.102550,-2258.824534,1110.269686,-9781.858789
733.105537,-57.427742,650.847747,-9590.432981
733.108524,-823.130974,1052.841944,-9360.722011
733.111510,937.986459,459.421939,-9915.856854
733.114497,2488.535504,1282.552914,-9379.864592
733.117484,1435.693560,-306.281293,-9954.142016
733.120470,0.000000,421.136778,-9150.153622
733.123457,-478.564520,765.703232,-9934.999435
733.126444,-1493.121302,803.988394,-10107.282662
733.129430,-957.129040,1799.402595,-8977.870395
733.132417,267.996131,-172.283227,-9934.999435
733.135404,1780.260014,1493.121302,-9360.722011
733.138391,631.705166,-382.851616,-9820.143950
733.141377,-133.998066,1244.267752,-9150.153622
733.144364,612.562586,114.855485,-9858.429112
733.147351,-1454.836141,344.566454,-9418.149754
733.150337,-3196.810994,861.416136,-9858.429112
733.153324,-459.421939,2009.970984,-9647.860723
733.156311,937.986459,1167.697429,-9533.005238
733.159297,3005.385186,593.420005,-9245.866526
733.162284,2488.535504,937.986459,-9188.438784
733.165271,1493.121302,-95.712904,-9954.142016
733.168241,-306.281293,2009.970984,-9188.438784
733.171211,-2048.256146,669.990328,-9647.860723
733.174181,-1914.258080,995.414202,-9379.864592
733.177151,-153.140646,1052.841944,-9954.142016
733.180122,3081.955509,1033.699363,-9762.716208
733.183092,3771.088418,803.988394,-9035.298138
733.186062,1531.406464,-57.427742,-9647.860723
733.189032,1512.263883,1416.550979,-9456.434915
733.192002,516.849682,-574.277424,-10049.854920
733.194972,0.000000,1569.691626,-8901.300072
733.197943,-995.414202,287.138712,-10011.569758
733.200913,-861.416136,1646.261949,-9552.147819
733.203883,-344.566454,382.851616,-9590.432981
733.206853,1512.263883,1244.267752,-9303.294269
733.209823,1837.687757,612.562586,-9533.005238
733.212793,1205.982590,-210.568389,-9839.286531
733.215764,2009.970984,325.423874,-9475.577496
733.218734,421.136778,344.566454,-9801.001370
733.221704,555.134843,1359.123237,-9437.292334
733.224674,-976.271621,287.138712,-9858.429112
733.227644,2622.533570,1110.269686,-9609.575562
733.230615,5015.356170,325.423874,-9647.860723
733.233585,3483.949706,1052.841944,-9111.868461
733.236555,-2163.111630,535.992262,-9915.856854
733.239525,-2277.967115,-1225.125171,-10068.997501
733.242495,-746.560651,2297.109696,-8977.870395
733.245465,-746.560651,861.416136,-9915.856854
733.248436,-1741.974853,2469.392923,-8920.442653
733.251406,765.703232,-784.845813,-10375.278794
733.254376,2277.967115,1339.980656,-9533.005238
733.257346,2660.818731,478.564520,-9207.581365
733.260316,-555.134843,344.566454,-9284.151688
733.263281,-1761.117434,-38.285162,-10126.425243
733.266246,-746.560651,669.990328,-9954.142016
733.269211,-535.992262,1301.695494,-9035.298138
733.272175,-631.705166,516.849682,-9781.858789
733.275140,784.845813,1550.549045,-9686.145885
733.278105,95.712904,172.283227,-9724.431046
733.281069,2392.822600,1588.834206,-9016.155557
733.284034,1263.410333,-401.994197,-9820.143950
733.286999,555.134843,880.558717,-9322.436850
733.289964,-440.279358,1263.410333,-9628.718142
733.292928,-899.701298,1244.267752,-9724.431046
733.295893,-880.558717,1052.841944,-9341.579430
733.298858,-1205.982590,210.568389,-9858.429112
733.301823,76.570323,2124.826469,-9494.720077
733.304787,2947.957443,-612.562586,-9839.286531
733.307752,612.562586,38.285162,-8863.014910
733.310717,-2775.674216,0.000000,-10202.995566
733.313682,-1588.834206,1263.410333,-9667.003304
733.316646,2756.531635,1550.549045,-9322.436850
733.319611,2967.100024,-19.142581,-9820.143950
733.322576,899.701298,1493.121302,-9188.438784
733.325541,1282.552914,478.564520,-10164.710405
733.328505,1875.972918,2086.541307,-9265.009107
733.331470,593.420005,-823.130974,-9399.007173
733.334435,-995.414202,957.129040,-8977.870395
733.337400,-153.140646,57.427742,-10317.851051
733.340364,1531.406464,2029.113565,-9494.720077
733.343329,2029.113565,325.423874,-9341.579430
733.346294,-38.285162,612.562586,-9437.292334
733.349259,1550.549045,1646.261949,-9781.858789
733.352223,1952.543242,-459.421939,-9801.001370
733.355188,2431.107762,1071.984525,-8614.161360
733.358155,535.992262,-765.703232,-10183.852986
733.361121,-248.853550,1761.117434,-9513.862658
733.364088,-1052.841944,765.703232,-9954.142016
733.367054,-937.986459,1741.974853,-9226.723946
733.370021,-344.566454,689.132909,-9705.288466
733.372988,1282.552914,727.418070,-9686.145885
733.375954,3005.385186,1282.552914,-9360.722011
733.378921,2277.967115,-650.847747,-9820.143950
733.381887,516.849682,593.420005,-8939.585234
733.384854,1646.261949,153.140646,-10164.710405
733.387821,2143.969050,2450.250342,-9322.436850
733.390787,2316.252277,-153.140646,-9724.431046
733.393754,-2239.681954,650.847747,-9418.149754
733.396720,-229.710970,880.558717,-9667.003304
733.399687,1282.552914,1952.543242,-9169.296203
733.402654,1895.115499,421.136778,-9494.720077
733.405620,-1665.404530,-880.558717,-9724.431046
733.408587,-1320.838075,1014.556782,-9341.579430
733.411554,1186.840010,1473.978722,-10068.997501
733.414520,784.845813,2335.394858,-9150.153622
733.417487,-95.712904,-133.998066,-9820.143950
733.420453,-1129.412267,421.136778,-9590.432981
733.423420,-114.855485,1339.980656,-9762.716208
733.426387,1416.550979,-210.568389,-9896.714274
733.429353,1052.841944,708.275490,-9016.155557
733.432320,19.142581,325.423874,-10030.712339
733.435286,-995.414202,2029.113565,-9686.145885
733.438253,-421.136778,0.000000,-9839.286531
733.441220,440.279358,1320.838075,-9188.438784
733.444186,1761.117434,267.996131,-9647.860723
733.447153,2220.539373,1129.412267,-9513.862658
733.450119,1301.695494,19.142581,-9399.007173
733.453093,-497.707101,191.425808,-9552.147819
733.456066,-2009.970984,1339.980656,-9456.434915
733.459039,-1091.127106,765.703232,-9915.856854
733.462013,-2469.392923,2124.826469,-9590.432981
733.464986,-2335.394858,306.281293,-9513.862658
733.467959,-114.855485,1091.127106,-9073.583299
733.470933,4115.654872,-38.285162,-10145.567824
733.473906,1301.695494,708.275490,-9571.290400
733.476879,-38.285162,363.709035,-9207.581365
733.479853,-1186.840010,612.562586,-9781.858789
733.482826,1531.406464,1397.408398,-9820.143950
733.485799,287.138712,-248.853550,-10068.997501
733.488772,-210.568389,2316.252277,-8805.587168
733.491746,191.425808,-57.427742,-10222.138147
733.494719,2852.244539,1301.695494,-9226.723946
733.497692,3273.381317,-516.849682,-9762.716208
733.500666,1741.974853,1014.556782,-9226.723946
733.503639,-976.271621,727.418070,-9609.575562
733.506612,-516.849682,1646.261949,-9801.001370
733.509586,76.570323,976.271621,-9820.143950
733.512559,497.707101,535.992262,-9245.866526
733.515532,1339.980656,1071.984525,-9092.725880
733.518506,2316.252277,-38.285162,-10088.140082
733.521479,1244.267752,1091.127106,-9475.577496
733.524452,650.847747,-287.138712,-9533.005238
733.527426,-287.138712,1493.121302,-9437.292334
733.530399,114.855485,880.558717,-10279.565890
733.533372,1205.982590,784.845813,-9399.007173
733.536346,1186.840010,1359.123237,-9092.725880
733.539319,3254.238736,-325.423874,-10049.854920
733.542292,5379.065205,1761.117434,-8901.300072
733.545265,3541.377448,-784.845813,-10068.997501
733.548250,-4517.649069,1091.127106,-9399.007173
733.551234,-3790.230998,-1071.984525,-10049.854920
733.554218,-1588.834206,2124.826469,-9647.860723
733.557202,727.418070,1416.550979,-9667.003304
733.560186,306.281293,765.703232,-9284.151688
733.563170,2009.970984,-612.562586,-9609.575562
733.566154,1473.978722,937.986459,-9839.286531
733.569138,1531.406464,842.273555,-9131.011042
733.572122,-1722.832272,-114.855485,-9245.866526
733.575106,-3062.812928,1033.699363,-9877.571693
733.578090,-1378.265818,861.416136,-10183.852986
733.581074,76.570323,1167.697429,-9207.581365
733.584058,19.142581,306.281293,-9820.143950
733.587042,1033.699363,746.560651,-9571.290400
733.590026,1588.834206,593.420005,-9475.577496
733.593010,689.132909,0.000000,-9934.999435
733.595994,-1205.982590,1378.265818,-9303.294269
733.598978,-823.130974,516.849682,-9590.432981
733.601962,-401.994197,1952.543242,-9743.573627
733.604946,-880.558717,382.851616,-10011.569758
733.607930,-114.855485,784.845813,-9035.298138
733.610914,765.703232,440.279358,-9379.864592
733.613898,-76.570323,918.843878,-9954.142016
733.616882,-1914.258080,631.705166,-9188.438784
733.619866,-2641.676150,114.855485,-9418.149754
733.622850,1244.267752,1550.549045,-9820.143950
733.625835,1397.408398,765.703232,-9973.284597
733.628819,2086.541307,2258.824534,-9073.583299
733.631803,325.423874,-344.566454,-9820.143950
733.634787,3235.096155,957.129040,-9475.577496
733.637771,1205.982590,-555.134843,-10011.569758
733.640755,-1473.978722,1588.834206,-9245.866526
733.643805,-1550.549045,0.000000,-9762.716208
733.646859,669.990328,1014.556782,-9667.003304
733.649912,2086.541307,1665.404530,-9686.145885
733.652965,1225.125171,535.992262,-9590.432981
733.656019,765.703232,995.414202,-8977.870395
733.659072,1244.267752,631.705166,-10126.425243
733.662125,2297.109696,708.275490,-9456.434915
733.665179,1148.554848,133.998066,-9092.725880
733.668232,210.568389,650.847747,-9475.577496
733.671286,-861.416136,1588.834206,-9934.999435
733.674339,-287.138712,382.851616,-9801.001370
733.677392,-248.853550,1741.974853,-8901.300072
733.680446,1110.269686,153.140646,-9973.284597
733.683499,3407.379382,1033.699363,-9418.149754
733.686553,2105.683888,-516.849682,-9762.716208
733.689606,382.851616,1875.972918,-9303.294269
733.692659,2354.537438,325.423874,-9552.147819
733.695713,2373.680019,976.271621,-9667.003304
733.698766,-1454.836141,765.703232,-9858.429112
733.701819,-1780.260014,1110.269686,-9207.581365
733.704873,229.710970,1895.115499,-9111.868461
733.707926,1971.685822,-76.570323,-10241.280728
733.710980,267.996131,440.279358,-9207.581365
733.714033,133.998066,-1033.699363,-9647.860723
733.717143,497.707101,3024.527766,-8997.012976
733.720253,1014.556782,0.000000,-10604.989763
733.723363,-861.416136,861.416136,-9303.294269
733.726473,-2871.387120,459.421939,-9437.292334
733.729582,-593.420005,1684.547110,-9992.427178
733.732692,2201.396792,363.709035,-9379.864592
733.735802,689.132909,-325.423874,-9494.720077
733.738912,57.427742,1263.410333,-9571.290400
733.742022,-631.705166,593.420005,-9667.003304
733.745132,-133.998066,1703.689691,-9647.860723
733.748242,-593.420005,803.988394,-9858.429112
733.751352,1263.410333,842.273555,-9303.294269
733.754462,574.277424,306.281293,-9877.571693
733.757571,1320.838075,1052.841944,-9724.431046
733.760681,-95.712904,153.140646,-9475.577496
733.763791,172.283227,-210.568389,-9360.722011
733.766901,-2909.672282,1569.691626,-9801.001370
733.770011,-4613.361973,535.992262,-10068.997501
733.773121,-2947.957443,1761.117434,-8977.870395
733.776231,5283.352301,210.568389,-9973.284597
733.779341,5015.356170,440.279358,-9552.147819
733.782451,1588.834206,746.560651,-9418.149754
733.785561,-1167.697429,19.142581,-9686.145885
733.788670,823.130974,1167.697429,-9533.005238
733.791780,-459.421939,-459.421939,-9801.001370
733.794890,-1167.697429,1856.830338,-9226.723946
733.798000,-19.142581,727.418070,-10030.712339
733.801110,2756.531635,1320.838075,-9226.723946
733.804220,3139.383251,-421.136778,-9647.860723
733.807330,1646.261949,1416.550979,-9284.151688
733.810440,784.845813,-401.994197,-9686.145885
733.813550,57.427742,1493.121302,-9456.434915
733.816705,267.996131,823.130974,-9973.284597
733.819861,-727.418070,880.558717,-9399.007173
733.823017,-478.564520,1186.840010,-9418.149754
733.826172,497.707101,497.707101,-10049.854920
733.829328,1761.117434,1244.267752,-9322.436850
733.832484,1856.830338,-516.849682,-9456.434915
733.835639,2699.103893,1071.984525,-9092.725880
733.838795,1186.840010,-114.855485,-10260.423309
733.841951,401.994197,1569.691626,-9322.436850
733.845106,1263.410333,1588.834206,-9169.296203
733.848262,3503.092286,38.285162,-10145.567824
733.851418,-899.701298,937.986459,-9456.434915
733.854573,-1014.556782,555.134843,-9571.290400
733.857729,-76.570323,1990.828403,-9188.438784
733.860885,114.855485,-1473.978722,-10375.278794
733.864040,-1263.410333,1320.838075,-9092.725880
733.867196,-267.996131,1263.410333,-9877.571693
733.870352,440.279358,2871.387120,-9111.868461
733.873507,1320.838075,-133.998066,-10145.567824
733.876663,363.709035,1110.269686,-9418.149754
733.879819,-765.703232,708.275490,-9360.722011
733.882974,-1225.125171,95.712904,-9781.858789
733.886130,2526.820666,823.130974,-9571.290400
733.889286,516.849682,-344.566454,-9877.571693
733.892441,-401.994197,1378.265818,-8920.442653
733.895597,-1512.263883,631.705166,-10164.710405
733.898753,0.000000,1186.840010,-9781.858789
733.901908,-899.701298,669.990328,-9418.149754
733.905064,2297.109696,746.560651,-9533.005238
733.908220,1684.547110,842.273555,-9399.007173
733.911376,-114.855485,-823.130974,-10260.423309
733.914531,-1895.115499,2182.254211,-8863.014910
733.917725,-2220.539373,574.277424,-10030.712339
733.920919,-2718.246474,2009.970984,-9303.294269
733.924114,-2718.246474,-325.423874,-9877.571693
733.927308,899.701298,1971.685822,-9437.292334
733.930502,3924.229064,669.990328,-9533.005238
733.933696,4287.938099,95.712904,-9207.581365
733.936890,1205.982590,-229.710970,-9647.860723
733.940084,-287.138712,210.568389,-9877.571693
733.943279,-1110.269686,2182.254211,-9533.005238
733.946473,-1244.267752,306.281293,-9801.001370
733.949667,-516.849682,1741.974853,-9073.583299
733.952861,2105.683888,-535.992262,-10183.852986
733.956055,4268.795518,1741.974853,-9073.583299
733.959249,2565.105827,19.142581,-9590.432981
733.962444,-669.990328,267.996131,-9475.577496
733.965638,-593.420005,1780.260014,-9437.292334
733.968832,-287.138712,574.277424,-9954.142016
733.972026,-267.996131,1780.260014,-8939.585234
733.975220,-574.277424,-153.140646,-9992.427178
733.978414,2143.969050,2029.113565,-9475.577496
733.981608,1588.834206,-516.849682,-9705.288466
733.984803,2258.824534,1263.410333,-8958.727814
733.987997,1914.258080,-459.421939,-10049.854920
733.991191,-421.136778,1129.412267,-9571.290400
733.994385,823.130974,1550.549045,-9284.151688
733.997579,2316.252277,1014.556782,-9724.431046
734.000773,3656.232933,803.988394,-9839.286531
734.003968,-593.420005,-478.564520,-9839.286531
734.007162,-1531.406464,1473.978722,-8997.012976
734.010356,-1359.123237,478.564520,-9877.571693
734.013550,-555.134843,708.275490,-9647.860723
734.016744,-1205.982590,440.279358,-9686.145885
734.019970,-765.703232,593.420005,-9437.292334
734.023195,1186.840010,2603.390989,-9245.866526
734.026421,1722.832272,-382.851616,-10317.851051
734.029646,899.701298,1588.834206,-9111.868461
734.032872,-1799.402595,-1129.412267,-9954.142016
734.036097,784.845813,2048.256146,-8939.585234
734.039323,631.705166,-593.420005,-10394.421374
734.042548,-784.845813,1320.838075,-9188.438784
734.045774,-861.416136,229.710970,-9667.003304
734.048999,-593.420005,1588.834206,-9762.716208
734.052225,-1301.695494,555.134843,-9896.714274
734.055450,1014.556782,363.709035,-9456.434915
734.058676,2431.107762,1320.838075,-8901.300072
734.061901,516.849682,-689.132909,-10164.710405
734.065127,-1244.267752,1703.689691,-9379.864592
734.068352,-19.142581,19.142581,-9934.999435
734.071578,-2411.965181,1071.984525,-9341.579430
734.074803,-4307.080680,267.996131,-9973.284597
734.078029,-2086.541307,1531.406464,-9762.716208
734.081254,6470.192310,1435.693560,-9207.581365
734.084480,6623.332957,-325.423874,-8997.012976
734.087705,2316.252277,1148.554848,-9150.153622
734.090931,-1741.974853,-133.998066,-10528.419440
734.094156,-669.990328,2699.103893,-8939.585234
734.097382,-650.847747,-937.986459,-9992.427178
734.100608,-803.988394,1722.832272,-9169.296203
734.103833,1186.840010,267.996131,-9992.427178
734.107059,4115.654872,1741.974853,-9360.722011
734.110284,3158.525832,-229.710970,-9437.292334
734.113510,-555.134843,-95.712904,-9628.718142
734.116735,-153.140646,1895.115499,-9284.151688
734.119961,-38.285162,516.849682,-10145.567824
734.123162,-287.138712,1952.543242,-9054.440718
734.126363,76.570323,-516.849682,-9762.716208
734.129565,1990.828403,2009.970984,-9475.577496
734.132766,1167.697429,-38.285162,-10451.849117
734.135967,1818.545176,1148.554848,-8690.731683
734.139169,1933.400661,210.568389,-9552.147819
734.142370,-459.421939,191.425808,-10145.567824
734.145571,1397.408398,1473.978722,-9322.436850
734.148772,3292.523898,382.851616,-9686.145885
734.151974,3522.234867,2565.105827,-9035.298138
734.155175,-2622.533570,-880.558717,-10279.565890
734.158376,-2526.820666,765.703232,-9456.434915
734.161578,-708.275490,555.134843,-9571.290400
734.164779,937.986459,535.992262,-9877.571693
734.167980,76.570323,153.140646,-9571.290400
734.171182,-76.570323,-516.849682,-10126.425243
734.174383,631.705166,2488.535504,-9284.151688
734.177584,689.132909,-344.566454,-9992.427178
734.180786,76.570323,2029.113565,-9188.438784
734.183987,-957.129040,-1110.269686,-10432.706536
734.187188,1875.972918,1990.828403,-8786.444587
734.190390,650.847747,-1014.556782,-10241.280728
734.193591,-210.568389,1531.406464,-9150.153622
734.196792,-593.420005,631.705166,-9647.860723
734.199994,-1205.982590,861.416136,-9820.143950
734.203195,-765.703232,1263.410333,-9724.431046
734.206396,-153.140646,-248.853550,-9533.005238
734.209597,1741.974853,2373.680019,-8805.587168
734.212799,899.701298,-1052.841944,-10451.849117
734.216000,440.279358,1320.838075,-9131.011042
734.219201,-1837.687757,-1339.980656,-9973.284597
734.222403,-5168.496816,2392.822600,-9590.432981
734.225633,-4326.223261,574.277424,-10126.425243
734.228863,4613.361973,631.705166,-9341.579430
734.232093,5800.201982,899.701298,-9245.866526
734.235323,2507.678085,344.566454,-9934.999435
734.238553,-133.998066,1282.552914,-9111.868461
734.241782,535.992262,-153.140646,-9973.284597
734.245012,-1167.697429,803.988394,-9456.434915
734.248242,-1550.549045,612.562586,-9686.145885
734.251472,-401.994197,2258.824534,-9590.432981
734.254702,2641.676150,689.132909,-9934.999435
734.257932,3024.527766,95.712904,-9341.579430
734.261162,1569.691626,1531.406464,-9092.725880
734.264392,861.416136,-899.701298,-10068.997501
734.267622,2163.111630,1454.836141,-9188.438784
734.270852,-287.138712,-1033.699363,-10202.995566
734.274082,-765.703232,2373.680019,-8786.444587
734.277312,-765.703232,-153.140646,-10030.712339
734.280542,1091.127106,1684.547110,-9686.145885
734.283772,1282.552914,-19.142581,-9934.999435
734.287002,2507.678085,880.558717,-9073.583299
734.290232,1665.404530,727.418070,-9360.722011
734.293462,1703.689691,-516.849682,-10375.278794
734.296692,2890.529701,1914.258080,-9226.723946
734.299922,3579.662610,76.570323,-9954.142016
734.303152,-3445.664544,2871.387120,-9418.149754
734.306382,-4632.504554,-574.277424,-10451.849117
734.309612,-421.136778,1110.269686,-9341.579430
734.312842,2584.248408,631.705166,-9303.294269
734.316072,650.847747,612.562586,-8939.585234
734.319302,1780.260014,-440.279358,-9954.142016
734.322531,746.560651,325.423874,-9934.999435
734.325761,-765.703232,1933.400661,-9207.581365
734.328968,-2660.818731,76.570323,-9667.003304
734.332174,-1359.123237,1416.550979,-9647.860723
734.335380,516.849682,-229.710970,-10413.563955
734.338586,1856.830338,1110.269686,-8671.589102
734.341792,1703.689691,172.283227,-9341.579430
734.344998,746.560651,497.707101,-10030.712339
734.348205,-593.420005,1339.980656,-9705.288466
734.351411,-1607.976787,267.996131,-9571.290400
734.354617,-1033.699363,1741.974853,-9207.581365
734.357823,-650.847747,421.136778,-9954.142016
734.361029,1741.974853,1167.697429,-9456.434915
734.364235,-76.570323,-363.709035,-9858.429112
734.367441,-1952.543242,1244.267752,-9131.011042
734.370648,-3579.662610,-133.998066,-9801.001370
734.373854,1301.695494,1186.840010,-9743.573627
734.377060,2928.814862,957.129040,-9724.431046
734.380266,3215.953574,727.418070,-9111.868461
734.383472,-708.275490,1627.119368,-9590.432981
734.386678,765.703232,-229.710970,-10260.423309
734.389884,918.843878,1167.697429,-9054.440718
734.393091,-325.423874,-172.283227,-9571.290400
734.396297,-593.420005,1282.552914,-9494.720077
734.399503,1971.685822,19.142581,-9934.999435
734.402709,1359.123237,1110.269686,-9609.575562
734.405915,-918.843878,1454.836141,-9341.579430
734.409121,1091.127106,114.855485,-9762.716208
734.412328,2373.680019,1722.832272,-9226.723946
734.415534,1914.258080,-19.142581,-9934.999435
734.418740,1339.980656,995.414202,-8652.446522
734.421946,344.566454,-440.279358,-9934.999435
734.425152,-114.855485,1952.543242,-9992.427178
734.428358,-593.420005,497.707101,-9628.718142
734.457446,-631.705166,1186.840010,-9533.005238
734.460678,3005.385186,1148.554848,-9226.723946
734.463910,957.129040,-344.566454,-9552.147819
734.467142,440.279358,497.707101,-9494.720077
734.470373,708.275490,210.568389,-10413.563955
734.473605,-689.132909,1990.828403,-8977.870395
734.476837,-2316.252277,248.853550,-9571.290400
734.480069,-784.845813,976.271621,-9877.571693
734.483301,2086.541307,727.418070,-9877.571693
734.486533,1856.830338,555.134843,-9169.296203
734.489765,1129.412267,516.849682,-9226.723946
734.492997,-574.277424,38.285162,-10126.425243
734.496229,-976.271621,1895.115499,-9513.862658
734.499461,-535.992262,267.996131,-9399.007173
734.502693,-689.132909,1741.974853,-9245.866526
734.505925,0.000000,-95.712904,-9954.142016
734.509157,2220.539373,1588.834206,-9379.864592
734.512389,-516.849682,-1052.841944,-9954.142016
734.515621,-4134.797453,478.564520,-9169.296203
734.518853,-3560.520029,765.703232,-9877.571693
734.522084,3445.664544,1493.121302,-9743.573627
734.525316,5627.918755,765.703232,-9379.864592
734.528548,1818.545176,-267.996131,-9647.860723
734.531780,-287.138712,1875.972918,-9265.009107
734.534991,937.986459,382.851616,-10279.565890
734.538201,1033.699363,229.710970,-8901.300072
734.541412,-267.996131,76.570323,-9399.007173
734.544622,516.849682,1014.556782,-9877.571693
734.547832,1952.543242,1473.978722,-9686.145885
734.551043,574.277424,421.136778,-9724.431046
734.554253,-1703.689691,1473.978722,-9284.151688
734.557464,1263.410333,267.996131,-9839.286531
734.560674,2641.676150,1646.261949,-9399.007173
734.563885,1397.408398,-823.130974,-9954.142016
734.567095,976.271621,574.277424,-9054.440718
734.570305,440.279358,172.283227,-9858.429112
734.573516,-267.996131,2124.826469,-9647.860723
734.576726,210.568389,191.425808,-9801.001370
734.579937,555.134843,1167.697429,-9111.868461
734.583147,2737.389054,1148.554848,-9954.142016
734.586358,5302.494882,-38.285162,-9667.003304
734.589568,4919.643266,1110.269686,-8767.302006
734.592778,-2373.680019,210.568389,-9724.431046
734.595989,-6297.909083,1244.267752,-9628.718142
734.599199,-1780.260014,-765.703232,-10585.847182
734.602410,325.423874,2124.826469,-9073.583299
734.605620,823.130974,1071.984525,-9284.151688
734.608831,2813.959378,57.427742,-9686.145885
734.612041,2641.676150,669.990328,-9724.431046
734.615251,784.845813,459.421939,-9284.151688
734.618462,-2067.398726,823.130974,-8843.872330
734.621672,-1875.972918,57.427742,-10183.852986
734.624883,153.140646,1780.260014,-10049.854920
734.628093,-1148.554848,-19.142581,-9571.290400
734.631304,823.130974,1205.982590,-8958.727814
734.634514,-669.990328,421.136778,-10375.278794
734.637748,2335.394858,1110.269686,-9437.292334
734.640984,1627.119368,57.427742,-9303.294269
734.644219,-803.988394,19.142581,-9705.288466
734.647454,-957.129040,1856.830338,-9437.292334
734.650689,-3254.238736,-344.566454,-10279.565890
734.653925,-4153.940034,3235.096155,-9073.583299
734.657160,-2947.957443,-1033.699363,-10260.423309
734.660395,2871.387120,1320.838075,-8977.870395
734.663630,6738.188442,-746.560651,-10088.140082
734.666866,3369.094221,1359.123237,-9035.298138
734.670101,-727.418070,-95.712904,-9303.294269
734.673336,-1435.693560,727.418070,-9896.714274
734.676571,-1091.127106,1952.543242,-10011.569758
734.679807,-287.138712,382.851616,-9590.432981
734.683042,1033.699363,1531.406464,-8958.727814
734.686277,3943.371645,-57.427742,-10068.997501
734.689512,3560.520029,1110.269686,-9475.577496
734.692748,-229.710970,-497.707101,-9399.007173
734.695983,-669.990328,1378.265818,-9379.864592
734.699218,-631.705166,459.421939,-10356.136213
734.702453,-95.712904,1052.841944,-9552.147819
734.705689,38.285162,1703.689691,-9169.296203
734.708924,650.847747,-669.990328,-10011.569758
734.712159,2679.961312,1703.689691,-8997.012976
734.715416,2105.683888,-363.709035,-9954.142016
734.718673,1895.115499,1914.258080,-8920.442653
734.721929,2086.541307,-344.566454,-9877.571693
734.725186,2584.248408,1550.549045,-9571.290400
734.728443,3311.666478,1339.980656,-9513.862658
734.731699,-1454.836141,976.271621,-9379.864592
734.734956,-3924.229064,1895.115499,-9513.862658
734.738213,516.849682,-899.701298,-10604.989763
734.741469,2086.541307,1416.550979,-8652.446522
734.744726,478.564520,95.712904,-9533.005238
734.747983,880.558717,1818.545176,-9265.009107
734.751239,248.853550,-497.707101,-10394.421374
734.754496,-899.701298,2105.683888,-9207.581365
734.757753,-2143.969050,823.130974,-9552.147819
734.761009,-957.129040,-57.427742,-9590.432981
734.764266,2258.824534,1378.265818,-9456.434915
734.767523,842.273555,-191.425808,-9552.147819
734.770780,957.129040,1588.834206,-8671.589102
734.774036,-459.421939,-842.273555,-10241.280728
734.777293,421.136778,2565.105827,-9533.005238
734.780550,-516.849682,153.140646,-9973.284597
734.783806,-1186.840010,1722.832272,-8843.872330
734.787063,918.843878,861.416136,-9858.429112
734.790320,153.140646,-267.996131,-9839.286531
734.793576,-2756.531635,880.558717,-9169.296203
734.796833,-4402.793584,-287.138712,-10126.425243
734.800090,3043.670347,2699.103893,-9207.581365
734.803346,5570.491013,-1110.269686,-10222.138147
734.806603,1895.115499,2565.105827,-8843.872330
734.809860,-746.560651,-248.853550,-10107.282662
734.813116,1186.840010,1684.547110,-9035.298138
734.816373,1052.841944,-803.988394,-9973.284597
734.819606,401.994197,555.134843,-9245.866526
734.822838,803.988394,957.129040,-9456.434915
734.826071,2641.676150,382.851616,-9858.429112
734.829304,1110.269686,2373.680019,-9245.866526
734.832536,-1531.406464,-784.845813,-10030.712339
734.835769,267.996131,2354.537438,-8997.012976
734.839001,1205.982590,-267.996131,-10298.708470
734.842234,2699.103893,1301.695494,-9092.725880
734.845467,401.994197,-210.568389,-9475.577496
734.848699,1684.547110,1071.984525,-9743.573627
734.851932,-153.140646,1378.265818,-9686.145885
734.855165,-861.416136,440.279358,-9743.573627
734.858397,2048.256146,1914.258080,-8901.300072
734.861630,5091.926493,-765.703232,-10356.136213
734.864862,6317.051664,1952.543242,-8824.729749
734.868095,-210.568389,-153.140646,-9724.431046
734.871328,-5206.781978,880.558717,-9513.862658
734.874560,-2699.103893,-267.996131,-10183.852986
734.877793,516.849682,1799.402595,-9379.864592
734.881026,440.279358,1397.408398,-9590.432981
734.884258,842.273555,-267.996131,-9628.718142
734.887491,1761.117434,1875.972918,-9456.434915
734.890723,1722.832272,-612.562586,-10126.425243
734.893956,-1684.547110,1761.117434,-8633.303941
734.897189,-1531.406464,-1416.550979,-10279.565890
734.900421,1435.693560,2469.392923,-9341.579430
734.903654,-803.988394,-114.855485,-10011.569758
734.906887,-861.416136,1263.410333,-9073.583299
734.910119,0.000000,1110.269686,-9724.431046
734.913352,708.275490,-76.570323,-10088.140082
734.916584,1148.554848,1512.263883,-9092.725880
734.919817,1550.549045,-995.414202,-9743.573627
734.948911,-784.845813,1244.267752,-9188.438784
734.952143,-1416.550979,-210.568389,-10068.997501
734.955376,-1320.838075,1646.261949,-9513.862658
734.958608,382.851616,689.132909,-9781.858789
734.961841,2526.820666,267.996131,-9245.866526
734.965074,3311.666478,1301.695494,-9303.294269
734.968306,2354.537438,-535.992262,-9839.286531
734.971539,-478.564520,1741.974853,-8920.442653
734.974772,-153.140646,-287.138712,-10126.425243
734.978004,-344.566454,2488.535504,-9494.720077
734.981237,-746.560651,-344.566454,-9954.142016
734.984469,478.564520,1703.689691,-9169.296203
734.987702,2048.256146,593.420005,-9667.003304
734.990935,1665.404530,191.425808,-9686.145885
734.994167,2029.113565,1167.697429,-9169.296203
734.997400,1397.408398,555.134843,-9954.142016
735.000633,2928.814862,1244.267752,-9533.005238
735.003865,1627.119368,-172.283227,-9686.145885
735.007098,-2469.392923,2928.814862,-9207.581365
735.010330,-3541.377448,440.279358,-9820.143950
735.013563,76.570323,-306.281293,-9590.432981
735.016796,2584.248408,-325.423874,-9915.856854
735.020028,1186.840010,1110.269686,-8920.442653
735.023261,516.849682,1091.127106,-9341.579430
735.026494,-38.285162,-95.712904,-10432.706536
735.029726,-899.701298,2411.965181,-9188.438784
735.032959,-3043.670347,19.142581,-9399.007173
735.036191,210.568389,2488.535504,-9360.722011
735.039424,2297.109696,-612.562586,-10413.563955
735.042657,1397.408398,689.132909,-8824.729749
735.045889,-555.134843,325.423874,-9418.149754
735.049122,-1033.699363,669.990328,-10164.710405
735.052355,-784.845813,1263.410333,-9475.577496
735.055587,-1186.840010,267.996131,-9858.429112
735.058820,650.847747,2048.256146,-9379.864592
735.062052,-172.283227,-1071.984525,-10107.282662
735.065285,-2258.824534,1799.402595,-9226.723946
735.068518,-2603.390989,-363.709035,-9954.142016
735.071750,3617.947771,1244.267752,-8901.300072
735.074983,5379.065205,-612.562586,-9724.431046
735.078216,1359.123237,1454.836141,-9877.571693
735.081448,-1263.410333,1263.410333,-9628.718142
735.084681,-746.560651,1091.127106,-9322.436850
735.087913,-478.564520,1129.412267,-9705.288466
735.091146,842.273555,-95.712904,-9877.571693
735.094379,2258.824534,1435.693560,-8767.302006
735.097611,2507.678085,-440.279358,-10107.282662
735.100844,1550.549045,1186.840010,-9571.290400
735.104077,-1110.269686,306.281293,-9667.003304
735.107309,-76.570323,1378.265818,-9628.718142
735.110542,516.849682,1435.693560,-9801.001370
735.113774,1186.840010,-325.423874,-9724.431046
735.117007,2086.541307,1588.834206,-8633.303941
735.120240,2335.394858,-248.853550,-9992.427178
735.123472,555.134843,1244.267752,-9226.723946
735.126705,1397.408398,-708.275490,-9724.431046
735.129938,2220.539373,2622.533570,-9245.866526
735.133170,3924.229064,287.138712,-9820.143950
735.136403,-1454.836141,1397.408398,-9303.294269
735.139635,-2928.814862,0.000000,-10126.425243
735.142868,-1320.838075,1263.410333,-9169.296203
735.146101,727.418070,669.990328,-9533.005238
735.149333,784.845813,-765.703232,-10183.852986
735.152566,-229.710970,2182.254211,-9303.294269
735.155798,-95.712904,803.988394,-9590.432981
735.159031,-382.851616,1703.689691,-9724.431046
735.162264,-995.414202,172.283227,-10049.854920
735.165496,-133.998066,708.275490,-9092.725880
735.168729,2067.398726,1339.980656,-9533.005238
735.171962,2603.390989,-114.855485,-9915.856854
735.175194,344.566454,880.558717,-9035.298138
735.178427,-957.129040,-421.136778,-9839.286531
735.181659,-937.986459,2450.250342,-9590.432981
735.184892,-516.849682,-191.425808,-10088.140082
735.188125,937.986459,1971.685822,-8901.300072
735.191357,-497.707101,-440.279358,-10222.138147
735.194590,-1301.695494,1397.408398,-9475.577496
735.197823,-3101.098090,-267.996131,-9724.431046
735.201055,-899.701298,631.705166,-9705.288466
735.204288,3790.230998,-57.427742,-9743.573627
735.207520,2143.969050,1052.841944,-9303.294269
735.210753,229.710970,1837.687757,-9571.290400
735.213986,-325.423874,-325.423874,-10107.282662
735.217218,1014.556782,1818.545176,-9360.722011
735.220451,937.986459,478.564520,-10088.140082
735.223684,1799.402595,650.847747,-8958.727814
735.226916,2086.541307,172.283227,-9609.575562
735.230149,1244.267752,459.421939,-9896.714274
735.233352,-842.273555,1952.543242,-9265.009107
735.236556,-995.414202,19.142581,-9839.286531
735.239759,861.416136,2239.681954,-9513.862658
735.242962,478.564520,-229.710970,-10279.565890
735.246166,2469.392923,1454.836141,-8805.587168
735.249369,1435.693560,-459.421939,-9533.005238
735.252572,-459.421939,823.130974,-9743.573627
735.255776,1646.261949,-650.847747,-9647.860723
735.259007,2277.967115,1454.836141,-9169.296203
735.262238,3522.234867,1531.406464,-9801.001370
735.265470,497.707101,612.562586,-9667.003304
735.268701,-3694.518094,497.707101,-9724.431046
735.271932,-1205.982590,861.416136,-9705.288466
735.275164,1607.976787,1531.406464,-9245.866526
735.278395,1110.269686,-1167.697429,-9858.429112
735.281627,153.140646,1454.836141,-9207.581365
735.284858,133.998066,1071.984525,-9686.145885
735.288089,-689.132909,593.420005,-9801.001370
735.291321,-1531.406464,1186.840010,-9552.147819
735.294552,-650.847747,-133.998066,-9896.714274
735.297783,1780.260014,1933.400661,-9016.155557
735.301015,1895.115499,-248.853550,-10049.854920
735.304246,1205.982590,1186.840010,-9035.298138
735.307477,-210.568389,-248.853550,-9533.005238
735.310709,-57.427742,1531.406464,-9647.860723
735.313940,-861.416136,1014.556782,-10030.712339
735.317171,-1071.984525,1531.406464,-9207.581365
735.320403,-1550.549045,803.988394,-9571.290400
735.323634,-2411.965181,325.423874,-10107.282662
735.326865,-2220.539373,1339.980656,-9437.292334
735.330097,3809.373579,-440.279358,-9303.294269
735.333328,4555.934230,555.134843,-9360.722011
735.336580,1780.260014,-363.709035,-10011.569758
735.339832,-1971.685822,1990.828403,-9188.438784
735.343084,-689.132909,1052.841944,-9781.858789
735.346335,-287.138712,229.710970,-9686.145885
735.349587,-344.566454,976.271621,-9513.862658
735.352839,2507.678085,459.421939,-9743.573627
735.356091,4192.225195,1397.408398,-9284.151688
735.359343,1129.412267,-1244.267752,-9877.571693
735.362594,-689.132909,2163.111630,-9054.440718
735.365846,-306.281293,76.570323,-10298.708470
735.369098,-631.705166,1875.972918,-9265.009107
735.372350,-19.142581,229.710970,-9781.858789
735.375602,1339.980656,1148.554848,-9494.720077
735.378854,1818.545176,612.562586,-9322.436850
735.382105,3503.092286,631.705166,-9571.290400
735.385357,3847.658741,1205.982590,-9265.009107
735.388609,3541.377448,-497.707101,-9647.860723
735.391861,1588.834206,1856.830338,-9379.864592
735.395113,-2833.101958,593.420005,-10183.852986
735.398365,-3905.086483,3158.525832,-9016.155557
735.401616,-746.560651,-669.990328,-10279.565890
735.404868,2048.256146,1339.980656,-9494.720077
735.408120,1588.834206,478.564520,-9303.294269
735.411372,1263.410333,-57.427742,-9418.149754
735.440638,-459.421939,1646.261949,-9609.575562
735.443890,-133.998066,95.712904,-10279.565890
735.447142,1512.263883,535.992262,-9322.436850
735.450394,19.142581,-38.285162,-9456.434915
735.453646,-1818.545176,1186.840010,-9437.292334
735.456897,-3560.520029,440.279358,-9781.858789
735.460149,-3464.807125,459.421939,-9743.573627
735.463401,1110.269686,1741.974853,-9762.716208
735.466630,4249.652938,344.566454,-9571.290400
735.469859,2775.674216,1799.402595,-8901.300072
735.473087,1091.127106,-612.562586,-10202.995566
735.476316,1263.410333,1359.123237,-9111.868461
735.479545,765.703232,-995.414202,-9724.431046
735.482774,-727.418070,1129.412267,-9437.292334
735.486002,708.275490,765.703232,-9801.001370
735.489231,1646.261949,842.273555,-9647.860723
735.492460,-574.277424,1435.693560,-9533.005238
735.495689,-918.843878,-191.425808,-9934.999435
735.498917,1531.406464,1933.400661,-9188.438784
735.502146,1856.830338,-344.566454,-10011.569758
735.505375,2086.541307,1186.840010,-9150.153622
735.508604,-38.285162,-344.566454,-9724.431046
735.511832,1320.838075,2297.109696,-9839.286531
735.515061,1071.984525,497.707101,-9877.571693
735.518290,2411.965181,574.277424,-9303.294269
735.521519,4441.078746,1875.972918,-9188.438784
735.524747,-38.285162,38.285162,-10164.710405
735.527976,-3177.668413,1550.549045,-9188.438784
735.531205,-248.853550,-1703.689691,-10222.138147
735.534434,937.986459,2603.390989,-8824.729749
735.537663,-803.988394,-133.998066,-9915.856854
735.540891,-57.427742,574.277424,-9475.577496
735.544139,38.285162,440.279358,-10202.995566
735.547388,-114.855485,1052.841944,-9609.575562
735.550636,-287.138712,1818.545176,-8920.442653
735.553884,-267.996131,-631.705166,-10394.421374
735.557132,1435.693560,1837.687757,-8920.442653
735.560380,0.000000,-957.129040,-9590.432981
735.563628,574.277424,1665.404530,-9303.294269
735.566876,-1244.267752,-459.421939,-9877.571693
735.570125,-1033.699363,1703.689691,-9494.720077
735.573373,153.140646,1378.265818,-9801.001370
735.576621,-1799.402595,880.558717,-9456.434915
735.579869,-1799.402595,995.414202,-9437.292334
735.583117,-1952.543242,-114.855485,-10088.140082
735.586365,3560.520029,2009.970984,-8939.585234
735.589613,4345.365842,-2067.398726,-9954.142016
735.592861,995.414202,2584.248408,-9169.296203
735.596110,-1971.685822,-344.566454,-10509.276859
735.599358,-669.990328,2450.250342,-9016.155557
735.602606,-248.853550,57.427742,-9954.142016
735.605854,1512.263883,1052.841944,-9399.007173
735.609102,2488.535504,1014.556782,-9705.288466
735.612350,3694.518094,19.142581,-9647.860723
735.615598,2794.816797,1282.552914,-9188.438784
735.618847,-612.562586,-440.279358,-10049.854920
735.622095,-727.418070,2201.396792,-9111.868461
735.625343,-899.701298,421.136778,-10183.852986
735.628591,-478.564520,1665.404530,-9322.436850
735.631839,593.420005,516.849682,-9341.579430
735.635087,2354.537438,1225.125171,-9686.145885
735.638335,3560.520029,344.566454,-9724.431046
735.641584,3426.521963,-1091.127106,-9667.003304
735.644832,4134.797453,1569.691626,-9054.440718
735.648096,-2584.248408,-95.712904,-10145.567824
735.651360,-5627.918755,1665.404530,-9341.579430
735.654623,-2297.109696,-440.279358,-10490.134278
735.657887,1473.978722,2584.248408,-8958.727814
735.661150,593.420005,-287.138712,-9820.143950
735.664414,2277.967115,516.849682,-9609.575562
735.667677,1397.408398,1320.838075,-9379.864592
735.670941,-38.285162,-861.416136,-10145.567824
735.674204,-2392.822600,2124.826469,-8690.731683
735.677468,-2373.680019,-650.847747,-10509.276859
735.680731,-918.843878,2775.674216,-9169.296203
735.683995,287.138712,-650.847747,-9896.714274
735.687258,1703.689691,1875.972918,-9207.581365
735.690522,1818.545176,172.283227,-9686.145885
735.693785,669.990328,1263.410333,-9092.725880
735.697049,-421.136778,459.421939,-9743.573627
735.700312,-2277.967115,191.425808,-9590.432981
735.703576,-3617.947771,1512.263883,-9265.009107
735.706840,-3541.377448,-76.570323,-10317.851051
735.710103,1244.267752,2718.246474,-9418.149754
735.713367,5034.498750,-899.701298,-9743.573627
735.716630,3081.955509,2354.537438,-8709.874264
735.719894,708.275490,-229.710970,-10317.851051
735.723157,957.129040,727.418070,-9092.725880
735.726421,-976.271621,459.421939,-9475.577496
735.729684,-937.986459,689.132909,-9724.431046
735.732948,-344.566454,1646.261949,-9456.434915
735.736211,1895.115499,133.998066,-10049.854920
735.739475,1703.689691,2239.681954,-9035.298138
735.742738,1339.980656,-650.847747,-9954.142016
735.746002,1875.972918,1875.972918,-9188.438784
735.749265,1856.830338,-114.855485,-9801.001370
735.752541,803.988394,459.421939,-9322.436850
735.755818,-708.275490,574.277424,-9418.149754
735.759094,593.420005,535.992262,-10107.282662
735.762370,2277.967115,2105.683888,-9341.579430
735.765646,3598.805190,-382.851616,-9839.286531
735.768922,2545.963246,1856.830338,-9207.581365
735.772198,-497.707101,-421.136778,-10145.567824
735.775475,-2373.680019,2622.533570,-8863.014910
735.778751,765.703232,-1320.838075,-10202.995566
735.782027,918.843878,937.986459,-9226.723946
735.785303,-1186.840010,669.990328,-9743.573627
735.788579,-650.847747,555.134843,-9686.145885
735.791855,459.421939,1971.685822,-9877.571693
735.795132,-172.283227,401.994197,-9571.290400
735.798408,-497.707101,2220.539373,-8882.157491
735.801684,401.994197,-708.275490,-10604.989763
735.804960,937.986459,1378.265818,-9131.011042
735.808236,325.423874,-421.136778,-9379.864592
735.811512,1359.123237,1512.263883,-9131.011042
735.814788,57.427742,287.138712,-10126.425243
735.818065,-669.990328,1225.125171,-9552.147819
735.821341,-1588.834206,1225.125171,-9418.149754
735.824617,-2411.965181,-76.570323,-10049.854920
735.827893,-2182.254211,1550.549045,-9245.866526
735.831169,4134.797453,210.568389,-9628.718142
735.834445,5666.203917,669.990328,-9073.583299
735.837722,1818.545176,-823.130974,-9820.143950
735.840998,-1397.408398,1646.261949,-9513.862658
735.844274,-823.130974,1435.693560,-9915.856854
735.847550,-899.701298,574.277424,-9360.722011
735.850826,0.000000,1856.830338,-9303.294269
735.854102,2469.392923,-172.283227,-10222.138147
735.857389,2603.390989,2086.541307,-8863.014910
735.860675,1933.400661,-1684.547110,-10088.140082
735.863962,421.136778,1799.402595,-8939.585234
735.867248,-287.138712,-555.134843,-10145.567824
735.870535,-1052.841944,1761.117434,-9360.722011
735.873821,421.136778,765.703232,-9934.999435
735.877108,0.000000,478.564520,-9494.720077
735.880394,2029.113565,784.845813,-9628.718142
735.883681,3905.086483,918.843878,-9973.284597
735.886967,5283.352301,1091.127106,-8977.870395
735.890254,2928.814862,-1033.699363,-9494.720077
735.893540,-2086.541307,1741.974853,-9494.720077
735.896827,-2909.672282,784.845813,-9973.284597
735.900113,-1818.545176,1339.980656,-9475.577496
735.903400,-153.140646,344.566454,-9667.003304
735.906686,-153.140646,995.414202,-9571.290400
735.909973,2182.254211,1167.697429,-9226.723946
735.913259,1971.685822,-153.140646,-9858.429112
735.916546,1205.982590,1473.978722,-9054.440718
735.919832,-1320.838075,-861.416136,-9705.288466
735.923119,-1110.269686,2067.398726,-9437.292334
735.926405,-727.418070,114.855485,-10375.278794
735.929692,-823.130974,1225.125171,-9245.866526
735.932978,-555.134843,593.420005,-9552.147819
735.936265,689.132909,937.986459,-9992.427178
735.939551,803.988394,1665.404530,-9437.292334
735.942838,-421.136778,-535.992262,-9494.720077
735.946124,-2507.678085,1071.984525,-9284.151688
735.949411,-1933.400661,-631.705166,-10375.278794
735.952697,382.851616,2469.392923,-9111.868461
735.955984,3751.945837,-95.712904,-9686.145885
735.959270,2124.826469,1895.115499,-9341.579430
735.962564,593.420005,727.418070,-9667.003304
735.965858,1895.115499,1416.550979,-9724.431046
735.969152,1091.127106,-76.570323,-9590.432981
735.972446,516.849682,-19.142581,-9054.440718
735.975740,1014.556782,1282.552914,-9609.575562
735.979034,76.570323,133.998066,-10375.278794
735.982327,535.992262,1607.976787,-8863.014910
735.985621,-1052.841944,-650.847747,-9973.284597
736.015267,-1722.832272,2641.676150,-9188.438784
736.018560,-842.273555,-899.701298,-9954.142016
736.021854,-631.705166,1703.689691,-9571.290400
736.025148,1722.832272,708.275490,-9590.432981
736.028442,497.707101,-287.138712,-9379.864592
736.031736,-823.130974,1378.265818,-9360.722011
736.035030,-631.705166,918.843878,-10011.569758
736.038324,57.427742,1454.836141,-9571.290400
736.041618,-612.562586,-57.427742,-9609.575562
736.044912,-765.703232,1933.400661,-9475.577496
736.048206,593.420005,210.568389,-10145.567824
736.051500,1607.976787,708.275490,-9131.011042
736.054794,459.421939,555.134843,-9437.292334
736.058087,1397.408398,153.140646,-9418.149754
736.061381,306.281293,1722.832272,-9437.292334
736.064675,-2163.111630,-535.992262,-10356.136213
736.067942,-3407.379382,2163.111630,-9265.009107
736.071209,-2813.959378,-114.855485,-9628.718142
736.074476,2469.392923,2335.394858,-9418.149754
736.077743,4938.785846,-995.414202,-9934.999435
736.081010,2890.529701,880.558717,-8939.585234
736.084277,344.566454,-133.998066,-9801.001370
736.087544,-669.990328,1071.984525,-9858.429112
736.090811,-210.568389,918.843878,-9590.432981
736.094078,-38.285162,650.847747,-9513.862658
736.097345,497.707101,1684.547110,-9360.722011
736.100612,1818.545176,-172.283227,-10030.712339
736.103879,2297.109696,1722.832272,-9207.581365
736.107146,1933.400661,-172.283227,-9724.431046
736.110413,1512.263883,1052.841944,-8977.870395
736.113680,325.423874,76.570323,-9858.429112
736.116947,-363.709035,708.275490,-9781.858789
736.120214,-478.564520,1895.115499,-9322.436850
736.123481,555.134843,133.998066,-9686.145885
736.126748,2794.816797,1914.258080,-9456.434915
736.130015,4747.360038,-248.853550,-10088.140082
736.133282,937.986459,1684.547110,-8614.161360
736.136549,-1493.121302,-1320.838075,-9992.427178
736.139816,-2239.681954,1837.687757,-9762.716208
736.143082,-191.425808,612.562586,-9456.434915
736.146349,-1186.840010,899.701298,-9494.720077
736.149616,-1014.556782,1244.267752,-9839.286531
736.152883,344.566454,1033.699363,-9475.577496
736.156150,1780.260014,1148.554848,-9686.145885
736.159417,-114.855485,19.142581,-9533.005238
736.162684,918.843878,1052.841944,-9111.868461
736.165951,497.707101,-421.136778,-9915.856854
736.169218,133.998066,1493.121302,-9705.288466
736.172463,-803.988394,248.853550,-9667.003304
736.175708,-210.568389,1110.269686,-9303.294269
736.178952,-1550.549045,1703.689691,-9992.427178
736.182197,-1512.263883,612.562586,-9839.286531
736.185441,-784.845813,918.843878,-8901.300072
736.188686,-1320.838075,-248.853550,-9934.999435
736.191931,2890.529701,1952.543242,-9265.009107
736.195175,4632.504554,-1301.695494,-9877.571693
736.198420,1416.550979,1588.834206,-9111.868461
736.201665,-1148.554848,727.418070,-10011.569758
736.204909,248.853550,1512.263883,-9456.434915
736.208154,-612.562586,727.418070,-9762.716208
736.211399,153.140646,1397.408398,-9437.292334
736.214643,2124.826469,650.847747,-9475.577496
736.217888,3177.668413,-19.142581,-9743.573627
736.221133,1627.119368,1205.982590,-9571.290400
736.224377,765.703232,-880.558717,-9456.434915
736.227622,918.843878,2086.541307,-9245.866526
736.230866,-880.558717,153.140646,-10470.991698
736.234111,-1225.125171,1052.841944,-9303.294269
736.237356,1244.267752,363.709035,-9686.145885
736.240600,3790.230998,861.416136,-9628.718142
736.243845,5532.205851,1359.123237,-9341.579430
736.247090,4517.649069,-842.273555,-9667.003304
736.250334,-440.279358,1856.830338,-8958.727814
736.253579,-4077.369710,440.279358,-10030.712339
736.256824,-2737.389054,1416.550979,-9571.290400
736.260068,-1435.693560,76.570323,-10011.569758
736.263313,-1186.840010,1761.117434,-9131.011042
736.266558,1780.260014,287.138712,-9590.432981
736.269802,2890.529701,574.277424,-9915.856854
736.273047,1454.836141,1167.697429,-9341.579430
736.276273,191.425808,-344.566454,-9054.440718
736.279499,-478.564520,1225.125171,-9647.860723
736.282725,-1014.556782,57.427742,-10490.134278
736.285952,-1014.556782,1875.972918,-9150.153622
736.289178,-1339.980656,-172.283227,-9667.003304
736.292404,-325.423874,2431.107762,-9705.288466
736.295630,555.134843,-248.853550,-9858.429112
736.298857,-574.277424,363.709035,-9092.725880
736.302083,-2603.390989,937.986459,-9724.431046
736.305309,2220.539373,114.855485,-9494.720077
736.308535,1837.687757,1014.556782,-9322.436850
736.311761,382.851616,-57.427742,-10241.280728
736.314988,172.283227,1703.689691,-9169.296203
736.318214,1588.834206,631.705166,-9590.432981
736.321440,3369.094221,1473.978722,-9609.575562
736.324666,2029.113565,363.709035,-9533.005238
736.327892,2239.681954,57.427742,-9169.296203
736.331119,727.418070,995.414202,-9647.860723
736.334345,-133.998066,57.427742,-10202.995566
736.337571,-784.845813,1684.547110,-9226.723946
736.340797,-516.849682,229.710970,-9609.575562
736.344024,-401.994197,2277.967115,-9513.862658
736.347250,363.709035,-689.132909,-10183.852986
736.350476,2871.387120,1435.693560,-9016.155557
736.353702,3177.668413,382.851616,-9724.431046
736.356928,4670.789715,995.414202,-9169.296203
736.360155,2469.392923,-267.996131,-9724.431046
736.363381,-1091.127106,1014.556782,-9628.718142
736.366607,-3388.236802,2354.537438,-9150.153622
736.369833,-1703.689691,-1014.556782,-10470.991698
736.373059,382.851616,2469.392923,-9207.581365
736.376286,-803.988394,-401.994197,-9762.716208
736.379496,1952.543242,1263.410333,-8824.729749
736.382706,2507.678085,172.283227,-10145.567824
736.385917,440.279358,612.562586,-9686.145885
736.389127,-880.558717,133.998066,-9284.151688
736.392337,-2067.398726,631.705166,-10030.712339
736.395547,-1167.697429,1665.404530,-9801.001370
736.398758,76.570323,153.140646,-9628.718142
736.401968,2545.963246,1780.260014,-9226.723946
736.405178,114.855485,-401.994197,-10164.710405
736.408389,612.562586,2220.539373,-9016.155557
736.411599,-1205.982590,-1091.127106,-10049.854920
736.414809,-3081.955509,1186.840010,-9437.292334
736.418020,823.130974,1148.554848,-9533.005238
736.421230,1952.543242,38.285162,-9877.571693
736.424440,1320.838075,1722.832272,-9552.147819
736.427650,287.138712,-191.425808,-9954.142016
736.430861,2354.537438,2431.107762,-8671.589102
736.434071,2565.105827,-650.847747,-10088.140082
736.437281,1225.125171,1473.978722,-8958.727814
736.440492,1282.552914,-1263.410333,-10011.569758
736.443702,172.283227,1512.263883,-9513.862658
736.446912,-153.140646,727.418070,-9820.143950
736.450123,-976.271621,497.707101,-9724.431046
736.453333,-401.994197,2124.826469,-9111.868461
736.456543,-631.705166,153.140646,-10049.854920
736.459753,2373.680019,2201.396792,-8901.300072
736.462964,3292.523898,-995.414202,-9896.714274
736.466174,3292.523898,1186.840010,-9207.581365
736.469384,2641.676150,57.427742,-9686.145885
736.472595,-1205.982590,1435.693560,-9418.149754
736.475805,-3024.527766,-114.855485,-10164.710405
736.479015,-1569.691626,880.558717,-9513.862658
736.508064,-1033.699363,842.273555,-10068.997501
736.511291,57.427742,727.418070,-9858.429112
736.514519,-325.423874,899.701298,-9533.005238
736.517747,229.710970,937.986459,-9781.858789
736.520974,803.988394,1148.554848,-9379.864592
736.524202,-689.132909,-918.843878,-9820.143950
736.527430,-2737.389054,1837.687757,-9456.434915
736.530657,1914.258080,-363.709035,-9801.001370
736.533885,1071.984525,1071.984525,-9284.151688
736.537112,0.000000,535.992262,-10011.569758
736.540340,669.990328,1052.841944,-9647.860723
736.543568,2335.394858,1129.412267,-9303.294269
736.546795,2507.678085,1225.125171,-9590.432981
736.550023,2220.539373,957.129040,-9609.575562
736.553251,976.271621,-1129.412267,-9647.860723
736.556478,-803.988394,1875.972918,-9150.153622
736.559706,-650.847747,57.427742,-10451.849117
736.562933,-95.712904,2182.254211,-8863.014910
736.566161,-497.707101,325.423874,-9781.858789
736.569389,516.849682,1359.123237,-9801.001370
736.572616,2048.256146,1052.841944,-9379.864592
736.575844,2143.969050,-535.992262,-9667.003304
736.579072,3273.381317,1320.838075,-9513.862658
736.582299,4268.795518,-401.994197,-9590.432981
736.585512,-957.129040,1550.549045,-9226.723946
736.588724,-1895.115499,-459.421939,-10260.423309
736.591937,-1512.263883,2143.969050,-9379.864592
736.595149,-1263.410333,612.562586,-9628.718142
736.598362,-861.416136,1454.836141,-9609.575562
736.601575,267.996131,612.562586,-9705.288466
736.604787,1780.260014,191.425808,-9322.436850
736.608000,1205.982590,861.416136,-9571.290400
736.611212,708.275490,-248.853550,-9647.860723
736.614425,-1722.832272,1646.261949,-9379.864592
736.617637,-1339.980656,19.142581,-10145.567824
736.620850,-842.273555,2258.824534,-9494.720077
736.624063,669.990328,-114.855485,-9686.145885
736.627275,401.994197,2124.826469,-9131.011042
736.630488,1684.547110,593.420005,-9896.714274
736.633700,-363.709035,-478.564520,-9686.145885
736.636913,-3120.240670,1071.984525,-9341.579430
736.640125,-114.855485,497.707101,-9915.856854
736.643338,995.414202,1205.982590,-9571.290400
736.646551,363.709035,153.140646,-9915.856854
736.649763,861.416136,1799.402595,-9475.577496
736.652976,2928.814862,459.421939,-9552.147819
736.656188,3675.375514,957.129040,-9207.581365
736.659401,1129.412267,-95.712904,-9686.145885
736.662625,727.418070,95.712904,-9513.862658
736.665826,76.570323,765.703232,-9475.577496
736.669026,-459.421939,574.277424,-9801.001370
736.672227,-478.564520,1875.972918,-9475.577496
736.675428,1167.697429,-153.140646,-9781.858789
736.678628,1359.123237,1837.687757,-9590.432981
736.681829,2967.100024,133.998066,-9973.284597
736.685029,2450.250342,1359.123237,-8767.302006
736.688230,3101.098090,-325.423874,-9705.288466
736.691431,2775.674216,708.275490,-9475.577496
736.694631,-287.138712,1244.267752,-9399.007173
736.697832,-3005.385186,267.996131,-9647.860723
736.701033,-1914.258080,1665.404530,-9915.856854
736.704233,-478.564520,421.136778,-9858.429112
736.707434,38.285162,1378.265818,-8843.872330
736.710635,2163.111630,153.140646,-10107.282662
736.713835,2737.389054,937.986459,-9418.149754
736.717036,1186.840010,95.712904,-9303.294269
736.720237,-1167.697429,899.701298,-9724.431046
736.723437,-1435.693560,1320.838075,-9705.288466
736.726638,-440.279358,803.988394,-9456.434915
736.729839,38.285162,1837.687757,-9686.145885
736.733039,899.701298,-210.568389,-9801.001370
736.736240,918.843878,976.271621,-9150.153622
736.739441,-306.281293,210.568389,-9877.571693
736.742641,-1320.838075,1033.699363,-9360.722011
736.745842,-1435.693560,-38.285162,-9590.432981
736.749043,-1761.117434,1186.840010,-9609.575562
736.752243,574.277424,1914.258080,-9686.145885
736.755444,2488.535504,-114.855485,-9686.145885
736.758645,3235.096155,1856.830338,-9035.298138
736.761845,4517.649069,-306.281293,-10088.140082
736.765036,1512.263883,1167.697429,-9054.440718
736.768227,-172.283227,95.712904,-9609.575562
736.771417,-1091.127106,995.414202,-9743.573627
736.774608,229.710970,842.273555,-9705.288466
736.777799,-210.568389,842.273555,-9360.722011
736.780989,382.851616,1397.408398,-9513.862658
736.784180,631.705166,574.277424,-9954.142016
736.787371,2163.111630,1378.265818,-9284.151688
736.790561,1684.547110,325.423874,-9418.149754
736.793752,3656.232933,823.130974,-9590.432981
736.796943,3579.662610,-612.562586,-9647.860723
736.800134,-823.130974,1761.117434,-9207.581365
736.803324,-497.707101,-153.140646,-10222.138147
736.806515,-555.134843,1856.830338,-9322.436850
736.809706,-1301.695494,1282.552914,-9839.286531
736.812896,-784.845813,708.275490,-9781.858789
736.816087,172.283227,727.418070,-9341.579430
736.819278,1435.693560,-593.420005,-9705.288466
736.822468,344.566454,1550.549045,-9513.862658
736.825659,-995.414202,-421.136778,-9781.858789
736.828850,-1684.547110,1607.976787,-9284.151688
736.832040,-344.566454,995.414202,-9973.284597
736.835231,918.843878,861.416136,-9801.001370
736.838422,1761.117434,459.421939,-9265.009107
736.841613,842.273555,612.562586,-9647.860723
736.844803,-133.998066,1320.838075,-9475.577496
736.847994,-1971.685822,-593.420005,-9801.001370
736.851185,-2584.248408,1588.834206,-9360.722011
736.854375,-516.849682,574.277424,-9877.571693
736.857566,1684.547110,1186.840010,-9494.720077
736.860757,2163.111630,612.562586,-9475.577496
736.863947,2526.820666,1282.552914,-9628.718142
736.867129,3943.371645,153.140646,-9475.577496
736.870311,1244.267752,210.568389,-9303.294269
736.873493,-1186.840010,1780.260014,-9494.720077
736.876675,-918.843878,-593.420005,-9896.714274
736.879857,133.998066,1856.830338,-9226.723946
736.883039,899.701298,267.996131,-9973.284597
736.886221,1359.123237,1646.261949,-9265.009107
736.889403,1244.267752,497.707101,-9533.005238
736.892585,2411.965181,1875.972918,-9571.290400
736.895767,2067.398726,363.709035,-9169.296203
736.898949,2431.107762,-363.709035,-9552.147819
736.902131,2699.103893,1531.406464,-9667.003304
736.905313,-593.420005,689.132909,-9724.431046
736.908495,-1225.125171,669.990328,-9609.575562
736.911677,-631.705166,727.418070,-10030.712339
736.914859,-880.558717,1818.545176,-9686.145885
736.918041,-574.277424,-248.853550,-9609.575562
736.921223,-172.283227,440.279358,-9341.579430
736.924405,1550.549045,-306.281293,-9686.145885
736.927587,-114.855485,459.421939,-9533.005238
736.930769,-784.845813,1091.127106,-9647.860723
736.933951,-976.271621,765.703232,-9762.716208
736.937133,593.420005,1818.545176,-9609.575562
736.940315,1186.840010,-210.568389,-9839.286531
736.943497,1799.402595,1837.687757,-9226.723946
736.946679,1091.127106,-842.273555,-9801.001370
736.949861,-1110.269686,1129.412267,-9207.581365
736.953043,-2756.531635,708.275490,-9934.999435
736.956225,-2565.105827,784.845813,-9667.003304
736.959406,-2507.678085,765.703232,-9571.290400
736.962588,133.998066,1435.693560,-9667.003304
736.965770,3043.670347,1129.412267,-9533.005238
736.994408,-612.562586,2143.969050,-9303.294269
736.997590,38.285162,1071.984525,-9934.999435
737.000772,1837.687757,-363.709035,-9801.001370
737.003954,1780.260014,1761.117434,-8614.161360
737.007136,2201.396792,-478.564520,-10413.563955
737.010318,2411.965181,1531.406464,-9360.722011
737.013500,-421.136778,880.558717,-9647.860723
737.016682,-612.562586,248.853550,-9743.573627
737.019864,-861.416136,153.140646,-10164.710405
737.023046,-325.423874,669.990328,-9341.579430
737.026228,-1282.552914,918.843878,-9169.296203
737.029410,574.277424,19.142581,-10222.138147
737.032592,344.566454,1416.550979,-9284.151688
737.035774,-478.564520,478.564520,-9609.575562
737.038956,-976.271621,1512.263883,-9494.720077
737.042138,-1071.984525,267.996131,-9724.431046
737.045312,1320.838075,1550.549045,-9284.151688
737.048487,2354.537438,344.566454,-10068.997501
737.051661,1416.550979,421.136778,-9054.440718
737.054835,574.277424,1129.412267,-9360.722011
737.058010,-2239.681954,-133.998066,-10336.993632
737.061184,-3522.234867,1818.545176,-9245.866526
737.064359,459.421939,-19.142581,-9705.288466
737.067533,842.273555,1895.115499,-9456.434915
737.070702,1225.125171,-95.712904,-10049.854920
737.073872,3081.955509,1167.697429,-9131.011042
737.077041,3560.520029,555.134843,-9303.294269
737.080210,2029.113565,229.710970,-9667.003304
737.083379,-229.710970,382.851616,-9475.577496
737.086549,421.136778,708.275490,-9954.142016
737.089718,267.996131,1550.549045,-9513.862658
737.092887,-574.277424,267.996131,-9590.432981
737.096057,440.279358,1263.410333,-9379.864592
737.099226,-19.142581,133.998066,-9992.427178
737.102395,1703.689691,1205.982590,-9016.155557
737.105564,1512.263883,38.285162,-9628.718142
737.108734,2239.681954,574.277424,-9743.573627
737.111903,2488.535504,1320.838075,-9552.147819
737.115072,-1110.269686,899.701298,-9571.290400
737.118242,-1225.125171,1359.123237,-9590.432981
737.121411,669.990328,-38.285162,-9934.999435
737.124580,172.283227,2048.256146,-8958.727814
737.127749,-1588.834206,-650.847747,-10145.567824
737.130919,1895.115499,1071.984525,-9073.583299
737.134088,172.283227,-267.996131,-9954.142016
737.137257,-1493.121302,1148.554848,-9820.143950
737.140426,-1129.412267,1129.412267,-9437.292334
737.143596,440.279358,497.707101,-9724.431046
737.146765,727.418070,1856.830338,-9762.716208
737.149934,1646.261949,19.142581,-9743.573627
737.153104,2048.256146,1225.125171,-9016.155557
737.156273,248.853550,-38.285162,-9724.431046
737.159442,-2565.105827,1148.554848,-9801.001370
737.162611,-3637.090352,823.130974,-9647.860723
737.165781,-478.564520,1512.263883,-9207.581365
737.168950,114.855485,765.703232,-10011.569758
737.172115,918.843878,172.283227,-9858.429112
737.175281,3388.236802,1186.840010,-9169.296203
737.178446,3866.801322,-344.566454,-9839.286531
737.181611,1741.974853,1493.121302,-8958.727814
737.184776,535.992262,-976.271621,-10049.854920
737.187942,-19.142581,2373.680019,-9399.007173
737.191107,-516.849682,172.283227,-10222.138147
737.194272,-114.855485,957.129040,-9150.153622
737.197438,-76.570323,803.988394,-9973.284597
737.200603,995.414202,478.564520,-9724.431046
737.203768,2182.254211,842.273555,-9016.155557
737.206933,880.558717,-19.142581,-9954.142016
737.210099,1799.402595,1454.836141,-9265.009107
737.213264,2813.959378,-133.998066,-9801.001370
737.216429,-459.421939,2143.969050,-9552.147819
737.219595,-995.414202,-191.425808,-9628.718142
737.222760,689.132909,861.416136,-9360.722011
737.225925,-440.279358,1320.838075,-9590.432981
737.229090,-1416.550979,478.564520,-9418.149754
737.232256,1703.689691,765.703232,-9341.579430
737.235421,248.853550,-267.996131,-10068.997501
737.238586,-1014.556782,2163.111630,-9341.579430
737.241752,-918.843878,-267.996131,-9954.142016
737.244917,1110.269686,2526.820666,-9035.298138
737.248082,497.707101,0.000000,-10279.565890
737.251247,1990.828403,1071.984525,-9111.868461
737.254413,535.992262,-191.425808,-9437.292334
737.257578,-459.421939,918.843878,-9839.286531
737.260743,-2048.256146,823.130974,-9667.003304
737.263909,-2909.672282,57.427742,-9915.856854
737.267074,-1512.263883,2220.539373,-9513.862658
737.270239,1167.697429,19.142581,-9973.284597
737.273402,2450.250342,1263.410333,-9111.868461
737.276564,3579.662610,344.566454,-9915.856854
737.279727,4938.785846,689.132909,-9494.720077
737.282889,19.142581,172.283227,-9322.436850
737.286052,-976.271621,880.558717,-9437.292334
737.289214,267.996131,1339.980656,-9858.429112
737.292377,229.710970,-114.855485,-9456.434915
737.295539,38.285162,1895.115499,-9360.722011
737.298702,-344.566454,-210.568389,-9973.284597
737.301864,1895.115499,1799.402595,-9035.298138
737.305027,2124.826469,-937.986459,-9724.431046
737.308189,1359.123237,1014.556782,-9188.438784
737.311352,2947.957443,0.000000,-9839.286531
737.314514,995.414202,1186.840010,-9475.577496
737.317677,689.132909,1722.832272,-9513.862658
737.320839,593.420005,555.134843,-9686.145885
737.324002,-172.283227,1244.267752,-9226.723946
737.327164,-1875.972918,-172.283227,-10260.423309
737.330327,-1167.697429,669.990328,-9073.583299
737.333489,995.414202,-153.140646,-9686.145885
737.336652,248.853550,1359.123237,-9724.431046
737.339814,-1320.838075,1148.554848,-9609.575562
737.342977,-1071.984525,823.130974,-9494.720077
737.346139,-459.421939,1186.840010,-9820.143950
737.349302,727.418070,440.279358,-9705.288466
737.352464,2182.254211,1205.982590,-9092.725880
737.355627,899.701298,-382.851616,-9667.003304
737.358789,-191.425808,555.134843,-9743.573627
737.361952,-2833.101958,-287.138712,-9915.856854
737.365114,-593.420005,1703.689691,-9073.583299
737.368276,-1339.980656,669.990328,-10126.425243
737.371439,-76.570323,650.847747,-9533.005238
737.374626,3905.086483,784.845813,-9724.431046
737.377813,5187.639397,440.279358,-9552.147819
737.381001,3330.809059,1091.127106,-8901.300072
737.384188,-95.712904,-1052.841944,-10126.425243
737.387375,-421.136778,2297.109696,-9513.862658
737.390562,-325.423874,-153.140646,-10068.997501
737.393749,-574.277424,1895.115499,-8997.012976
737.396937,-574.277424,708.275490,-9743.573627
737.400124,2067.398726,1052.841944,-9475.577496
737.403311,3005.385186,-38.285162,-9552.147819
737.406498,2852.244539,535.992262,-9533.005238
737.409685,2947.957443,631.705166,-9456.434915
737.412873,2124.826469,382.851616,-9705.288466
737.416060,287.138712,2201.396792,-9437.292334
737.419247,-555.134843,363.709035,-9820.143950
737.422434,38.285162,861.416136,-9533.005238
737.425621,-2258.824534,478.564520,-9934.999435
737.428808,-1205.982590,823.130974,-9284.151688
737.431996,1952.543242,784.845813,-9609.575562
737.435183,650.847747,-267.996131,-9801.001370
737.438370,-497.707101,2411.965181,-9303.294269
737.441557,-1397.408398,-133.998066,-9877.571693
737.444744,-19.142581,2277.967115,-9226.723946
737.447932,210.568389,-19.142581,-10202.995566
737.451119,1493.121302,1397.408398,-9092.725880
737.454306,1071.984525,-210.568389,-9245.866526
737.457493,306.281293,306.281293,-9801.001370
737.460680,-2411.965181,631.705166,-9552.147819
737.463868,-555.134843,555.134843,-9379.864592
737.467055,-2048.256146,1416.550979,-9877.571693
737.470242,-995.414202,650.847747,-9858.429112
737.473429,3771.088418,727.418070,-9284.151688
737.476638,5264.209720,689.132909,-9609.575562
737.479847,4441.078746,918.843878,-9131.011042
737.483055,267.996131,-727.418070,-9724.431046
737.486264,-153.140646,1550.549045,-9513.862658
737.489473,57.427742,497.707101,-9973.284597
737.492682,-957.129040,957.129040,-9188.438784
737.495891,-1148.554848,1186.840010,-9628.718142
737.499099,1531.406464,650.847747,-10030.712339
737.553648,-114.855485,1014.556782,-9379.864592
737.556857,-1454.836141,478.564520,-9877.571693
737.560066,-2603.390989,1684.547110,-9667.003304
737.563275,-1416.550979,708.275490,-9552.147819
737.566483,-1205.982590,593.420005,-9609.575562
737.569692,765.703232,1493.121302,-9513.862658
737.572901,3024.527766,-861.416136,-9801.001370
737.576110,3656.232933,1435.693560,-9150.153622
737.579337,3177.668413,-382.851616,-9992.427178
737.582565,-1895.115499,1646.261949,-9475.577496
737.585793,-669.990328,727.418070,-9552.147819
737.589020,918.843878,1320.838075,-9801.001370
737.592248,1129.412267,306.281293,-9533.005238
737.595476,1244.267752,459.421939,-9207.581365
737.598703,1914.258080,497.707101,-9609.575562
737.601931,401.994197,114.855485,-9858.429112
737.605159,210.568389,1378.265818,-9226.723946
737.608386,1895.115499,612.562586,-9590.432981
737.611614,2335.394858,2009.970984,-9877.571693
737.614842,1933.400661,382.851616,-9686.145885
737.618069,1473.978722,1818.545176,-8958.727814
737.621297,-38.285162,-631.705166,-9973.284597
737.624525,-3120.240670,631.705166,-9437.292334
737.627752,-3962.514226,976.271621,-9552.147819
737.630980,1186.840010,1531.406464,-9552.147819
737.634207,-57.427742,765.703232,-9743.573627
737.637435,-306.281293,823.130974,-9379.864592
737.640663,1091.127106,1359.123237,-9494.720077
737.643890,1818.545176,287.138712,-9839.286531
737.647118,2086.541307,995.414202,-8901.300072
737.650346,823.130974,-344.566454,-9743.573627
737.653573,-823.130974,1244.267752,-9801.001370
737.682540,-1225.125171,1435.693560,-9609.575562
737.685758,-401.994197,593.420005,-9858.429112
737.688976,306.281293,650.847747,-9513.862658
737.692194,1531.406464,1971.685822,-9245.866526
737.695412,1129.412267,-765.703232,-9820.143950
737.698630,2679.961312,1320.838075,-9169.296203
737.701848,1837.687757,-325.423874,-9877.571693
737.705066,1646.261949,1339.980656,-9245.866526
737.708284,2029.113565,-38.285162,-9762.716208
737.711502,-459.421939,1531.406464,-9628.718142
737.714720,-899.701298,229.710970,-9647.860723
737.717938,459.421939,593.420005,-9533.005238
737.721156,-765.703232,1569.691626,-9456.434915
737.724375,-2450.250342,-382.851616,-9877.571693
737.727593,287.138712,1014.556782,-9341.579430
737.730811,-133.998066,-133.998066,-10126.425243
737.734029,-1397.408398,1799.402595,-9188.438784
737.737247,-1665.404530,38.285162,-9820.143950
737.740465,287.138712,1837.687757,-9571.290400
737.743683,1799.402595,631.705166,-9839.286531
737.746901,1091.127106,38.285162,-9150.153622
737.750119,1493.121302,976.271621,-9456.434915
737.753337,-516.849682,-248.853550,-10183.852986
737.756555,-2603.390989,1818.545176,-9169.296203
737.759791,-497.707101,-363.709035,-9705.288466
737.763028,-1339.980656,1722.832272,-9533.005238
737.766264,-823.130974,440.279358,-10107.282662
737.769500,2411.965181,1091.127106,-9226.723946
737.772736,5953.342629,937.986459,-9341.579430
737.775972,3675.375514,-248.853550,-9571.290400
737.779209,-248.853550,689.132909,-9322.436850
737.782445,2182.254211,555.134843,-9992.427178
737.785681,-172.283227,1607.976787,-9743.573627
737.788917,-937.986459,344.566454,-9399.007173
737.792153,-669.990328,1550.549045,-9322.436850
737.795390,1990.828403,325.423874,-10126.425243
737.798626,2354.537438,1569.691626,-8805.587168
737.801862,3790.230998,57.427742,-9437.292334
737.805098,3407.379382,210.568389,-9762.716208
737.808334,-631.705166,842.273555,-9743.573627
737.811570,-267.996131,-38.285162,-9686.145885
737.814807,-1186.840010,1378.265818,-9724.431046
737.818043,-2852.244539,937.986459,-9686.145885
737.821279,-2431.107762,1741.974853,-9341.579430
737.824515,2029.113565,-325.423874,-10068.997501
737.827751,1263.410333,325.423874,-9533.005238
737.830988,-1818.545176,823.130974,-9322.436850
737.834224,-746.560651,727.418070,-9781.858789
737.837460,-631.705166,1588.834206,-9724.431046
737.840696,708.275490,535.992262,-9437.292334
737.843932,440.279358,1435.693560,-9475.577496
737.847169,593.420005,229.710970,-9992.427178
737.850405,-191.425808,1186.840010,-9647.860723
737.853641,-861.416136,-306.281293,-9609.575562
737.856877,555.134843,937.986459,-9303.294269
737.860113,-861.416136,-38.285162,-9839.286531
737.863349,-1301.695494,1282.552914,-9762.716208
737.866586,1512.263883,976.271621,-10030.712339
737.869822,3713.660675,861.416136,-9207.581365
737.873058,1607.976787,1531.406464,-9303.294269
737.876294,1033.699363,-555.134843,-10011.569758
737.879530,2871.387120,1301.695494,-9169.296203
737.882767,2335.394858,-765.703232,-9934.999435
737.886003,650.847747,1761.117434,-9150.153622
737.889254,-1761.117434,153.140646,-9992.427178
737.892505,-899.701298,1225.125171,-9513.862658
737.895756,1110.269686,1339.980656,-9647.860723
737.899007,2584.248408,765.703232,-9360.722011
737.902257,4977.071008,1148.554848,-9265.009107
737.905508,2890.529701,210.568389,-10049.854920
737.908759,-363.709035,937.986459,-9207.581365
737.912010,-1741.974853,-382.851616,-9839.286531
737.915261,-4823.930362,2220.539373,-9456.434915
737.918512,-4211.367776,401.994197,-9934.999435
737.921763,1531.406464,1818.545176,-9399.007173
737.925014,2297.109696,95.712904,-9820.143950
737.928265,325.423874,421.136778,-9341.579430
737.931516,784.845813,516.849682,-9475.577496
737.934767,306.281293,-267.996131,-9915.856854
737.938018,-440.279358,2239.681954,-9150.153622
737.941269,-995.414202,-823.130974,-9896.714274
737.944520,-765.703232,1895.115499,-9322.436850
737.947771,-2182.254211,267.996131,-10509.276859
737.951022,-1282.552914,1627.119368,-9054.440718
737.954273,-937.986459,555.134843,-9571.290400
737.957524,574.277424,440.279358,-9743.573627
737.960775,1971.685822,1167.697429,-9245.866526
737.964025,2928.814862,-210.568389,-9858.429112
737.967289,3560.520029,1875.972918,-9341.579430
737.970552,-2565.105827,363.709035,-10068.997501
737.973815,-976.271621,1875.972918,-9150.153622
737.977078,2009.970984,267.996131,-9954.142016
737.980342,2411.965181,593.420005,-9437.292334
737.983605,1761.117434,191.425808,-9054.440718
737.986868,2163.111630,325.423874,-9877.571693
737.990131,746.560651,1914.258080,-9724.431046
737.993394,172.283227,-363.709035,-9590.432981
737.996658,1875.972918,2105.683888,-9131.011042
737.999921,-535.992262,-421.136778,-10470.991698
738.003184,2048.256146,1761.117434,-9131.011042
738.006447,3120.240670,-57.427742,-9494.720077
738.009710,-593.420005,823.130974,-9571.290400
738.012974,-4536.791650,287.138712,-9858.429112
738.016237,-669.990328,172.283227,-9513.862658
738.071904,650.847747,-1186.840010,-9724.431046
738.075178,-287.138712,1359.123237,-9265.009107
738.078453,650.847747,842.273555,-10107.282662
738.081727,325.423874,1071.984525,-9379.864592
738.085002,-957.129040,1225.125171,-9418.149754
738.088276,-57.427742,287.138712,-10164.710405
738.091551,1493.121302,2220.539373,-9226.723946
738.094825,2986.242605,-1359.123237,-9762.716208
738.098100,4823.930362,1875.972918,-8652.446522
738.101374,1761.117434,-1263.410333,-10298.708470
738.104649,1339.980656,1607.976787,-9284.151688
738.107923,229.710970,1225.125171,-9513.862658
738.111198,-2316.252277,669.990328,-9973.284597
738.114472,-4881.358104,593.420005,-9743.573627
738.117747,-1052.841944,555.134843,-9858.429112
738.121021,2526.820666,1722.832272,-9245.866526
738.124296,1588.834206,-976.271621,-9533.005238
738.127570,516.849682,1761.117434,-9131.011042
738.130845,1129.412267,-555.134843,-10356.136213
738.134119,382.851616,1875.972918,-9092.725880
738.137394,-1933.400661,-267.996131,-9801.001370
738.140669,-1186.840010,1856.830338,-9379.864592
738.143943,-114.855485,957.129040,-9896.714274
738.147218,-76.570323,-440.279358,-9705.288466
738.150492,861.416136,1225.125171,-9111.868461
738.153767,823.130974,-1225.125171,-10126.425243
738.157041,-248.853550,2431.107762,-9169.296203
738.160316,1301.695494,-57.427742,-10222.138147
738.163590,3828.516160,1703.689691,-9092.725880
738.166865,-1110.269686,191.425808,-9609.575562
738.170139,440.279358,1493.121302,-9571.290400
738.173414,2890.529701,727.418070,-9686.145885
738.176695,1990.828403,-76.570323,-9399.007173
738.179977,-248.853550,1435.693560,-9111.868461
738.183258,-172.283227,-287.138712,-10126.425243
738.186539,-440.279358,2431.107762,-9284.151688
738.189821,842.273555,-191.425808,-9858.429112
738.193102,3024.527766,1971.685822,-9035.298138
738.196384,2565.105827,-421.136778,-9781.858789
738.199665,2871.387120,1627.119368,-9399.007173
738.202947,2852.244539,382.851616,-9494.720077
738.206228,-1665.404530,-267.996131,-9533.005238
738.209509,-5015.356170,1454.836141,-9571.290400
738.212791,-3062.812928,-267.996131,-10451.849117
738.216072,-631.705166,2201.396792,-8997.012976
738.219354,-803.988394,-421.136778,-10107.282662
738.222635,1225.125171,2029.113565,-9131.011042
738.225917,2067.398726,-497.707101,-10011.569758
738.229198,2354.537438,535.992262,-9571.290400
738.232479,574.277424,-650.847747,-9475.577496
738.235761,-1512.263883,344.566454,-9705.288466
738.239042,-2871.387120,1550.549045,-9762.716208
738.242324,-2469.392923,937.986459,-9934.999435
738.245605,-765.703232,1741.974853,-9188.438784
738.248887,-382.851616,344.566454,-9686.145885
738.252168,3388.236802,1875.972918,-9456.434915
738.255449,5340.780043,-421.136778,-9628.718142
738.258731,4498.506488,650.847747,-9092.725880
738.262012,-1339.980656,593.420005,-9628.718142
738.265294,-1263.410333,1454.836141,-9552.147819
738.268575,-650.847747,937.986459,-9954.142016
738.271857,0.000000,421.136778,-9724.431046
738.275138,1091.127106,1933.400661,-9016.155557
738.278420,1780.260014,-803.988394,-10049.854920
738.281709,2488.535504,1856.830338,-9245.866526
738.284998,3235.096155,-842.273555,-9820.143950
738.288287,2641.676150,1014.556782,-8920.442653
738.291576,-555.134843,535.992262,-10049.854920
738.294865,-210.568389,880.558717,-9973.284597
738.298154,784.845813,1359.123237,-9533.005238
738.301443,-2699.103893,1091.127106,-9494.720077
738.304732,-2316.252277,1339.980656,-9762.716208
738.308021,2316.252277,-267.996131,-9934.999435
738.311310,1186.840010,746.560651,-9322.436850
738.314599,-38.285162,114.855485,-9207.581365
738.317888,-746.560651,1588.834206,-9513.862658
738.321177,-287.138712,535.992262,-10068.997501
738.324466,95.712904,1378.265818,-9552.147819
738.327755,-133.998066,1148.554848,-9379.864592
738.331044,440.279358,-153.140646,-9418.149754
738.334333,-267.996131,1244.267752,-9896.714274
738.337622,1531.406464,-746.560651,-9762.716208
738.340911,-1818.545176,1129.412267,-8824.729749
738.344200,-2641.676150,382.851616,-10164.710405
738.347489,1301.695494,1799.402595,-9762.716208
738.350778,4077.369710,287.138712,-9475.577496
738.354067,3273.381317,918.843878,-9092.725880
738.357356,880.558717,765.703232,-9781.858789
738.360645,2029.113565,76.570323,-9628.718142
738.363934,823.130974,823.130974,-9418.149754
738.367223,382.851616,114.855485,-9494.720077
738.370512,-689.132909,1359.123237,-9245.866526
738.373801,-114.855485,746.560651,-10011.569758
738.377090,1646.261949,1607.976787,-9877.571693
738.380379,4058.227130,-76.570323,-9284.151688
738.383668,3560.520029,842.273555,-8882.157491
738.386963,3560.520029,440.279358,-10088.140082
738.390258,2201.396792,995.414202,-9131.011042
738.393553,-2316.252277,76.570323,-9647.860723
738.396848,-5647.061336,459.421939,-9877.571693
738.400143,-3388.236802,1933.400661,-9628.718142
738.403438,248.853550,842.273555,-9801.001370
738.406734,746.560651,976.271621,-9418.149754
738.410029,1148.554848,325.423874,-9647.860723
738.413324,2029.113565,172.283227,-9437.292334
738.416619,937.986459,1167.697429,-9743.573627
738.419914,153.140646,-57.427742,-9456.434915
738.423209,-1837.687757,1167.697429,-9131.011042
738.426504,-3215.953574,421.136778,-10183.852986
738.429799,-1875.972918,2411.965181,-9724.431046
738.433094,-478.564520,248.853550,-9571.290400
738.436389,-38.285162,1646.261949,-9111.868461
738.439685,3809.373579,-325.423874,-10030.712339
738.442980,5091.926493,803.988394,-9456.434915
738.446275,3541.377448,344.566454,-9399.007173
738.449570,-1875.972918,1110.269686,-9437.292334
738.452865,-1933.400661,1110.269686,-9877.571693
738.456160,-421.136778,861.416136,-9743.573627
738.459455,842.273555,1473.978722,-9590.432981
738.462750,1684.547110,-76.570323,-9341.579430
738.466045,2029.113565,459.421939,-9245.866526
738.469340,3254.238736,-401.994197,-10241.280728
738.472635,2833.101958,861.416136,-9016.155557
738.475931,1588.834206,937.986459,-9131.011042
738.479226,727.418070,1091.127106,-9801.001370
738.482521,555.134843,2335.394858,-9705.288466
738.485816,478.564520,-937.986459,-9954.142016
738.489111,-3215.953574,1588.834206,-9150.153622
738.492410,-1301.695494,-267.996131,-10049.854920
738.495709,2411.965181,1780.260014,-9418.149754
738.499008,689.132909,-535.992262,-9877.571693
738.502307,-57.427742,1837.687757,-9054.440718
738.505607,-861.416136,210.568389,-9992.427178
738.508906,76.570323,1780.260014,-9801.001370
738.512205,172.283227,497.707101,-9647.860723
738.515504,210.568389,95.712904,-9245.866526
738.571589,4153.940034,57.427742,-8997.012976
738.574888,650.847747,1225.125171,-9399.007173
738.578187,-1014.556782,-57.427742,-10279.565890
738.581486,-497.707101,2009.970984,-9533.005238
738.584785,-4096.512291,57.427742,-9609.575562
738.588084,-3273.381317,2277.967115,-9131.011042
738.591383,2584.248408,401.994197,-10356.136213
738.594683,2737.389054,421.136778,-9226.723946
738.597985,-287.138712,248.853550,-9188.438784
738.601288,555.134843,114.855485,-9571.290400
738.604590,-382.851616,1761.117434,-9858.429112
738.607893,-1378.265818,-421.136778,-10068.997501
738.611196,-1454.836141,2258.824534,-8843.872330
738.614498,-918.843878,-421.136778,-10202.995566
738.617801,-1091.127106,2201.396792,-9475.577496
738.621103,823.130974,153.140646,-9839.286531
738.624406,1110.269686,-114.855485,-9207.581365
738.627709,114.855485,727.418070,-9437.292334
738.631011,1435.693560,1167.697429,-10011.569758
738.634314,2890.529701,1359.123237,-9609.575562
738.637617,-1473.978722,287.138712,-9226.723946
738.640919,-765.703232,1761.117434,-9379.864592
738.644222,2258.824534,-172.283227,-10222.138147
738.647524,2488.535504,708.275490,-9245.866526
738.650827,1895.115499,-344.566454,-9245.866526
738.654130,1167.697429,746.560651,-9552.147819
738.657432,612.562586,899.701298,-10183.852986
738.660735,1569.691626,440.279358,-9590.432981
738.664037,2622.533570,2124.826469,-8939.585234
738.667340,2565.105827,-153.140646,-10030.712339
738.670643,2009.970984,2890.529701,-9188.438784
738.673945,401.994197,-1244.267752,-10394.421374
738.677248,-3522.234867,1186.840010,-8843.872330
738.680551,-3426.521963,363.709035,-9571.290400
738.683853,650.847747,1703.689691,-9801.001370
738.687156,-38.285162,287.138712,-10011.569758
738.690458,-669.990328,593.420005,-9111.868461
738.693761,287.138712,1493.121302,-9533.005238
738.697064,1416.550979,267.996131,-10566.704602
738.700366,1282.552914,1167.697429,-8882.157491
738.703653,-133.998066,-631.705166,-9533.005238
738.706958,-1531.406464,1320.838075,-9590.432981
738.710264,-1033.699363,76.570323,-10088.140082
738.713569,-3101.098090,1837.687757,-9360.722011
738.716874,-1454.836141,1148.554848,-9571.290400
738.720180,1550.549045,689.132909,-9494.720077
738.723485,5704.489078,1435.693560,-9686.145885
738.726791,5857.629725,-306.281293,-9686.145885
738.730096,306.281293,1301.695494,-8824.729749
738.733402,-1473.978722,-306.281293,-9954.142016
738.736707,631.705166,2163.111630,-9533.005238
738.740012,-1091.127106,-325.423874,-10126.425243
738.743318,-669.990328,1339.980656,-8671.589102
738.746623,1033.699363,1186.840010,-9839.286531
738.749929,3215.953574,440.279358,-10126.425243
738.753234,4594.219392,459.421939,-8901.300072
738.756539,1722.832272,-401.994197,-9418.149754
738.759845,1033.699363,631.705166,-9801.001370
738.763150,133.998066,535.992262,-9877.571693
738.766456,-2584.248408,1952.543242,-9418.149754
738.769761,-4287.938099,-172.283227,-9992.427178
738.773066,-114.855485,1416.550979,-9533.005238
738.776372,1225.125171,574.277424,-10088.140082
738.779677,1014.556782,535.992262,-9322.436850
738.782983,401.994197,478.564520,-9073.583299
738.786288,803.988394,-114.855485,-9973.284597
738.789593,669.990328,1665.404530,-9705.288466
738.792899,-2201.396792,-689.132909,-9915.856854
738.796204,-2718.246474,2297.109696,-8709.874264
738.799510,-1703.689691,133.998066,-10547.562021
738.802815,1780.260014,1454.836141,-9552.147819
738.806120,1818.545176,-555.134843,-9399.007173
738.809402,2086.541307,784.845813,-9188.438784
738.812684,2239.681954,937.986459,-9896.714274
738.815966,3235.096155,287.138712,-9801.001370
738.819248,-535.992262,1837.687757,-9092.725880
738.822530,-2067.398726,267.996131,-9705.288466
738.825812,880.558717,1722.832272,-9533.005238
738.829094,2239.681954,-38.285162,-10088.140082
738.832376,2354.537438,1225.125171,-9150.153622
738.835658,555.134843,-287.138712,-9265.009107
738.838940,2794.816797,995.414202,-9762.716208
738.842222,2641.676150,593.420005,-9954.142016
738.845504,631.705166,382.851616,-9111.868461
738.848786,1435.693560,1837.687757,-9188.438784
738.852068,1607.976787,957.129040,-10126.425243
738.855350,-1167.697429,1588.834206,-9609.575562
738.858632,-3139.383251,-995.414202,-9724.431046
738.861914,-1397.408398,1033.699363,-9150.153622
738.865196,937.986459,823.130974,-9973.284597
738.868478,191.425808,306.281293,-9762.716208
738.871760,-478.564520,1148.554848,-9475.577496
738.875042,-478.564520,153.140646,-9896.714274
738.878324,478.564520,1914.258080,-9418.149754
738.881606,19.142581,38.285162,-10222.138147
738.884888,-76.570323,1454.836141,-8786.444587
738.888170,-1454.836141,-765.703232,-9705.288466
738.891452,1378.265818,1301.695494,-9667.003304
738.894734,-401.994197,-555.134843,-9820.143950
738.898016,-1722.832272,1339.980656,-9303.294269
738.901298,1110.269686,1110.269686,-9858.429112
738.904580,4670.789715,765.703232,-9839.286531
738.907862,1282.552914,1071.984525,-9265.009107
738.911144,1225.125171,19.142581,-9341.579430
738.914431,3081.955509,1225.125171,-9475.577496
738.917718,918.843878,-153.140646,-10145.567824
738.921005,-344.566454,1665.404530,-8958.727814
738.924292,-669.990328,114.855485,-9801.001370
738.927579,421.136778,1512.263883,-9571.290400
738.930866,2373.680019,1110.269686,-9781.858789
738.934154,3713.660675,344.566454,-9494.720077
738.937441,3751.945837,1703.689691,-8901.300072
738.940728,3120.240670,574.277424,-9609.575562
738.944015,-1129.412267,708.275490,-9743.573627
738.947302,-5015.356170,-248.853550,-9992.427178
738.950589,-3579.662610,1550.549045,-8977.870395
738.953876,1014.556782,1397.408398,-9801.001370
738.957163,0.000000,1129.412267,-10049.854920
738.960450,248.853550,842.273555,-9073.583299
738.963737,1703.689691,248.853550,-9399.007173
738.967024,2067.398726,880.558717,-9896.714274
738.970311,-631.705166,-363.709035,-9877.571693
738.973598,-1454.836141,1301.695494,-9092.725880
738.976885,-2928.814862,153.140646,-10068.997501
738.980172,-114.855485,1761.117434,-9533.005238
738.983460,-459.421939,-306.281293,-9839.286531
738.986747,19.142581,1473.978722,-9456.434915
738.990034,3005.385186,325.423874,-9801.001370
738.993321,5513.063270,823.130974,-9131.011042
738.996608,2469.392923,478.564520,-9456.434915
738.999895,-574.277424,-95.712904,-9781.858789
739.003182,306.281293,1550.549045,-9399.007173
739.006469,19.142581,765.703232,-10126.425243
739.009756,-555.134843,1627.119368,-9379.864592
739.013043,-133.998066,631.705166,-9360.722011
739.016330,2986.242605,1014.556782,-9456.434915
739.019621,4670.789715,612.562586,-9820.143950
739.022911,2679.961312,-210.568389,-9379.864592
739.026201,2124.826469,210.568389,-9418.149754
739.029492,555.134843,1569.691626,-9877.571693
739.032782,-2813.959378,918.843878,-9820.143950
739.036073,-4919.643266,0.000000,-9705.288466
739.039363,-1646.261949,1952.543242,-9322.436850
739.042653,1339.980656,382.851616,-9820.143950
739.072267,995.414202,1895.115499,-9590.432981
739.075557,1818.545176,-937.986459,-9820.143950
739.078847,325.423874,669.990328,-9111.868461
739.082138,842.273555,1167.697429,-9762.716208
739.085428,3292.523898,1167.697429,-9896.714274
739.088719,-1339.980656,1129.412267,-9188.438784
739.092009,-1225.125171,612.562586,-9552.147819
739.095299,2373.680019,1339.980656,-9858.429112
739.098590,2258.824534,-38.285162,-9781.858789
739.101880,1359.123237,421.136778,-9284.151688
739.105170,803.988394,-382.851616,-9743.573627
739.108461,1359.123237,1225.125171,-9743.573627
739.111751,2545.963246,535.992262,-9724.431046
739.115042,133.998066,765.703232,-9475.577496
739.118332,2124.826469,746.560651,-9705.288466
739.121622,2775.674216,823.130974,-9475.577496
739.124915,-593.420005,1952.543242,-9609.575562
739.128208,-3273.381317,-1244.267752,-9973.284597
739.131501,-803.988394,669.990328,-8939.585234
739.134793,191.425808,976.271621,-9992.427178
739.138086,-708.275490,1244.267752,-9456.434915
739.141379,-1473.978722,440.279358,-9399.007173
739.144672,382.851616,1033.699363,-9781.858789
739.147964,1052.841944,2009.970984,-9801.001370
739.151257,421.136778,-708.275490,-9724.431046
739.154550,-708.275490,1052.841944,-9150.153622
739.157842,95.712904,-287.138712,-9954.142016
739.161135,-2545.963246,1818.545176,-9590.432981
739.164428,-1665.404530,267.996131,-9494.720077
739.167721,1588.834206,1588.834206,-9322.436850
739.171013,4192.225195,325.423874,-9934.999435
739.174306,3866.801322,1359.123237,-9379.864592
739.177599,210.568389,823.130974,-9839.286531
739.180892,803.988394,459.421939,-9207.581365
739.184184,669.990328,899.701298,-9513.862658
739.187477,516.849682,287.138712,-10126.425243
739.190770,172.283227,1703.689691,-9073.583299
739.194063,325.423874,-401.994197,-9973.284597
739.197355,2163.111630,2316.252277,-9418.149754
739.200648,3924.229064,344.566454,-9992.427178
739.203919,3177.668413,995.414202,-8824.729749
739.207189,2258.824534,976.271621,-9533.005238
739.210460,-401.994197,-325.423874,-10145.567824
739.213730,-4479.363907,976.271621,-9207.581365
739.217001,-4421.936165,1014.556782,-9513.862658
739.220271,1071.984525,1665.404530,-9954.142016
739.223542,172.283227,172.283227,-10030.712339
739.226813,382.851616,1818.545176,-8958.727814
739.230083,325.423874,172.283227,-9801.001370
739.233354,1703.689691,459.421939,-9399.007173
739.236624,172.283227,133.998066,-9724.431046
739.239895,-1397.408398,765.703232,-9303.294269
739.243165,-2775.674216,1167.697429,-9571.290400
739.246436,-1033.699363,555.134843,-9896.714274
739.249707,-344.566454,1416.550979,-9571.290400
739.252977,708.275490,-57.427742,-9801.001370
739.256248,3503.092286,1875.972918,-9131.011042
739.259518,5876.772306,172.283227,-10011.569758
739.262789,1780.260014,669.990328,-9054.440718
739.266059,-593.420005,325.423874,-9475.577496
739.269330,593.420005,344.566454,-10068.997501
739.272601,593.420005,1397.408398,-9801.001370
739.275871,-478.564520,325.423874,-9513.862658
739.279142,363.709035,1569.691626,-9303.294269
739.282412,2794.816797,325.423874,-9896.714274
739.285683,5264.209720,937.986459,-9207.581365
739.288953,3043.670347,76.570323,-9245.866526
739.292224,650.847747,172.283227,-9686.145885
739.295495,-497.707101,440.279358,-9954.142016
739.298765,-3598.805190,1856.830338,-9226.723946
739.302036,-4670.789715,1033.699363,-9954.142016
739.305306,708.275490,-19.142581,-9839.286531
739.308581,842.273555,937.986459,-9686.145885
739.311857,1014.556782,38.285162,-9609.575562
739.315132,669.990328,976.271621,-8958.727814
739.318407,574.277424,-555.134843,-10164.710405
739.321682,-248.853550,1971.685822,-9513.862658
739.324958,-2258.824534,172.283227,-10011.569758
739.328233,-3579.662610,1110.269686,-9303.294269
739.331508,344.566454,1033.699363,-9839.286531
739.334783,440.279358,-76.570323,-9992.427178
739.338059,325.423874,1091.127106,-9054.440718
739.341334,3503.092286,153.140646,-9705.288466
739.344609,4957.928427,1186.840010,-9379.864592
739.347884,1301.695494,-516.849682,-9667.003304
739.351159,-1454.836141,1301.695494,-9303.294269
739.354435,-287.138712,880.558717,-10068.997501
739.357710,19.142581,1435.693560,-9437.292334
739.360985,229.710970,497.707101,-9552.147819
739.364260,1741.974853,574.277424,-9475.577496
739.367536,2986.242605,937.986459,-9437.292334
739.370811,3866.801322,-478.564520,-9858.429112
739.374086,1110.269686,1244.267752,-9475.577496
739.377361,-172.283227,-1148.554848,-9992.427178
739.380636,-248.853550,2163.111630,-9111.868461
739.383912,-2201.396792,1320.838075,-10126.425243
739.387187,-3483.949706,248.853550,-9743.573627
739.390462,1512.263883,497.707101,-9552.147819
739.393737,2086.541307,248.853550,-9801.001370
739.397013,708.275490,1014.556782,-9437.292334
739.400288,-650.847747,-401.994197,-9475.577496
739.403563,-191.425808,1780.260014,-9552.147819
739.406838,-593.420005,784.845813,-10145.567824
739.410114,-2316.252277,1359.123237,-9169.296203
739.413393,-2316.252277,727.418070,-9762.716208
739.416672,2086.541307,689.132909,-9781.858789
739.419951,708.275490,38.285162,-9437.292334
739.423230,-1627.119368,133.998066,-9705.288466
739.426509,1914.258080,727.418070,-9705.288466
739.429788,3675.375514,421.136778,-9533.005238
739.433068,1071.984525,1359.123237,-9207.581365
739.436347,-727.418070,38.285162,-10049.854920
739.439626,918.843878,1607.976787,-9360.722011
739.442905,1129.412267,401.994197,-9801.001370
739.446184,1646.261949,1110.269686,-9131.011042
739.449463,1359.123237,57.427742,-9609.575562
739.452742,1933.400661,38.285162,-9686.145885
739.456022,2526.820666,2220.539373,-9494.720077
739.459301,-133.998066,421.136778,-9934.999435
739.462580,-535.992262,995.414202,-9131.011042
739.465859,669.990328,401.994197,-10222.138147
739.469138,-1014.556782,2029.113565,-9437.292334
739.472417,-3120.240670,-363.709035,-9379.864592
739.475696,2909.672282,708.275490,-9475.577496
739.478976,995.414202,57.427742,-10011.569758
739.482255,-976.271621,478.564520,-9360.722011
739.485534,-1186.840010,1741.974853,-9245.866526
739.488813,38.285162,459.421939,-10202.995566
739.492092,-574.277424,1761.117434,-9379.864592
739.495371,-1397.408398,-382.851616,-9858.429112
739.498650,-1071.984525,1856.830338,-9111.868461
739.501930,1339.980656,-421.136778,-9781.858789
739.505209,-153.140646,325.423874,-9552.147819
739.508488,-1607.976787,1148.554848,-9858.429112
739.511767,1512.263883,957.129040,-9609.575562
739.515046,3292.523898,1837.687757,-9245.866526
739.570842,1033.699363,-516.849682,-9724.431046
739.574124,-57.427742,957.129040,-9533.005238
739.577406,-1129.412267,899.701298,-9858.429112
739.580689,-1895.115499,842.273555,-9590.432981
739.583971,-1435.693560,1646.261949,-9360.722011
739.587253,1091.127106,57.427742,-9667.003304
739.590535,267.996131,1167.697429,-9399.007173
739.593817,-899.701298,-267.996131,-9896.714274
739.597099,1627.119368,937.986459,-9226.723946
739.600381,4192.225195,325.423874,-9552.147819
739.603663,1952.543242,1205.982590,-9456.434915
739.606946,-1454.836141,535.992262,-9781.858789
739.610228,229.710970,1167.697429,-9360.722011
739.613510,1435.693560,1378.265818,-9801.001370
739.616792,1722.832272,-38.285162,-9571.290400
739.620074,1741.974853,555.134843,-9054.440718
739.623359,2967.100024,-133.998066,-9762.716208
739.626643,3196.810994,1378.265818,-9801.001370
739.629928,-191.425808,-19.142581,-9628.718142
739.633212,248.853550,1110.269686,-9226.723946
739.636497,-842.273555,153.140646,-10356.136213
739.639781,-2507.678085,1703.689691,-9207.581365
739.643066,-2699.103893,784.845813,-9552.147819
739.646350,2852.244539,-172.283227,-9781.858789
739.649635,669.990328,1129.412267,-9399.007173
739.652919,382.851616,-19.142581,-9418.149754
739.656204,-803.988394,1550.549045,-9494.720077
739.659488,-363.709035,555.134843,-9896.714274
739.662773,0.000000,1818.545176,-9475.577496
739.666057,-861.416136,459.421939,-9686.145885
739.669342,-1129.412267,555.134843,-9456.434915
739.672627,-440.279358,918.843878,-9590.432981
739.675911,612.562586,363.709035,-9590.432981
739.679196,861.416136,842.273555,-9494.720077
739.682480,2373.680019,459.421939,-9628.718142
739.685765,3617.947771,1990.828403,-9571.290400
739.689049,-1875.972918,287.138712,-9896.714274
739.692334,-765.703232,1646.261949,-8997.012976
739.695618,1569.691626,0.000000,-10107.282662
739.698903,3483.949706,976.271621,-9341.579430
739.702187,995.414202,-306.281293,-9456.434915
739.705472,1990.828403,669.990328,-9552.147819
739.708756,2220.539373,957.129040,-9992.427178
739.712041,823.130974,172.283227,-9571.290400
739.715326,2143.969050,1875.972918,-8958.727814
739.718610,2201.396792,1033.699363,-9858.429112
739.721895,459.421939,459.421939,-9571.290400
739.725179,-3273.381317,-210.568389,-9839.286531
739.728465,-823.130974,172.283227,-9399.007173
739.731751,1205.982590,976.271621,-9571.290400
739.735038,-172.283227,440.279358,-9724.431046
739.738324,-459.421939,1320.838075,-9418.149754
739.741611,-535.992262,-38.285162,-9858.429112
739.744897,-612.562586,1971.685822,-9533.005238
739.748184,-784.845813,-229.710970,-10164.710405
739.751470,-708.275490,1244.267752,-8824.729749
739.754757,1818.545176,-19.142581,-9399.007173
739.758043,918.843878,535.992262,-9743.573627
739.761329,-861.416136,229.710970,-9801.001370
739.764616,727.418070,957.129040,-9360.722011
739.767902,4421.936165,1646.261949,-9590.432981
739.771189,2067.398726,153.140646,-9667.003304
739.774475,-440.279358,1339.980656,-9322.436850
739.777762,2201.396792,153.140646,-9934.999435
739.781048,2641.676150,1339.980656,-9322.436850
739.784335,363.709035,-516.849682,-9743.573627
739.787621,-459.421939,995.414202,-9131.011042
739.790907,1780.260014,689.132909,-9915.856854
739.794194,2201.396792,899.701298,-9667.003304
739.797480,2163.111630,1607.976787,-8997.012976
739.800767,1837.687757,823.130974,-9839.286531
739.804053,746.560651,172.283227,-9743.573627
739.807340,-3311.666478,153.140646,-9303.294269
739.810626,-2163.111630,880.558717,-9399.007173
739.813913,1244.267752,593.420005,-9590.432981
739.817199,555.134843,784.845813,-9705.288466
739.820485,-669.990328,1110.269686,-9552.147819
739.823772,-612.562586,861.416136,-9475.577496
739.827058,-689.132909,1091.127106,-9877.571693
739.830345,-267.996131,516.849682,-9705.288466
739.833608,-631.705166,1110.269686,-9073.583299
739.836871,803.988394,-689.132909,-9954.142016
739.840134,133.998066,669.990328,-9781.858789
739.843398,-1607.976787,306.281293,-9954.142016
739.846661,669.990328,1435.693560,-9131.011042
739.849924,4670.789715,976.271621,-9590.432981
739.853187,3388.236802,689.132909,-9667.003304
739.856451,1569.691626,937.986459,-9322.436850
739.859714,2584.248408,727.418070,-9418.149754
739.862977,2258.824534,957.129040,-9705.288466
739.866240,153.140646,-267.996131,-9743.573627
739.869503,-650.847747,1282.552914,-9073.583299
739.872767,1320.838075,1014.556782,-9973.284597
739.876030,2297.109696,1282.552914,-9667.003304
739.879293,2488.535504,1033.699363,-9092.725880
739.882556,1837.687757,1512.263883,-9609.575562
739.885819,631.705166,-612.562586,-9934.999435
739.889083,-3675.375514,650.847747,-9245.866526
739.892346,-2507.678085,440.279358,-9705.288466
739.895609,1282.552914,937.986459,-9494.720077
739.898872,459.421939,823.130974,-9781.858789
739.902136,-803.988394,918.843878,-9590.432981
739.905399,-38.285162,1301.695494,-9418.149754
739.908662,669.990328,363.709035,-9858.429112
739.911925,-191.425808,899.701298,-9609.575562
739.915188,-918.843878,631.705166,-9226.723946
739.918452,918.843878,-95.712904,-9571.290400
739.921715,-1971.685822,823.130974,-9667.003304
739.924978,-2794.816797,631.705166,-9705.288466
739.928241,727.418070,1282.552914,-9418.149754
739.931504,4766.502619,1014.556782,-9533.005238
739.934768,3369.094221,995.414202,-9533.005238
739.938035,1627.119368,210.568389,-9475.577496
739.941302,2450.250342,382.851616,-9207.581365
739.944570,2871.387120,401.994197,-9781.858789
739.947837,267.996131,708.275490,-9360.722011
739.951105,-708.275490,765.703232,-9533.005238
739.954372,1473.978722,1282.552914,-9628.718142
739.957639,3579.662610,1263.410333,-10030.712339
739.960907,2852.244539,727.418070,-9092.725880
739.964174,2469.392923,2048.256146,-9188.438784
739.967442,765.703232,-880.558717,-10375.278794
739.970709,-4517.649069,842.273555,-9073.583299
739.973976,-2488.535504,-459.421939,-9762.716208
739.977244,1014.556782,1627.119368,-9379.864592
739.980511,-344.566454,421.136778,-9915.856854
739.983779,-172.283227,1397.408398,-9399.007173
739.987046,306.281293,1129.412267,-9437.292334
739.990314,459.421939,287.138712,-10068.997501
739.993581,19.142581,1033.699363,-9207.581365
739.996848,-899.701298,153.140646,-9552.147819
740.000116,382.851616,880.558717,-9418.149754
740.003383,-976.271621,-325.423874,-9781.858789
740.006651,-1646.261949,1607.976787,-9667.003304
740.009918,1378.265818,669.990328,-9973.284597
740.013185,4364.508422,1378.265818,-9111.868461
740.016453,784.845813,727.418070,-9724.431046
740.019720,1416.550979,382.851616,-9571.290400
740.022988,3215.953574,784.845813,-9092.725880
740.026255,2622.533570,-191.425808,-9839.286531
740.029522,1205.982590,1052.841944,-9360.722011
740.032790,-287.138712,-191.425808,-9609.575562
740.036057,1263.410333,2277.967115,-9379.864592
740.039325,1493.121302,574.277424,-10088.140082
740.042595,1646.261949,440.279358,-9016.155557
740.045865,2852.244539,1550.549045,-9475.577496
740.049136,593.420005,114.855485,-10298.708470
740.052406,-4268.795518,401.994197,-9265.009107
740.055677,-3522.234867,-363.709035,-9781.858789
740.058947,210.568389,1473.978722,-9533.005238
740.062218,-2048.256146,-153.140646,-9896.714274
740.065488,-899.701298,1512.263883,-9360.722011
740.121086,2297.109696,2048.256146,-9379.864592
740.124357,1110.269686,650.847747,-9954.142016
740.127627,191.425808,1780.260014,-8977.870395
740.130898,650.847747,-363.709035,-9973.284597
740.134168,-1435.693560,1780.260014,-9494.720077
740.137438,-2143.969050,133.998066,-9456.434915
740.140709,3560.520029,899.701298,-9035.298138
740.143979,1205.982590,363.709035,-10145.567824
740.147252,-1914.258080,689.132909,-9686.145885
740.150525,-1205.982590,1301.695494,-9265.009107
740.153798,-995.414202,535.992262,-10336.993632
740.157071,-1225.125171,1990.828403,-9207.581365
740.160344,-918.843878,-248.853550,-9724.431046
740.163617,1818.545176,1167.697429,-9150.153622
740.166890,-248.853550,-401.994197,-10164.710405
740.170164,440.279358,957.129040,-9111.868461
740.173437,1263.410333,976.271621,-9743.573627
740.176710,4173.082614,593.420005,-9915.856854
740.179983,803.988394,1627.119368,-8939.585234
740.183256,650.847747,-306.281293,-9973.284597
740.186529,1990.828403,1741.974853,-9494.720077
740.189802,2143.969050,-172.283227,-9877.571693
740.193075,2143.969050,937.986459,-9035.298138
740.196348,918.843878,267.996131,-9724.431046
740.199621,1703.689691,918.843878,-9571.290400
740.202894,-287.138712,574.277424,-9609.575562
740.206167,459.421939,306.281293,-9781.858789
740.209440,1454.836141,1569.691626,-9533.005238
740.212713,-248.853550,440.279358,-9781.858789
740.215986,-3407.379382,1071.984525,-9571.290400
740.219259,1359.123237,-1014.556782,-9992.427178
740.222532,1665.404530,1186.840010,-8882.157491
740.251793,1837.687757,421.136778,-9150.153622
740.255044,4383.651003,669.990328,-9590.432981
740.258295,2756.531635,995.414202,-9705.288466
740.261546,-1493.121302,1052.841944,-9628.718142
740.264798,248.853550,995.414202,-9418.149754
740.268049,2354.537438,1148.554848,-9494.720077
740.271300,1359.123237,153.140646,-9513.862658
740.274551,2450.250342,401.994197,-8920.442653
740.277802,2833.101958,57.427742,-10049.854920
740.281054,1359.123237,1473.978722,-9647.860723
740.284305,1684.547110,555.134843,-9341.579430
740.287556,612.562586,2622.533570,-9169.296203
740.290807,-1722.832272,344.566454,-10413.563955
740.294059,-3771.088418,459.421939,-9437.292334
740.297310,-1454.836141,765.703232,-9284.151688
740.300561,2794.816797,555.134843,-9743.573627
740.303812,1186.840010,535.992262,-9360.722011
740.307063,823.130974,631.705166,-9667.003304
740.310315,-937.986459,937.986459,-9609.575562
740.313566,-1780.260014,1110.269686,-9896.714274
740.316817,-1741.974853,880.558717,-9533.005238
740.320068,-478.564520,1244.267752,-9360.722011
740.323320,-1091.127106,267.996131,-9743.573627
740.326571,574.277424,1110.269686,-9092.725880
740.329803,2009.970984,57.427742,-9705.288466
740.333035,3675.375514,1167.697429,-9494.720077
740.336266,3426.521963,440.279358,-9647.860723
740.339498,-2679.961312,1435.693560,-9762.716208
740.342730,-1148.554848,1225.125171,-9494.720077
740.345962,1512.263883,574.277424,-9571.290400
740.349194,3005.385186,516.849682,-9686.145885
740.352426,2373.680019,248.853550,-9341.579430
740.355658,3732.803256,287.138712,-9609.575562
740.358890,2029.113565,325.423874,-9915.856854
740.362122,1320.838075,1665.404530,-9265.009107
740.365353,229.710970,1014.556782,-9418.149754
740.368585,-306.281293,421.136778,-10011.569758
740.371817,-4728.217458,574.277424,-10049.854920
740.375049,-1531.406464,631.705166,-9111.868461
740.378281,3790.230998,1301.695494,-9188.438784
740.381513,976.271621,-421.136778,-10432.706536
740.384745,-1225.125171,1282.552914,-9131.011042
740.387977,-1110.269686,57.427742,-9705.288466
740.391209,-1512.263883,1971.685822,-9934.999435
740.394441,-2067.398726,401.994197,-9743.573627
740.397672,-1071.984525,1148.554848,-9303.294269
740.400904,-535.992262,689.132909,-9781.858789
740.404136,535.992262,287.138712,-9590.432981
740.407368,2545.963246,114.855485,-9341.579430
740.410600,4441.078746,325.423874,-9743.573627
740.413832,3522.234867,1148.554848,-9647.860723
740.417064,-2469.392923,612.562586,-9571.290400
740.420296,-114.855485,1952.543242,-9303.294269
740.423528,1129.412267,172.283227,-10088.140082
740.426759,3139.383251,1205.982590,-9073.583299
740.429991,3005.385186,-191.425808,-9513.862658
740.433230,2335.394858,574.277424,-9667.003304
740.436470,2009.970984,1225.125171,-9552.147819
740.439709,1722.832272,612.562586,-9284.151688
740.442948,363.709035,2565.105827,-9245.866526
740.446187,-1148.554848,-535.992262,-10528.419440
740.449426,-3637.090352,1837.687757,-9150.153622
740.452665,-1741.974853,19.142581,-9552.147819
740.455904,3330.809059,1952.543242,-8977.870395
740.459143,2392.822600,-784.845813,-9934.999435
740.462382,38.285162,1320.838075,-9303.294269
740.465621,-1512.263883,287.138712,-9820.143950
740.468860,-1952.543242,1167.697429,-9647.860723
740.472100,-2584.248408,1167.697429,-9724.431046
740.475339,-1263.410333,1033.699363,-9552.147819
740.478578,-1320.838075,1033.699363,-9418.149754
740.481817,440.279358,210.568389,-9609.575562
740.485056,2029.113565,1052.841944,-9188.438784
740.488295,5704.489078,-555.134843,-9743.573627
740.491534,3445.664544,1225.125171,-9303.294269
740.494773,-3120.240670,746.560651,-10088.140082
740.498012,-957.129040,1435.693560,-9150.153622
740.501251,1607.976787,899.701298,-9801.001370
740.504490,2143.969050,19.142581,-9839.286531
740.507729,3062.812928,976.271621,-8805.587168
740.510969,4019.941968,-574.277424,-9954.142016
740.514208,1454.836141,1282.552914,-9724.431046
740.517447,1837.687757,38.285162,-9628.718142
740.520686,612.562586,2431.107762,-8901.300072
740.523925,-2182.254211,-38.285162,-10509.276859
740.527164,-4900.500685,1282.552914,-9628.718142
740.530403,-1339.980656,153.140646,-9456.434915
740.533642,3388.236802,1512.263883,-9169.296203
740.536863,1435.693560,-38.285162,-10011.569758
740.540084,535.992262,95.712904,-9322.436850
740.543305,-95.712904,1129.412267,-9647.860723
740.546526,-1952.543242,459.421939,-10298.708470
740.549747,-2469.392923,1665.404530,-8901.300072
740.552968,248.853550,287.138712,-9743.573627
740.556189,-1014.556782,1033.699363,-9839.286531
740.559409,-459.421939,631.705166,-9571.290400
740.562630,2488.535504,114.855485,-9303.294269
740.565851,5053.641331,1091.127106,-9647.860723
740.569072,2392.822600,-153.140646,-9896.714274
740.572293,-1512.263883,1473.978722,-9245.866526
740.575514,-555.134843,574.277424,-10126.425243
740.578735,995.414202,1818.545176,-9245.866526
740.581956,1282.552914,287.138712,-9590.432981
740.585177,3062.812928,727.418070,-9188.438784
740.614165,-114.855485,-57.427742,-9915.856854
740.617386,746.560651,1684.547110,-8920.442653
740.620607,1205.982590,-248.853550,-9705.288466
740.623828,-516.849682,612.562586,-9571.290400
740.627049,-1588.834206,842.273555,-9762.716208
740.630270,-3062.812928,957.129040,-9571.290400
740.633490,-3139.383251,1627.119368,-9475.577496
740.636711,-325.423874,459.421939,-10030.712339
740.639917,1914.258080,1684.547110,-9226.723946
740.643122,4383.651003,-153.140646,-9724.431046
740.646327,6546.762634,1052.841944,-9303.294269
740.649533,-95.712904,95.712904,-9628.718142
740.652738,-401.994197,880.558717,-9571.290400
740.655943,248.853550,555.134843,-9724.431046
740.659149,-210.568389,957.129040,-9801.001370
740.662354,57.427742,1282.552914,-9418.149754
740.665559,2258.824534,248.853550,-9667.003304
740.668765,3828.516160,1722.832272,-9437.292334
740.671970,4345.365842,-727.418070,-9743.573627
740.675175,1512.263883,2048.256146,-8595.018779
740.678381,-1167.697429,-1225.125171,-10566.704602
740.681586,-6029.912952,1952.543242,-9399.007173
740.684791,-3866.801322,172.283227,-9762.716208
740.687996,1359.123237,1818.545176,-9226.723946
740.691202,1512.263883,899.701298,-9973.284597
740.694407,-440.279358,555.134843,-9494.720077
740.697612,1569.691626,823.130974,-9150.153622
740.700818,133.998066,-153.140646,-10241.280728
740.704023,-2009.970984,1339.980656,-9284.151688
740.707228,-957.129040,76.570323,-9571.290400
740.710434,-3139.383251,1282.552914,-9934.999435
740.713639,-2679.961312,708.275490,-9877.571693
740.716844,1512.263883,899.701298,-9418.149754
740.720050,6470.192310,1186.840010,-9456.434915
740.723255,4421.936165,-344.566454,-9667.003304
740.726460,-516.849682,1014.556782,-9188.438784
740.729666,1473.978722,-210.568389,-10145.567824
740.732871,-325.423874,2124.826469,-9437.292334
740.736076,-287.138712,-248.853550,-9820.143950
740.739282,1473.978722,2029.113565,-8939.585234
740.742504,4077.369710,287.138712,-10260.423309
740.745696,2526.820666,1761.117434,-9111.868461
740.748888,1799.402595,-19.142581,-9379.864592
740.752080,631.705166,-172.283227,-9915.856854
740.755272,-2986.242605,1799.402595,-9341.579430
740.758464,-5493.920690,-76.570323,-9973.284597
740.761656,918.843878,1895.115499,-9647.860723
740.764848,-248.853550,-57.427742,-10068.997501
740.768040,-344.566454,1627.119368,-9054.440718
740.771232,1473.978722,535.992262,-9552.147819
740.774424,899.701298,267.996131,-9801.001370
740.777616,114.855485,172.283227,-9322.436850
740.780808,-1588.834206,210.568389,-9743.573627
740.784000,-3560.520029,1665.404530,-9743.573627
740.787192,-1761.117434,497.707101,-9743.573627
740.790384,1244.267752,1895.115499,-9111.868461
740.793576,5168.496816,-267.996131,-9992.427178
740.796768,5206.781978,1531.406464,-9207.581365
740.799960,535.992262,19.142581,-9667.003304
740.803152,842.273555,995.414202,-9322.436850
740.806344,1110.269686,631.705166,-9820.143950
740.809536,-382.851616,344.566454,-9762.716208
740.812728,746.560651,1703.689691,-9379.864592
740.815920,2029.113565,-114.855485,-10030.712339
740.819112,861.416136,2067.398726,-9188.438784
740.822304,3656.232933,-1052.841944,-10049.854920
740.825496,3158.525832,1837.687757,-8652.446522
740.828688,-76.570323,-516.849682,-9954.142016
740.831880,-4613.361973,995.414202,-9724.431046
740.835072,-1397.408398,401.994197,-9533.005238
740.838264,363.709035,1033.699363,-9705.288466
740.841456,-593.420005,1493.121302,-9533.005238
740.844660,-708.275490,344.566454,-9839.286531
740.847865,555.134843,1435.693560,-9379.864592
740.851069,555.134843,-401.994197,-9973.284597
740.854273,-1493.121302,976.271621,-9245.866526
740.857478,-1569.691626,555.134843,-9590.432981
740.860682,-1129.412267,1895.115499,-9456.434915
740.863886,191.425808,650.847747,-9781.858789
740.867090,2469.392923,803.988394,-9379.864592
740.870295,5723.631659,1722.832272,-9418.149754
740.873499,1339.980656,-669.990328,-9954.142016
740.876703,899.701298,1550.549045,-8958.727814
740.879908,2545.963246,-1014.556782,-10145.567824
740.883112,765.703232,1646.261949,-9418.149754
740.886316,421.136778,306.281293,-9552.147819
740.889521,1244.267752,1091.127106,-9475.577496
740.892725,1895.115499,1378.265818,-9839.286531
740.895929,2182.254211,-172.283227,-9647.860723
740.899133,3292.523898,2354.537438,-8652.446522
740.902338,287.138712,-689.132909,-10336.993632
740.905542,-4709.074877,1205.982590,-9265.009107
740.908746,-3388.236802,-210.568389,-9858.429112
740.911951,459.421939,2105.683888,-9418.149754
740.915155,-1646.261949,19.142581,-10222.138147
740.918359,-516.849682,1339.980656,-9265.009107
740.921564,191.425808,555.134843,-9686.145885
740.924768,650.847747,344.566454,-10068.997501
740.927972,-382.851616,574.277424,-9131.011042
740.931176,-306.281293,38.285162,-9437.292334
740.934381,-114.855485,1397.408398,-9839.286531
740.937585,-937.986459,0.000000,-9992.427178
740.940789,1646.261949,1971.685822,-8882.157491
740.943994,4900.500685,382.851616,-10279.565890
740.947209,-459.421939,1052.841944,-9245.866526
740.950424,267.996131,669.990328,-9437.292334
740.953639,2660.818731,-19.142581,-9934.999435
740.956855,976.271621,1339.980656,-9399.007173
740.960070,1627.119368,-516.849682,-9552.147819
740.963285,1741.974853,1799.402595,-9456.434915
740.966500,382.851616,95.712904,-10375.278794
740.969716,2545.963246,1263.410333,-8920.442653
740.972931,2871.387120,1071.984525,-9284.151688
740.976146,-574.277424,1186.840010,-10030.712339
740.979361,-3388.236802,-191.425808,-9628.718142
740.982577,-1225.125171,-153.140646,-9513.862658
740.985792,478.564520,1646.261949,-9609.575562
740.989007,-1607.976787,-57.427742,-9992.427178
740.992222,-133.998066,2067.398726,-9284.151688
740.995438,-1263.410333,-95.712904,-10183.852986
740.998653,-765.703232,1971.685822,-9533.005238
741.001868,-440.279358,-669.990328,-9724.431046
741.005083,306.281293,1569.691626,-8958.727814
741.008299,803.988394,-746.560651,-9992.427178
741.011514,803.988394,1052.841944,-9111.868461
741.014729,1990.828403,1167.697429,-9628.718142
741.017944,4153.940034,535.992262,-10030.712339
741.021160,-267.996131,1416.550979,-8901.300072
741.024375,76.570323,133.998066,-9896.714274
741.027590,2986.242605,1550.549045,-9360.722011
741.030805,2603.390989,-574.277424,-9628.718142
741.034021,2048.256146,995.414202,-9322.436850
741.037236,1627.119368,440.279358,-9915.856854
741.040451,-38.285162,765.703232,-9743.573627
741.043666,421.136778,191.425808,-9743.573627
741.046882,1110.269686,1263.410333,-9437.292334
741.101293,-918.843878,1244.267752,-9781.858789
741.104493,1225.125171,631.705166,-9590.432981
741.107694,2507.678085,-114.855485,-9743.573627
741.110895,3483.949706,1167.697429,-8920.442653
741.114095,3464.807125,-708.275490,-9934.999435
741.117296,401.994197,2124.826469,-9571.290400
741.120497,-57.427742,-708.275490,-9954.142016
741.123697,708.275490,1799.402595,-8997.012976
741.126898,-631.705166,535.992262,-10107.282662
741.130099,-3177.668413,1895.115499,-9513.862658
741.133299,3043.670347,-153.140646,-9609.575562
741.136500,2277.967115,-248.853550,-9552.147819
741.139701,-1071.984525,1703.689691,-9513.862658
741.142901,-2373.680019,-19.142581,-9934.999435
741.146102,-1607.976787,2220.539373,-9245.866526
741.149303,-1703.689691,-210.568389,-10260.423309
741.152491,210.568389,1607.976787,-9035.298138
