#time,accel_x,accel_y,accel_z
299.865462,478.564520,631.705166,-9781.858789
299.867945,459.421939,823.130974,-9628.718142
299.870429,516.849682,784.845813,-9762.716208
299.872912,-555.134843,535.992262,-9839.286531
299.875395,976.271621,574.277424,-9762.716208
299.877879,803.988394,899.701298,-9647.860723
299.880362,937.986459,0.000000,-9858.429112
299.882846,937.986459,1167.697429,-9609.575562
299.885329,2660.818731,114.855485,-9954.142016
299.887812,1818.545176,650.847747,-9705.288466
299.890296,2431.107762,574.277424,-9647.860723
299.892779,2124.826469,555.134843,-9839.286531
299.895262,-1684.547110,1014.556782,-9896.714274
299.897658,153.140646,1263.410333,-9590.432981
299.900054,1799.402595,363.709035,-9743.573627
299.902450,-133.998066,1014.556782,-9839.286531
299.904846,-363.709035,401.994197,-9686.145885
299.907242,-2048.256146,612.562586,-9705.288466
299.909638,-727.418070,995.414202,-9858.429112
299.912034,1033.699363,306.281293,-9781.858789
299.914430,631.705166,899.701298,-9915.856854
299.916826,1301.695494,708.275490,-9494.720077
299.919222,-440.279358,746.560651,-9609.575562
299.921618,-1110.269686,784.845813,-9954.142016
299.924014,-440.279358,708.275490,-9724.431046
299.926410,-133.998066,1014.556782,-9877.571693
299.928806,114.855485,516.849682,-9590.432981
299.931202,899.701298,976.271621,-9533.005238
299.933598,421.136778,708.275490,-9934.999435
299.935994,-76.570323,803.988394,-9820.143950
299.938390,-248.853550,899.701298,-9762.716208
299.940786,918.843878,880.558717,-9705.288466
299.943182,574.277424,689.132909,-9647.860723
299.945578,-133.998066,784.845813,-9877.571693
299.947974,210.568389,727.418070,-9781.858789
299.950370,-459.421939,382.851616,-9839.286531
299.952766,-669.990328,650.847747,-9686.145885
299.955162,899.701298,784.845813,-9686.145885
299.957558,-1244.267752,861.416136,-9762.716208
299.959954,-1952.543242,325.423874,-9896.714274
299.962350,-1875.972918,1129.412267,-9762.716208
299.964746,-880.558717,440.279358,-9954.142016
299.967142,1780.260014,153.140646,-9686.145885
299.969538,1837.687757,2201.396792,-9207.581365
299.971934,-784.845813,-478.564520,-10183.852986
299.974330,344.566454,1933.400661,-9131.011042
299.976726,-1148.554848,421.136778,-9954.142016
299.979122,-210.568389,612.562586,-10088.140082
299.981518,344.566454,1378.265818,-9284.151688
299.983914,2737.389054,-382.851616,-9705.288466
299.986310,2182.254211,1875.972918,-9360.722011
299.988706,612.562586,612.562586,-9820.143950
299.991102,95.712904,784.845813,-9724.431046
299.993562,1665.404530,727.418070,-9724.431046
299.996022,229.710970,1052.841944,-9820.143950
299.998482,-746.560651,746.560651,-9590.432981
300.000942,1493.121302,842.273555,-9667.003304
300.003401,1320.838075,957.129040,-9667.003304
300.005861,1895.115499,631.705166,-9820.143950
300.008321,3675.375514,1167.697429,-9590.432981
300.010781,1263.410333,382.851616,-9513.862658
300.013240,-669.990328,478.564520,-9915.856854
300.015700,-344.566454,1129.412267,-9686.145885
300.018160,669.990328,555.134843,-9954.142016
300.020620,57.427742,669.990328,-9896.714274
300.023079,1684.547110,1052.841944,-9475.577496
300.025539,1512.263883,229.710970,-9801.001370
300.027999,248.853550,727.418070,-9801.001370
300.030459,574.277424,937.986459,-9820.143950
300.032919,976.271621,535.992262,-9820.143950
300.035378,612.562586,784.845813,-9533.005238
300.037838,440.279358,899.701298,-9724.431046
300.040298,153.140646,842.273555,-9896.714274
300.042758,1378.265818,574.277424,-9724.431046
300.045217,727.418070,1205.982590,-9743.573627
300.047677,1895.115499,535.992262,-9705.288466
300.050137,2450.250342,880.558717,-9533.005238
300.052597,3024.527766,669.990328,-9609.575562
300.055056,1761.117434,650.847747,-9705.288466
300.057516,153.140646,287.138712,-9896.714274
300.059976,210.568389,1186.840010,-9552.147819
300.062436,2431.107762,497.707101,-9705.288466
300.064895,784.845813,937.986459,-9820.143950
300.067355,765.703232,459.421939,-9647.860723
300.069815,325.423874,1282.552914,-9475.577496
300.072275,2258.824534,421.136778,-9896.714274
300.074735,-1244.267752,995.414202,-9590.432981
300.077194,-57.427742,1263.410333,-9513.862658
300.079654,1301.695494,325.423874,-9590.432981
300.082114,-1990.828403,1301.695494,-9877.571693
300.084574,-937.986459,382.851616,-9781.858789
300.087033,172.283227,1263.410333,-9379.864592
300.089493,1761.117434,133.998066,-10183.852986
300.091903,650.847747,1129.412267,-9379.864592
300.094314,-363.709035,918.843878,-9934.999435
300.096724,-1359.123237,57.427742,-9686.145885
300.099134,-1071.984525,1703.689691,-9686.145885
300.101545,842.273555,76.570323,-10011.569758
300.103955,669.990328,1110.269686,-9590.432981
300.106365,248.853550,708.275490,-9801.001370
300.108775,-76.570323,765.703232,-9705.288466
300.111186,-1110.269686,880.558717,-9877.571693
300.113596,-38.285162,478.564520,-9820.143950
300.116006,-133.998066,1263.410333,-9667.003304
300.118417,287.138712,363.709035,-10030.712339
300.120827,1186.840010,1014.556782,-9379.864592
300.123237,210.568389,669.990328,-9934.999435
300.125647,-631.705166,727.418070,-9781.858789
300.128058,1186.840010,918.843878,-9571.290400
300.130468,976.271621,535.992262,-9839.286531
300.132878,-153.140646,631.705166,-9724.431046
300.135289,-153.140646,746.560651,-9781.858789
300.137699,-95.712904,459.421939,-9820.143950
300.140109,-19.142581,421.136778,-9801.001370
300.142519,-1263.410333,1244.267752,-9762.716208
300.144930,-2277.967115,-95.712904,-10068.997501
300.147340,-2239.681954,1397.408398,-9513.862658
300.149750,-861.416136,363.709035,-9992.427178
300.152161,2067.398726,153.140646,-9934.999435
300.154571,1627.119368,2105.683888,-9284.151688
300.156981,-516.849682,-306.281293,-10068.997501
300.159391,19.142581,1818.545176,-9188.438784
300.161802,-1014.556782,459.421939,-10011.569758
300.164212,57.427742,1033.699363,-10298.708470
300.166622,-516.849682,1033.699363,-9341.579430
300.169033,2794.816797,-153.140646,-9667.003304
300.171443,2258.824534,1933.400661,-9284.151688
300.173853,612.562586,229.710970,-9954.142016
300.176263,-287.138712,1148.554848,-9762.716208
300.178674,2258.824534,784.845813,-9628.718142
300.181084,-76.570323,727.418070,-10030.712339
300.183494,-229.710970,957.129040,-9552.147819
300.185905,1301.695494,593.420005,-9647.860723
300.188371,995.414202,937.986459,-9667.003304
300.190837,1588.834206,650.847747,-9934.999435
300.193304,3101.098090,1244.267752,-9609.575562
300.195770,1780.260014,76.570323,-9475.577496
300.198237,-287.138712,1148.554848,-9743.573627
300.200703,612.562586,555.134843,-9915.856854
300.203170,-344.566454,593.420005,-9915.856854
300.205636,765.703232,784.845813,-9839.286531
300.208103,1416.550979,516.849682,-9533.005238
300.210569,459.421939,612.562586,-9705.288466
300.213036,325.423874,593.420005,-9839.286531
300.215502,1282.552914,1014.556782,-9781.858789
300.217969,-803.988394,689.132909,-9954.142016
300.220435,1110.269686,535.992262,-9686.145885
300.222902,1378.265818,880.558717,-9475.577496
300.225368,325.423874,727.418070,-9992.427178
300.227834,593.420005,401.994197,-9877.571693
300.230301,2067.398726,1110.269686,-9513.862658
300.232767,2699.103893,363.709035,-9934.999435
300.235234,2526.820666,612.562586,-9686.145885
300.237700,-535.992262,957.129040,-9781.858789
300.240167,2009.970984,861.416136,-9839.286531
300.242633,1627.119368,765.703232,-10011.569758
300.245100,1435.693560,880.558717,-9839.286531
300.247566,-1033.699363,708.275490,-9494.720077
300.250033,1684.547110,593.420005,-9781.858789
300.252499,1397.408398,727.418070,-9858.429112
300.254966,-1359.123237,574.277424,-10145.567824
300.257432,1531.406464,306.281293,-9609.575562
300.259899,-1550.549045,1110.269686,-9590.432981
300.262365,363.709035,267.996131,-9877.571693
300.264831,-1933.400661,1550.549045,-9686.145885
300.267298,172.283227,497.707101,-10107.282662
300.269764,440.279358,842.273555,-9418.149754
300.272231,1339.980656,803.988394,-9934.999435
300.274697,1071.984525,516.849682,-9801.001370
300.277164,-1301.695494,1052.841944,-9456.434915
300.279630,-1148.554848,382.851616,-9992.427178
300.282097,-823.130974,1416.550979,-9724.431046
300.284563,708.275490,153.140646,-9992.427178
300.286996,803.988394,1129.412267,-9341.579430
300.289428,555.134843,689.132909,-9896.714274
300.291861,-650.847747,516.849682,-9820.143950
300.294293,-593.420005,861.416136,-9724.431046
300.296726,-153.140646,516.849682,-9934.999435
300.299159,267.996131,727.418070,-9628.718142
300.301591,535.992262,689.132909,-9743.573627
300.304024,842.273555,612.562586,-9801.001370
300.306456,-823.130974,459.421939,-9915.856854
300.308889,478.564520,1052.841944,-9667.003304
300.311321,229.710970,574.277424,-9781.858789
300.313754,459.421939,650.847747,-9801.001370
300.316187,248.853550,995.414202,-9475.577496
300.318619,325.423874,325.423874,-9973.284597
300.321052,-1684.547110,1244.267752,-9705.288466
300.323484,-2469.392923,267.996131,-9743.573627
300.325917,-2124.826469,918.843878,-9743.573627
300.328349,-1646.261949,535.992262,-9801.001370
300.330782,2909.672282,727.418070,-9896.714274
300.333214,1684.547110,1263.410333,-9552.147819
300.335647,363.709035,-382.851616,-10202.995566
300.338080,-612.562586,1722.832272,-9188.438784
300.340512,229.710970,248.853550,-9781.858789
300.342945,-803.988394,1148.554848,-10030.712339
300.345377,-803.988394,1148.554848,-9609.575562
300.347810,3771.088418,574.277424,-9609.575562
300.350242,1320.838075,1359.123237,-9418.149754
300.352675,612.562586,-267.996131,-10202.995566
300.355108,650.847747,1875.972918,-9284.151688
300.357540,2316.252277,-57.427742,-10279.565890
300.359973,-133.998066,363.709035,-9858.429112
300.362405,363.709035,1148.554848,-9552.147819
300.364838,1052.841944,-95.712904,-10011.569758
300.367270,459.421939,1110.269686,-9475.577496
300.369703,1665.404530,459.421939,-10088.140082
300.372135,2603.390989,784.845813,-9839.286531
300.374568,1780.260014,803.988394,-9494.720077
300.377001,823.130974,191.425808,-9743.573627
300.379433,287.138712,1531.406464,-9762.716208
300.381866,899.701298,363.709035,-10011.569758
300.384347,344.566454,1205.982590,-9628.718142
300.386827,-153.140646,421.136778,-9762.716208
300.389307,1091.127106,689.132909,-9686.145885
300.391787,957.129040,727.418070,-9762.716208
300.394268,133.998066,593.420005,-9858.429112
300.396748,133.998066,1014.556782,-9839.286531
300.399228,1435.693560,325.423874,-9705.288466
300.401708,516.849682,1014.556782,-9609.575562
300.404189,593.420005,823.130974,-9801.001370
300.406669,1263.410333,440.279358,-9801.001370
300.409149,2392.822600,1052.841944,-9647.860723
300.411629,2469.392923,478.564520,-9858.429112
300.414110,-267.996131,861.416136,-9781.858789
300.416590,2545.963246,823.130974,-9628.718142
300.419070,2526.820666,937.986459,-9801.001370
300.421551,2048.256146,535.992262,-10164.710405
300.424031,-593.420005,784.845813,-9552.147819
300.426511,1339.980656,708.275490,-9647.860723
300.428991,248.853550,784.845813,-9858.429112
300.431472,-2354.537438,803.988394,-9954.142016
300.433952,1416.550979,382.851616,-9743.573627
300.436432,-1550.549045,823.130974,-9858.429112
300.438912,19.142581,229.710970,-9934.999435
300.441393,-1627.119368,1263.410333,-9686.145885
300.443873,-210.568389,421.136778,-9915.856854
300.446353,306.281293,1225.125171,-9284.151688
300.448833,1435.693560,631.705166,-10049.854920
300.451314,727.418070,803.988394,-9513.862658
300.453794,-325.423874,918.843878,-9590.432981
300.456274,-2029.113565,421.136778,-9858.429112
300.458754,-535.992262,1569.691626,-9590.432981
300.461235,803.988394,38.285162,-10088.140082
300.463715,784.845813,1071.984525,-9456.434915
300.466195,823.130974,746.560651,-9686.145885
300.468676,-516.849682,287.138712,-9992.427178
300.471156,133.998066,1033.699363,-9609.575562
300.473636,-401.994197,555.134843,-9954.142016
300.476116,-95.712904,765.703232,-9915.856854
300.478597,803.988394,459.421939,-9533.005238
300.481077,344.566454,612.562586,-9743.573627
300.483593,229.710970,612.562586,-9954.142016
300.486110,842.273555,612.562586,-9762.716208
300.488626,95.712904,574.277424,-9724.431046
300.491142,746.560651,880.558717,-9647.860723
300.493659,-57.427742,-19.142581,-9915.856854
300.496175,-1512.263883,1397.408398,-9647.860723
300.498692,-2335.394858,133.998066,-9839.286531
300.501208,-2316.252277,1033.699363,-9705.288466
300.503724,-1091.127106,957.129040,-9628.718142
300.506241,2143.969050,382.851616,-9801.001370
300.508757,1665.404530,1512.263883,-9609.575562
300.511274,-746.560651,-57.427742,-9858.429112
300.513790,-153.140646,1550.549045,-9418.149754
300.516306,382.851616,306.281293,-9934.999435
300.518823,-153.140646,1244.267752,-9934.999435
300.521339,-880.558717,1091.127106,-9513.862658
300.523855,3426.521963,497.707101,-9667.003304
300.526372,2067.398726,1435.693560,-9418.149754
300.528888,57.427742,19.142581,-9820.143950
300.531405,57.427742,1435.693560,-9667.003304
300.533921,3369.094221,823.130974,-9686.145885
300.536437,-287.138712,459.421939,-9934.999435
300.538954,363.709035,1225.125171,-9590.432981
300.541470,1244.267752,-172.283227,-9954.142016
300.543987,478.564520,1359.123237,-9494.720077
300.546503,1550.549045,478.564520,-10088.140082
300.549019,2354.537438,421.136778,-9896.714274
300.551536,2086.541307,727.418070,-9456.434915
300.554052,937.986459,612.562586,-9839.286531
300.556569,440.279358,784.845813,-9762.716208
300.559085,669.990328,669.990328,-9743.573627
300.561601,478.564520,784.845813,-9839.286531
300.564118,440.279358,440.279358,-9667.003304
300.566634,631.705166,669.990328,-9590.432981
300.569151,727.418070,784.845813,-9762.716208
300.571667,631.705166,440.279358,-9954.142016
300.574183,19.142581,995.414202,-9839.286531
300.576700,689.132909,727.418070,-9533.005238
300.579216,1091.127106,976.271621,-9647.860723
300.581732,1225.125171,708.275490,-9781.858789
300.584274,2086.541307,995.414202,-9724.431046
300.586816,2105.683888,803.988394,-9781.858789
300.589358,842.273555,210.568389,-9667.003304
300.591900,1684.547110,1435.693560,-9437.292334
300.594442,3675.375514,229.710970,-9781.858789
300.596984,2354.537438,1110.269686,-9839.286531
300.599526,-784.845813,478.564520,-9801.001370
300.602068,114.855485,1148.554848,-9418.149754
300.604610,2220.539373,382.851616,-9820.143950
300.607152,-3311.666478,612.562586,-9915.856854
300.609694,1225.125171,1359.123237,-9609.575562
300.612236,153.140646,306.281293,-10030.712339
300.614778,-937.986459,325.423874,-10068.997501
300.617320,-1665.404530,1148.554848,-9494.720077
300.619862,459.421939,401.994197,-10068.997501
300.622404,459.421939,689.132909,-9571.290400
300.624946,861.416136,1071.984525,-9743.573627
300.627487,1186.840010,382.851616,-10030.712339
300.630029,-1244.267752,555.134843,-9609.575562
300.632571,-2411.965181,516.849682,-10030.712339
300.635113,-421.136778,1301.695494,-9705.288466
300.637655,976.271621,95.712904,-10030.712339
300.640197,612.562586,995.414202,-9667.003304
300.642739,918.843878,861.416136,-9609.575562
300.645281,-612.562586,153.140646,-9934.999435
300.647823,-727.418070,880.558717,-9667.003304
300.650365,880.558717,899.701298,-9724.431046
300.652907,669.990328,574.277424,-10049.854920
300.655449,0.000000,727.418070,-9552.147819
300.657991,1091.127106,650.847747,-9628.718142
300.660533,-497.707101,440.279358,-10126.425243
300.663075,861.416136,650.847747,-9705.288466
300.665617,1014.556782,823.130974,-9743.573627
300.668159,-880.558717,612.562586,-9705.288466
300.670701,-1397.408398,0.000000,-9667.003304
300.673243,-1914.258080,1359.123237,-9667.003304
300.675784,-2143.969050,497.707101,-10088.140082
300.678326,803.988394,765.703232,-9724.431046
300.680868,459.421939,612.562586,-9571.290400
300.683410,1320.838075,689.132909,-9839.286531
300.685972,-976.271621,555.134843,-9667.003304
300.688534,1837.687757,1052.841944,-9571.290400
300.691096,-842.273555,555.134843,-10049.854920
300.693657,325.423874,325.423874,-10049.854920
300.696219,2718.246474,1359.123237,-9399.007173
300.698781,880.558717,-38.285162,-9973.284597
300.701342,1531.406464,708.275490,-9934.999435
300.703904,669.990328,1052.841944,-9686.145885
300.706466,191.425808,574.277424,-9801.001370
300.709028,2182.254211,803.988394,-9533.005238
300.711589,669.990328,1033.699363,-9896.714274
300.714151,-267.996131,344.566454,-9705.288466
300.716713,1205.982590,1110.269686,-9533.005238
300.719275,1339.980656,535.992262,-10030.712339
300.721836,1952.543242,727.418070,-9628.718142
300.724398,1875.972918,1320.838075,-9571.290400
300.726960,1263.410333,-133.998066,-9781.858789
300.729522,459.421939,1339.980656,-9552.147819
300.732083,325.423874,708.275490,-10011.569758
300.734645,631.705166,440.279358,-9820.143950
300.737207,363.709035,918.843878,-9609.575562
300.739769,1052.841944,631.705166,-9590.432981
300.742330,440.279358,823.130974,-9667.003304
300.744892,248.853550,631.705166,-9667.003304
300.747454,803.988394,1225.125171,-9801.001370
300.750016,842.273555,535.992262,-9686.145885
300.752577,842.273555,593.420005,-9628.718142
300.755139,2029.113565,1186.840010,-9724.431046
300.757701,2220.539373,306.281293,-9820.143950
300.760263,-114.855485,937.986459,-9724.431046
300.762824,2622.533570,440.279358,-9590.432981
300.765386,1952.543242,689.132909,-9781.858789
300.767962,3349.951640,421.136778,-9896.714274
300.770538,153.140646,669.990328,-9705.288466
300.773114,1052.841944,459.421939,-9820.143950
300.775690,-669.990328,918.843878,-9858.429112
300.778266,899.701298,574.277424,-9705.288466
300.780842,-669.990328,823.130974,-9609.575562
300.783418,-1416.550979,1263.410333,-9590.432981
300.785994,1320.838075,440.279358,-9552.147819
300.788570,-1129.412267,1110.269686,-10030.712339
300.791146,-1301.695494,344.566454,-9743.573627
300.793722,172.283227,1320.838075,-9188.438784
300.796298,1856.830338,497.707101,-10049.854920
300.798874,593.420005,976.271621,-9667.003304
300.801450,191.425808,765.703232,-9743.573627
300.804026,-1205.982590,516.849682,-9801.001370
300.806602,-2392.822600,689.132909,-9686.145885
300.809178,-1129.412267,1033.699363,-9839.286531
300.811754,1339.980656,497.707101,-9590.432981
300.814330,382.851616,1110.269686,-9839.286531
300.816906,1359.123237,535.992262,-9609.575562
300.819482,172.283227,957.129040,-9494.720077
300.822058,-612.562586,593.420005,-9973.284597
300.824634,-57.427742,650.847747,-9801.001370
300.827210,1129.412267,823.130974,-9667.003304
300.829786,784.845813,803.988394,-9590.432981
300.832362,-535.992262,708.275490,-9743.573627
300.834938,57.427742,861.416136,-9781.858789
300.837514,210.568389,995.414202,-9724.431046
300.840090,-421.136778,574.277424,-9992.427178
300.842666,-1761.117434,842.273555,-9686.145885
300.845242,-1665.404530,746.560651,-9552.147819
300.847818,-2105.683888,727.418070,-9915.856854
300.850394,1569.691626,842.273555,-9781.858789
300.852970,114.855485,976.271621,-9667.003304
300.855546,-918.843878,76.570323,-9896.714274
300.858122,210.568389,1320.838075,-9360.722011
300.860698,650.847747,401.994197,-9954.142016
300.863274,401.994197,1703.689691,-9877.571693
300.865850,-191.425808,669.990328,-9781.858789
300.868426,3579.662610,803.988394,-9188.438784
300.871012,1244.267752,1454.836141,-9437.292334
300.873599,287.138712,-306.281293,-10241.280728
300.876185,267.996131,1971.685822,-9226.723946
300.878772,1837.687757,-19.142581,-10107.282662
300.881358,363.709035,172.283227,-10011.569758
300.883945,516.849682,1205.982590,-9475.577496
300.886531,727.418070,38.285162,-9973.284597
300.889118,880.558717,1186.840010,-9456.434915
300.891704,1741.974853,440.279358,-10011.569758
300.894291,2794.816797,631.705166,-9743.573627
300.896877,1493.121302,765.703232,-9399.007173
300.899464,689.132909,210.568389,-9667.003304
300.902050,95.712904,1167.697429,-9667.003304
300.904637,669.990328,497.707101,-10011.569758
300.907223,1339.980656,1052.841944,-9820.143950
300.909810,401.994197,459.421939,-9686.145885
300.912396,248.853550,727.418070,-9628.718142
300.914983,823.130974,803.988394,-9820.143950
300.917569,784.845813,727.418070,-9915.856854
300.920156,574.277424,1091.127106,-9762.716208
300.922742,1607.976787,344.566454,-9590.432981
300.925329,1780.260014,880.558717,-9475.577496
300.927915,1914.258080,631.705166,-9743.573627
300.930502,708.275490,363.709035,-9992.427178
300.933088,1722.832272,1435.693560,-9475.577496
300.935675,3790.230998,172.283227,-9743.573627
300.938261,2660.818731,1148.554848,-9552.147819
300.940848,-1397.408398,631.705166,-9801.001370
300.943434,899.701298,1110.269686,-9628.718142
300.946021,1397.408398,535.992262,-10202.995566
300.948607,-3139.383251,478.564520,-9934.999435
300.951194,1301.695494,574.277424,-9360.722011
300.953780,-1091.127106,516.849682,-10049.854920
300.956367,-1033.699363,459.421939,-10336.993632
300.958953,-2067.398726,976.271621,-9743.573627
300.961540,574.277424,535.992262,-9954.142016
300.964126,229.710970,401.994197,-9686.145885
300.966713,1129.412267,823.130974,-9954.142016
300.969300,1856.830338,823.130974,-9801.001370
300.971886,-306.281293,784.845813,-9667.003304
300.974434,-2086.541307,784.845813,-9954.142016
300.976982,-1914.258080,650.847747,-9552.147819
300.979530,-1052.841944,823.130974,-9915.856854
300.982077,440.279358,535.992262,-9934.999435
300.984625,1741.974853,1052.841944,-9686.145885
300.987173,133.998066,382.851616,-9934.999435
300.989721,-497.707101,612.562586,-9609.575562
300.992269,306.281293,899.701298,-9839.286531
300.994817,267.996131,306.281293,-10049.854920
300.997364,421.136778,995.414202,-9609.575562
300.999912,823.130974,631.705166,-9590.432981
301.002460,-555.134843,535.992262,-9820.143950
301.005008,-191.425808,995.414202,-9686.145885
301.007556,-363.709035,421.136778,-9839.286531
301.010104,-1703.689691,1091.127106,-9762.716208
301.012651,-2469.392923,363.709035,-9858.429112
301.015199,-574.277424,823.130974,-9686.145885
301.017747,-114.855485,516.849682,-9858.429112
301.020295,478.564520,1071.984525,-9915.856854
301.022843,-1397.408398,631.705166,-9609.575562
301.025390,631.705166,1129.412267,-9399.007173
301.027938,689.132909,344.566454,-10068.997501
301.030486,880.558717,440.279358,-10030.712339
301.033034,1091.127106,1091.127106,-9494.720077
301.035582,2048.256146,-459.421939,-9915.856854
301.038130,1646.261949,1359.123237,-9494.720077
301.040677,191.425808,344.566454,-9992.427178
301.043225,76.570323,1320.838075,-9647.860723
301.045773,2871.387120,1014.556782,-9781.858789
301.048321,-76.570323,382.851616,-9915.856854
301.050869,344.566454,1129.412267,-9513.862658
301.053417,995.414202,-57.427742,-9858.429112
301.055964,1225.125171,765.703232,-9896.714274
301.058512,1607.976787,803.988394,-9858.429112
301.061060,2507.678085,861.416136,-9705.288466
301.063608,880.558717,535.992262,-9552.147819
301.066156,689.132909,899.701298,-9724.431046
301.068704,861.416136,689.132909,-9915.856854
301.071251,76.570323,689.132909,-9801.001370
301.073799,708.275490,1148.554848,-9801.001370
301.076362,937.986459,401.994197,-9724.431046
301.078925,19.142581,803.988394,-9609.575562
301.081487,1186.840010,803.988394,-9896.714274
301.084050,957.129040,823.130974,-9915.856854
301.086613,995.414202,803.988394,-9743.573627
301.089175,1684.547110,497.707101,-9475.577496
301.091738,1205.982590,784.845813,-9801.001370
301.094300,2086.541307,306.281293,-9762.716208
301.096863,1895.115499,1225.125171,-9762.716208
301.099426,4173.082614,382.851616,-9724.431046
301.101988,2890.529701,861.416136,-9475.577496
301.104551,-516.849682,363.709035,-9743.573627
301.107114,-689.132909,1186.840010,-9609.575562
301.109676,1856.830338,631.705166,-9877.571693
301.112239,-3675.375514,784.845813,-9973.284597
301.114802,708.275490,1205.982590,-9341.579430
301.117364,727.418070,325.423874,-9915.856854
301.119927,-650.847747,497.707101,-10030.712339
301.122490,-1837.687757,1110.269686,-9762.716208
301.125052,669.990328,267.996131,-10049.854920
301.127615,1282.552914,287.138712,-9743.573627
301.130178,842.273555,823.130974,-9762.716208
301.132740,1550.549045,574.277424,-9896.714274
301.135303,-363.709035,631.705166,-9762.716208
301.137866,-2469.392923,937.986459,-9781.858789
301.140428,-1837.687757,421.136778,-9801.001370
301.142991,593.420005,823.130974,-9877.571693
301.145553,708.275490,363.709035,-9781.858789
301.148116,918.843878,861.416136,-9801.001370
301.150679,593.420005,382.851616,-9724.431046
301.153241,133.998066,689.132909,-9667.003304
301.155804,-153.140646,1033.699363,-9839.286531
301.158367,1933.400661,497.707101,-9781.858789
301.160929,38.285162,937.986459,-9533.005238
301.163492,-689.132909,440.279358,-9667.003304
301.166055,669.990328,880.558717,-9781.858789
301.168617,-459.421939,593.420005,-9801.001370
301.171180,-1473.978722,842.273555,-9781.858789
301.173743,-1550.549045,497.707101,-9896.714274
301.176305,-229.710970,803.988394,-9686.145885
301.178880,-957.129040,401.994197,-9801.001370
301.181454,-38.285162,1320.838075,-9954.142016
301.184028,-1435.693560,363.709035,-9628.718142
301.186602,1205.982590,1148.554848,-9475.577496
301.189177,746.560651,401.994197,-9858.429112
301.191751,1225.125171,918.843878,-9839.286531
301.194325,172.283227,842.273555,-9437.292334
301.196900,3120.240670,401.994197,-9667.003304
301.199474,1665.404530,995.414202,-9743.573627
301.202048,191.425808,593.420005,-9743.573627
301.204622,-401.994197,1225.125171,-9686.145885
301.207197,2756.531635,995.414202,-9667.003304
301.209771,-114.855485,478.564520,-9877.571693
301.212345,229.710970,1167.697429,-9609.575562
301.214919,1225.125171,114.855485,-9801.001370
301.217494,1071.984525,1052.841944,-9360.722011
301.220068,1799.402595,708.275490,-9915.856854
301.222642,2909.672282,497.707101,-9973.284597
301.225217,689.132909,440.279358,-9513.862658
301.227791,-344.566454,803.988394,-9686.145885
301.230365,1205.982590,669.990328,-9877.571693
301.232939,574.277424,612.562586,-9973.284597
301.235514,-57.427742,1033.699363,-9801.001370
301.238088,1933.400661,535.992262,-9590.432981
301.240662,191.425808,650.847747,-9724.431046
301.243237,765.703232,516.849682,-9781.858789
301.245811,842.273555,899.701298,-9781.858789
301.248385,1244.267752,555.134843,-9934.999435
301.250959,957.129040,746.560651,-9552.147819
301.253534,2335.394858,918.843878,-9667.003304
301.256108,2048.256146,976.271621,-9820.143950
301.258682,4173.082614,669.990328,-9513.862658
301.261256,3560.520029,746.560651,-9647.860723
301.263831,-287.138712,440.279358,-9801.001370
301.266405,-306.281293,1493.121302,-9399.007173
301.268979,1320.838075,267.996131,-9954.142016
301.271554,-3943.371645,995.414202,-9954.142016
301.274128,899.701298,803.988394,-9609.575562
301.276702,57.427742,650.847747,-9820.143950
301.279276,-267.996131,306.281293,-10088.140082
301.281860,-1531.406464,918.843878,-9762.716208
301.284443,995.414202,995.414202,-9801.001370
301.287027,784.845813,287.138712,-9992.427178
301.289610,899.701298,612.562586,-9877.571693
301.292194,1454.836141,765.703232,-9743.573627
301.294777,-631.705166,478.564520,-9820.143950
301.297361,-1933.400661,784.845813,-9877.571693
301.299944,-2411.965181,765.703232,-9724.431046
301.302528,-210.568389,708.275490,-9839.286531
301.305111,1301.695494,784.845813,-9762.716208
301.307695,-76.570323,612.562586,-9820.143950
301.310278,248.853550,899.701298,-9667.003304
301.312862,842.273555,497.707101,-9686.145885
301.315445,-746.560651,918.843878,-9915.856854
301.318029,1435.693560,784.845813,-9839.286531
301.320612,287.138712,765.703232,-9552.147819
301.323196,-612.562586,574.277424,-9743.573627
301.325779,-76.570323,918.843878,-9590.432981
301.328362,-631.705166,957.129040,-9896.714274
301.330946,-1722.832272,459.421939,-9858.429112
301.333529,-1359.123237,1301.695494,-9456.434915
301.336113,153.140646,-114.855485,-10107.282662
301.338696,-803.988394,1550.549045,-9437.292334
301.341280,-2124.826469,440.279358,-9820.143950
301.343863,-421.136778,1186.840010,-9628.718142
301.346447,1761.117434,421.136778,-9743.573627
301.349030,708.275490,1473.978722,-9571.290400
301.351614,133.998066,880.558717,-9705.288466
301.354197,4230.510357,784.845813,-9552.147819
301.356781,995.414202,1339.980656,-9437.292334
301.359364,57.427742,-306.281293,-10145.567824
301.361948,95.712904,1569.691626,-9341.579430
301.364531,1607.976787,325.423874,-9839.286531
301.367115,382.851616,153.140646,-10126.425243
301.369698,1033.699363,1837.687757,-9533.005238
301.372282,612.562586,-555.134843,-10011.569758
301.374865,459.421939,1761.117434,-9226.723946
301.377449,2813.959378,363.709035,-10126.425243
301.380032,2603.390989,382.851616,-9954.142016
301.382615,823.130974,1435.693560,-9322.436850
301.385167,-344.566454,76.570323,-10011.569758
301.387719,1531.406464,1167.697429,-9571.290400
301.390271,574.277424,765.703232,-9762.716208
301.392823,57.427742,516.849682,-10049.854920
301.395375,1014.556782,899.701298,-9571.290400
301.397927,497.707101,421.136778,-9724.431046
301.400479,669.990328,937.986459,-9686.145885
301.403031,976.271621,650.847747,-9973.284597
301.405583,1397.408398,612.562586,-9762.716208
301.408134,114.855485,957.129040,-9513.862658
301.410686,3043.670347,880.558717,-9686.145885
301.413238,3503.092286,631.705166,-9820.143950
301.415790,3560.520029,880.558717,-9781.858789
301.418342,2794.816797,478.564520,-9647.860723
301.420894,784.845813,19.142581,-9724.431046
301.423446,-1761.117434,1378.265818,-9647.860723
301.425998,1320.838075,287.138712,-9781.858789
301.428550,-3292.523898,1014.556782,-9915.856854
301.431102,-1550.549045,1339.980656,-9647.860723
301.433653,1607.976787,440.279358,-9494.720077
301.436205,-497.707101,1033.699363,-9915.856854
301.438757,-1512.263883,440.279358,-9590.432981
301.441309,1110.269686,1359.123237,-9513.862658
301.443861,1875.972918,-172.283227,-10068.997501
301.446413,440.279358,1014.556782,-9571.290400
301.448965,1033.699363,593.420005,-9896.714274
301.451517,-650.847747,133.998066,-9954.142016
301.454069,-2201.396792,957.129040,-9743.573627
301.456620,-2182.254211,363.709035,-10068.997501
301.459172,1301.695494,918.843878,-9552.147819
301.461724,497.707101,765.703232,-9839.286531
301.464276,0.000000,516.849682,-9705.288466
301.466828,842.273555,1110.269686,-9456.434915
301.469380,248.853550,516.849682,-9705.288466
301.471932,-133.998066,957.129040,-9877.571693
301.474484,842.273555,861.416136,-9915.856854
301.477036,210.568389,401.994197,-9590.432981
301.479588,-535.992262,880.558717,-9609.575562
301.482139,-880.558717,516.849682,-10049.854920
301.484691,-1454.836141,784.845813,-9839.286531
301.487256,-1378.265818,899.701298,-9762.716208
301.489820,19.142581,267.996131,-9762.716208
301.492384,-976.271621,1473.978722,-9609.575562
301.494948,-2277.967115,19.142581,-9973.284597
301.497513,-459.421939,1722.832272,-9418.149754
301.500077,1895.115499,76.570323,-10068.997501
301.502641,784.845813,1435.693560,-9590.432981
301.505205,535.992262,899.701298,-9418.149754
301.507770,3522.234867,172.283227,-9724.431046
301.510334,1320.838075,1569.691626,-9533.005238
301.512898,-76.570323,-153.140646,-10183.852986
301.515462,172.283227,1493.121302,-9399.007173
301.518027,1167.697429,114.855485,-9781.858789
301.520591,784.845813,287.138712,-9877.571693
301.523155,976.271621,2029.113565,-9533.005238
301.525719,325.423874,-746.560651,-10222.138147
301.528284,899.701298,1397.408398,-9322.436850
301.530848,2182.254211,363.709035,-9973.284597
301.533412,2603.390989,516.849682,-9801.001370
301.535976,918.843878,1416.550979,-9265.009107
301.538541,-95.712904,-76.570323,-9973.284597
301.541105,823.130974,1244.267752,-9609.575562
301.543669,937.986459,612.562586,-9839.286531
301.546233,918.843878,650.847747,-9858.429112
301.548798,-306.281293,842.273555,-9552.147819
301.551362,899.701298,478.564520,-9647.860723
301.553926,1148.554848,899.701298,-9781.858789
301.556491,1320.838075,784.845813,-9877.571693
301.559055,76.570323,937.986459,-9667.003304
301.561619,2737.389054,535.992262,-9418.149754
301.564183,2565.105827,823.130974,-9839.286531
301.566748,4019.941968,593.420005,-9858.429112
301.569312,4383.651003,765.703232,-9571.290400
301.571876,-306.281293,727.418070,-9705.288466
301.574440,114.855485,937.986459,-9513.862658
301.577005,1148.554848,555.134843,-9609.575562
301.579569,-3579.662610,995.414202,-10011.569758
301.582133,-440.279358,1071.984525,-9590.432981
301.584697,899.701298,746.560651,-9552.147819
301.587262,-440.279358,631.705166,-10260.423309
301.589836,-1952.543242,727.418070,-9724.431046
301.592410,1225.125171,593.420005,-9743.573627
301.594984,382.851616,823.130974,-9705.288466
301.597559,1148.554848,459.421939,-10030.712339
301.600133,1588.834206,918.843878,-9667.003304
301.602707,-612.562586,459.421939,-9724.431046
301.605281,-2718.246474,708.275490,-9954.142016
301.607855,-1780.260014,708.275490,-9801.001370
301.610430,555.134843,861.416136,-9820.143950
301.613004,459.421939,631.705166,-9820.143950
301.615578,191.425808,689.132909,-9762.716208
301.618152,535.992262,803.988394,-9705.288466
301.620727,689.132909,803.988394,-9590.432981
301.623301,-38.285162,593.420005,-9858.429112
301.625875,421.136778,765.703232,-9915.856854
301.628449,172.283227,918.843878,-9571.290400
301.631024,-689.132909,306.281293,-9839.286531
301.633598,-1531.406464,1033.699363,-9858.429112
301.636172,-1225.125171,899.701298,-9743.573627
301.638746,382.851616,708.275490,-9915.856854
301.641321,-1627.119368,555.134843,-9686.145885
301.643895,-995.414202,861.416136,-9801.001370
301.646469,-2297.109696,440.279358,-9820.143950
301.649043,1454.836141,937.986459,-9686.145885
301.651618,210.568389,650.847747,-9915.856854
301.654192,1052.841944,325.423874,-9896.714274
301.656766,2469.392923,746.560651,-9418.149754
301.659340,1627.119368,-38.285162,-9896.714274
301.661915,1607.976787,1110.269686,-9992.427178
301.664489,76.570323,574.277424,-9915.856854
301.667063,-555.134843,1071.984525,-9590.432981
301.669637,2124.826469,995.414202,-9590.432981
301.672211,803.988394,631.705166,-9820.143950
301.674786,95.712904,401.994197,-9820.143950
301.677360,1761.117434,976.271621,-9552.147819
301.679934,1799.402595,401.994197,-9934.999435
301.682508,1473.978722,918.843878,-9628.718142
301.685083,2373.680019,976.271621,-9781.858789
301.687657,-248.853550,555.134843,-9705.288466
301.690231,-57.427742,1378.265818,-9571.290400
301.692813,1052.841944,612.562586,-9896.714274
301.695396,1665.404530,861.416136,-9973.284597
301.697978,-38.285162,880.558717,-9877.571693
301.700560,1167.697429,-38.285162,-9494.720077
301.703142,2029.113565,1722.832272,-9494.720077
301.705725,1244.267752,-421.136778,-10566.704602
301.708307,-459.421939,1627.119368,-9552.147819
301.710889,2986.242605,574.277424,-9533.005238
301.713471,3866.801322,-19.142581,-9839.286531
301.716054,3330.809059,1435.693560,-9571.290400
301.718636,3292.523898,267.996131,-10202.995566
301.721218,1454.836141,153.140646,-9839.286531
301.723800,-1837.687757,1091.127106,-9456.434915
301.726383,1359.123237,114.855485,-9724.431046
301.728965,-3656.232933,1129.412267,-9973.284597
301.731547,-823.130974,937.986459,-9418.149754
301.734129,1186.840010,995.414202,-9609.575562
301.736711,-612.562586,459.421939,-10509.276859
301.739294,-1952.543242,708.275490,-9571.290400
301.741876,1799.402595,1320.838075,-9533.005238
301.744458,1703.689691,-191.425808,-10145.567824
301.747040,497.707101,937.986459,-9609.575562
301.749623,1244.267752,708.275490,-9992.427178
301.752205,-1052.841944,248.853550,-9839.286531
301.754787,-2316.252277,899.701298,-9686.145885
301.757369,-1263.410333,612.562586,-10030.712339
301.759952,114.855485,669.990328,-9915.856854
301.762534,555.134843,727.418070,-9915.856854
301.765116,784.845813,708.275490,-9609.575562
301.767698,306.281293,631.705166,-9590.432981
301.770281,-823.130974,574.277424,-9820.143950
301.772863,1244.267752,880.558717,-9877.571693
301.775445,-133.998066,880.558717,-9839.286531
301.778027,-382.851616,612.562586,-9647.860723
301.780610,-535.992262,727.418070,-9628.718142
301.783192,-1703.689691,803.988394,-9896.714274
301.785774,-708.275490,918.843878,-9801.001370
301.788356,-1186.840010,287.138712,-9762.716208
301.790939,-1473.978722,861.416136,-9667.003304
301.793521,-2469.392923,459.421939,-9724.431046
301.796109,1014.556782,918.843878,-9571.290400
301.798698,880.558717,497.707101,-9934.999435
301.801286,2450.250342,880.558717,-10107.282662
301.803875,976.271621,516.849682,-9284.151688
301.806463,3349.951640,478.564520,-9418.149754
301.809052,1550.549045,1301.695494,-9686.145885
301.811640,-363.709035,-229.710970,-10260.423309
301.814229,-574.277424,1473.978722,-9628.718142
301.816817,1416.550979,765.703232,-9609.575562
301.819406,631.705166,-76.570323,-9877.571693
301.821994,784.845813,1837.687757,-9418.149754
301.824583,1550.549045,-210.568389,-9992.427178
301.827172,1071.984525,1301.695494,-9399.007173
301.829760,1952.543242,631.705166,-9839.286531
301.832349,2316.252277,459.421939,-9954.142016
301.834937,459.421939,1320.838075,-9418.149754
301.837526,-133.998066,555.134843,-9877.571693
301.840114,689.132909,880.558717,-9743.573627
301.842703,1703.689691,497.707101,-9820.143950
301.845291,114.855485,593.420005,-9820.143950
301.847880,210.568389,574.277424,-9456.434915
301.850468,1186.840010,593.420005,-9820.143950
301.853057,803.988394,574.277424,-9915.856854
301.855645,689.132909,689.132909,-9762.716208
301.858234,2794.816797,1263.410333,-9762.716208
301.860822,4345.365842,19.142581,-9647.860723
301.863411,3617.947771,1512.263883,-9533.005238
301.865999,765.703232,535.992262,-10164.710405
301.868588,2182.254211,172.283227,-9609.575562
301.871176,-899.701298,1416.550979,-9858.429112
301.873765,-937.986459,-38.285162,-10049.854920
301.876353,-1569.691626,918.843878,-9456.434915
301.878946,-2258.824534,1148.554848,-9781.858789
301.881539,1052.841944,535.992262,-9686.145885
301.884132,-133.998066,1263.410333,-9973.284597
301.886725,-823.130974,-76.570323,-9762.716208
301.889318,401.994197,1722.832272,-9035.298138
301.891911,2277.967115,19.142581,-10011.569758
301.894504,574.277424,1071.984525,-9801.001370
301.897097,153.140646,842.273555,-9801.001370
301.899690,-1320.838075,0.000000,-9801.001370
301.902283,-2641.676150,1205.982590,-9667.003304
301.904876,-1339.980656,382.851616,-10164.710405
301.907469,2124.826469,976.271621,-9743.573627
301.910062,-95.712904,727.418070,-9877.571693
301.912655,-344.566454,574.277424,-9552.147819
301.915248,650.847747,880.558717,-9552.147819
301.917841,497.707101,401.994197,-10107.282662
301.920434,-19.142581,1110.269686,-9801.001370
301.923027,440.279358,650.847747,-9724.431046
301.925620,-765.703232,421.136778,-9762.716208
301.928213,-1569.691626,784.845813,-9628.718142
301.930806,-976.271621,708.275490,-10030.712339
301.933399,-133.998066,421.136778,-9992.427178
301.935992,-1435.693560,1205.982590,-9628.718142
301.938585,-2718.246474,574.277424,-9801.001370
301.941178,-114.855485,823.130974,-9590.432981
301.943771,1397.408398,478.564520,-9724.431046
301.946364,2411.965181,1512.263883,-9820.143950
301.948957,880.558717,478.564520,-9705.288466
301.951550,4230.510357,689.132909,-9379.864592
301.954143,1512.263883,1454.836141,-9533.005238
301.956736,-401.994197,-516.849682,-10451.849117
301.959328,-229.710970,1856.830338,-9322.436850
301.961921,1205.982590,612.562586,-9839.286531
301.964514,784.845813,76.570323,-9973.284597
301.967107,1091.127106,2067.398726,-9265.009107
301.969700,1493.121302,-497.707101,-10107.282662
301.972293,1435.693560,1761.117434,-9341.579430
301.974886,3005.385186,153.140646,-9973.284597
301.977479,1301.695494,535.992262,-9667.003304
301.980072,-210.568389,1205.982590,-9360.722011
301.982668,937.986459,-19.142581,-9954.142016
301.985264,1225.125171,1091.127106,-9647.860723
301.987861,1071.984525,708.275490,-9858.429112
301.990457,-114.855485,727.418070,-9896.714274
301.993053,880.558717,401.994197,-9533.005238
301.995649,823.130974,803.988394,-9628.718142
301.998245,-57.427742,727.418070,-10049.854920
302.000841,2756.531635,478.564520,-9705.288466
302.003437,2603.390989,1052.841944,-9494.720077
302.006033,3541.377448,76.570323,-9801.001370
302.008629,4575.076811,823.130974,-9494.720077
302.011226,1493.121302,421.136778,-10011.569758
302.013822,-401.994197,1244.267752,-9801.001370
302.016418,1607.976787,210.568389,-9647.860723
302.019014,-4632.504554,937.986459,-9858.429112
302.021610,-612.562586,937.986459,-9494.720077
302.024206,-478.564520,535.992262,-10011.569758
302.026802,-229.710970,497.707101,-10183.852986
302.029398,-574.277424,880.558717,-9590.432981
302.031995,631.705166,-57.427742,-9839.286531
302.034591,593.420005,708.275490,-9781.858789
302.037187,1244.267752,593.420005,-9896.714274
302.039783,1684.547110,899.701298,-9839.286531
302.042379,-1473.978722,689.132909,-9705.288466
302.044975,-2297.109696,880.558717,-9609.575562
302.047571,-2105.683888,899.701298,-9705.288466
302.050167,727.418070,708.275490,-9896.714274
302.052763,1244.267752,861.416136,-9743.573627
302.055360,-133.998066,535.992262,-9858.429112
302.057956,478.564520,574.277424,-9628.718142
302.060552,1378.265818,689.132909,-9590.432981
302.063148,-516.849682,727.418070,-10241.280728
302.065744,-210.568389,842.273555,-9820.143950
302.068340,-325.423874,727.418070,-9590.432981
302.070936,-1454.836141,708.275490,-9667.003304
302.073532,-555.134843,765.703232,-9801.001370
302.076128,-478.564520,459.421939,-9839.286531
302.078725,-1722.832272,1684.547110,-9590.432981
302.081321,-3483.949706,114.855485,-9954.142016
302.083917,-1416.550979,957.129040,-9609.575562
302.086515,1263.410333,382.851616,-9896.714274
302.089114,2622.533570,1244.267752,-9934.999435
302.091713,1588.834206,555.134843,-9609.575562
302.094311,4058.227130,210.568389,-9533.005238
302.096910,1263.410333,1033.699363,-9781.858789
302.099508,-229.710970,382.851616,-9820.143950
302.102107,-995.414202,1531.406464,-9533.005238
302.104706,708.275490,574.277424,-9762.716208
302.107304,1186.840010,267.996131,-9973.284597
302.109903,1205.982590,2048.256146,-9226.723946
302.112501,1550.549045,-401.994197,-9992.427178
302.115100,1493.121302,1569.691626,-9399.007173
302.117699,2105.683888,555.134843,-9877.571693
302.120297,957.129040,421.136778,-9954.142016
302.122896,-57.427742,1091.127106,-9437.292334
302.125494,574.277424,497.707101,-9877.571693
302.128093,861.416136,937.986459,-9705.288466
302.130692,1282.552914,669.990328,-9820.143950
302.133290,133.998066,727.418070,-9801.001370
302.135889,287.138712,823.130974,-9456.434915
302.138487,727.418070,708.275490,-9877.571693
302.141086,2105.683888,669.990328,-9686.145885
302.143684,1875.972918,1225.125171,-9686.145885
302.146283,3503.092286,382.851616,-9781.858789
302.148882,4307.080680,899.701298,-9341.579430
302.151480,229.710970,1110.269686,-9801.001370
302.154079,2297.109696,746.560651,-9820.143950
302.156677,38.285162,803.988394,-9954.142016
302.159276,-2316.252277,535.992262,-9915.856854
302.161875,-708.275490,421.136778,-9360.722011
302.164473,-2871.387120,976.271621,-9973.284597
302.167072,459.421939,574.277424,-9552.147819
302.169670,421.136778,1052.841944,-9628.718142
302.172269,-210.568389,-133.998066,-10049.854920
302.174868,-114.855485,1454.836141,-9054.440718
302.177466,2603.390989,459.421939,-9934.999435
302.180065,650.847747,1033.699363,-9820.143950
302.182663,-401.994197,861.416136,-9628.718142
302.185262,-1110.269686,535.992262,-9762.716208
302.187861,-2488.535504,803.988394,-9781.858789
302.190460,-976.271621,440.279358,-9896.714274
302.193060,1378.265818,1014.556782,-9801.001370
302.195659,1052.841944,421.136778,-9954.142016
302.198259,-650.847747,478.564520,-9647.860723
302.200858,535.992262,1052.841944,-9437.292334
302.203458,478.564520,401.994197,-10183.852986
302.206058,95.712904,708.275490,-9839.286531
302.208657,-535.992262,823.130974,-9686.145885
302.211257,-861.416136,516.849682,-9762.716208
302.213856,19.142581,574.277424,-9743.573627
302.216456,-1646.261949,210.568389,-9973.284597
302.219055,-2488.535504,421.136778,-9973.284597
302.221655,-2967.100024,784.845813,-9801.001370
302.224255,1301.695494,708.275490,-9724.431046
302.226854,669.990328,535.992262,-9877.571693
302.229454,3081.955509,612.562586,-9934.999435
302.232053,2143.969050,574.277424,-9533.005238
302.234653,3388.236802,363.709035,-9533.005238
302.237252,1875.972918,1225.125171,-9609.575562
302.239852,-784.845813,-172.283227,-9973.284597
302.242451,-1052.841944,1799.402595,-9418.149754
302.245051,708.275490,918.843878,-9743.573627
302.247651,1435.693560,229.710970,-9973.284597
302.250250,1244.267752,1607.976787,-9360.722011
302.252850,2258.824534,-153.140646,-9839.286531
302.255449,1416.550979,976.271621,-9513.862658
302.258049,1761.117434,765.703232,-9667.003304
302.260648,937.986459,497.707101,-9973.284597
302.263248,-421.136778,1282.552914,-9418.149754
302.265848,880.558717,421.136778,-9839.286531
302.268447,1952.543242,861.416136,-9686.145885
302.271047,133.998066,555.134843,-9877.571693
302.273646,363.709035,784.845813,-9705.288466
302.276246,440.279358,593.420005,-9590.432981
302.278845,669.990328,267.996131,-9858.429112
302.281445,2220.539373,1282.552914,-9590.432981
302.284045,3694.518094,229.710970,-9877.571693
302.286644,3024.527766,1167.697429,-9724.431046
302.289244,4019.941968,459.421939,-9494.720077
302.291843,2316.252277,478.564520,-9686.145885
302.294444,-957.129040,1339.980656,-9801.001370
302.297044,421.136778,0.000000,-9647.860723
302.299644,-3273.381317,1416.550979,-9533.005238
302.302245,-2067.398726,937.986459,-9858.429112
302.304845,459.421939,440.279358,-9724.431046
302.307445,-516.849682,1435.693560,-10088.140082
302.310046,-1684.547110,516.849682,-9667.003304
302.312646,2086.541307,593.420005,-9667.003304
302.315246,765.703232,497.707101,-9896.714274
302.317847,401.994197,727.418070,-9762.716208
302.320447,1071.984525,478.564520,-9896.714274
302.323047,-1454.836141,440.279358,-9877.571693
302.325648,-2469.392923,861.416136,-9552.147819
302.328248,-880.558717,401.994197,-9896.714274
302.330848,1186.840010,861.416136,-9839.286531
302.333449,478.564520,784.845813,-9724.431046
302.336049,210.568389,440.279358,-9954.142016
302.338649,306.281293,727.418070,-9494.720077
302.341250,631.705166,765.703232,-9781.858789
302.343850,19.142581,957.129040,-10011.569758
302.346450,-861.416136,746.560651,-9571.290400
302.349051,-880.558717,593.420005,-9647.860723
302.351651,957.129040,1014.556782,-9762.716208
302.354251,-2124.826469,478.564520,-9954.142016
302.356852,-2297.109696,689.132909,-9801.001370
302.359452,-3483.949706,765.703232,-9781.858789
302.362052,287.138712,382.851616,-9743.573627
302.364653,918.843878,535.992262,-9762.716208
302.367253,2545.963246,650.847747,-9839.286531
302.369853,3598.805190,153.140646,-9628.718142
302.372454,2373.680019,229.710970,-9705.288466
302.375054,1684.547110,1110.269686,-9724.431046
302.377654,-708.275490,38.285162,-9973.284597
302.380255,-1435.693560,1550.549045,-9437.292334
302.382855,440.279358,669.990328,-9820.143950
302.385455,1473.978722,440.279358,-9992.427178
302.388056,1320.838075,1550.549045,-9322.436850
302.390656,2813.959378,-153.140646,-9858.429112
302.393256,1875.972918,708.275490,-9839.286531
302.395857,1205.982590,861.416136,-9686.145885
302.398429,669.990328,497.707101,-9954.142016
302.401001,287.138712,1091.127106,-9647.860723
302.403573,440.279358,287.138712,-10011.569758
302.406145,1282.552914,995.414202,-9475.577496
302.408717,287.138712,689.132909,-9839.286531
302.411289,957.129040,306.281293,-10068.997501
302.413861,-229.710970,976.271621,-9456.434915
302.416433,2009.970984,880.558717,-9724.431046
302.419005,2794.816797,267.996131,-9954.142016
302.421577,3292.523898,957.129040,-9647.860723
302.424149,4345.365842,765.703232,-9667.003304
302.426721,803.988394,612.562586,-9858.429112
302.429293,2756.531635,1225.125171,-9686.145885
302.431865,1225.125171,765.703232,-9820.143950
302.434437,-3311.666478,612.562586,-9992.427178
302.437009,-1033.699363,363.709035,-9303.294269
302.439581,-1378.265818,803.988394,-9934.999435
302.442153,-459.421939,248.853550,-10279.565890
302.444725,344.566454,937.986459,-9513.862658
302.447297,382.851616,210.568389,-9858.429112
302.449869,-19.142581,1397.408398,-9322.436850
302.452441,2909.672282,363.709035,-10049.854920
302.455013,440.279358,1435.693560,-9667.003304
302.457585,-861.416136,727.418070,-9475.577496
302.460157,-1627.119368,459.421939,-9896.714274
302.462729,-2316.252277,937.986459,-9686.145885
302.465301,248.853550,669.990328,-9915.856854
302.467873,823.130974,803.988394,-9839.286531
302.470445,976.271621,727.418070,-9590.432981
302.473017,-708.275490,842.273555,-9628.718142
302.475589,784.845813,1091.127106,-9724.431046
302.478161,574.277424,535.992262,-9839.286531
302.480733,-957.129040,918.843878,-9839.286531
302.483305,-593.420005,784.845813,-9609.575562
302.485877,803.988394,440.279358,-9686.145885
302.488449,-2297.109696,535.992262,-9743.573627
302.491021,-3005.385186,306.281293,-10088.140082
302.493593,-3254.238736,899.701298,-9858.429112
302.496165,1665.404530,574.277424,-9705.288466
302.498737,421.136778,708.275490,-9877.571693
302.501313,3196.810994,574.277424,-9801.001370
302.503890,3081.955509,535.992262,-9399.007173
302.506467,3235.096155,382.851616,-9705.288466
302.509043,1837.687757,1033.699363,-9647.860723
302.511620,-1033.699363,95.712904,-9877.571693
302.514196,-1359.123237,995.414202,-9781.858789
302.516773,287.138712,861.416136,-9801.001370
302.519349,1933.400661,440.279358,-9896.714274
302.521926,1454.836141,1512.263883,-9399.007173
302.524502,2928.814862,612.562586,-9513.862658
302.527079,1914.258080,593.420005,-9781.858789
302.529656,210.568389,957.129040,-9705.288466
302.532232,1091.127106,478.564520,-10011.569758
302.534809,421.136778,823.130974,-9628.718142
302.537385,382.851616,555.134843,-9820.143950
302.539962,1244.267752,535.992262,-9858.429112
302.542538,363.709035,593.420005,-9858.429112
302.545115,-114.855485,708.275490,-9839.286531
302.547692,1588.834206,421.136778,-9628.718142
302.550268,1780.260014,1110.269686,-9686.145885
302.552845,3254.238736,229.710970,-9705.288466
302.555421,3732.803256,1493.121302,-9437.292334
302.557998,2086.541307,440.279358,-9973.284597
302.560574,3675.375514,325.423874,-9494.720077
302.563151,-210.568389,1550.549045,-9724.431046
302.565727,708.275490,-133.998066,-9896.714274
302.568304,-3713.660675,1205.982590,-9379.864592
302.570881,-2833.101958,1167.697429,-9858.429112
302.573457,153.140646,401.994197,-9762.716208
302.576034,516.849682,1263.410333,-9839.286531
302.578610,-1588.834206,555.134843,-9743.573627
302.581187,2450.250342,1263.410333,-9226.723946
302.583763,1952.543242,-38.285162,-10222.138147
302.586340,516.849682,842.273555,-9743.573627
302.588916,421.136778,708.275490,-9915.856854
302.591493,-1952.543242,19.142581,-9839.286531
302.594070,-2488.535504,1148.554848,-9552.147819
302.596646,-267.996131,727.418070,-10068.997501
302.599223,976.271621,823.130974,-9801.001370
302.601799,76.570323,842.273555,-9628.718142
302.604380,325.423874,555.134843,-9667.003304
302.606960,287.138712,765.703232,-9533.005238
302.609540,57.427742,440.279358,-9858.429112
302.612121,-95.712904,976.271621,-10011.569758
302.614701,-880.558717,689.132909,-9820.143950
302.617282,478.564520,727.418070,-9647.860723
302.619862,-1550.549045,689.132909,-9705.288466
302.622442,-2469.392923,363.709035,-10145.567824
302.625023,-3445.664544,1186.840010,-9647.860723
302.627603,1856.830338,440.279358,-9781.858789
302.630184,574.277424,631.705166,-9801.001370
302.632764,2833.101958,516.849682,-9820.143950
302.635344,3962.514226,401.994197,-9533.005238
302.637925,3177.668413,325.423874,-9647.860723
302.640505,1761.117434,880.558717,-9858.429112
302.643086,-1071.984525,306.281293,-9820.143950
302.645666,-1914.258080,1703.689691,-9399.007173
302.648246,-19.142581,842.273555,-9762.716208
302.650827,2201.396792,612.562586,-9858.429112
302.653407,2029.113565,1167.697429,-9437.292334
302.655988,2986.242605,38.285162,-9801.001370
302.658568,1454.836141,995.414202,-9322.436850
302.661148,1148.554848,880.558717,-9781.858789
302.663729,172.283227,344.566454,-10164.710405
302.666309,153.140646,1282.552914,-9475.577496
302.668890,880.558717,631.705166,-9915.856854
302.671470,306.281293,746.560651,-9686.145885
302.674050,669.990328,995.414202,-9552.147819
302.676631,555.134843,708.275490,-9934.999435
302.679211,1205.982590,727.418070,-9686.145885
302.681792,2182.254211,478.564520,-9686.145885
302.684372,3292.523898,689.132909,-9820.143950
302.686952,4077.369710,746.560651,-9437.292334
302.689533,861.416136,650.847747,-9954.142016
302.692113,3637.090352,995.414202,-9590.432981
302.694694,976.271621,861.416136,-9877.571693
302.697274,-4326.223261,784.845813,-10030.712339
302.699854,-1301.695494,459.421939,-9284.151688
302.702435,-3120.240670,842.273555,-10126.425243
302.705015,-172.283227,133.998066,-10260.423309
302.707599,1014.556782,1071.984525,-9437.292334
302.710183,-325.423874,267.996131,-9724.431046
302.712766,1110.269686,1263.410333,-9054.440718
302.715350,2756.531635,421.136778,-9954.142016
302.717934,57.427742,1129.412267,-9877.571693
302.720517,-650.847747,727.418070,-9781.858789
302.723101,-2488.535504,631.705166,-9628.718142
302.725685,-861.416136,1129.412267,-9667.003304
302.728268,478.564520,516.849682,-10011.569758
302.730852,612.562586,784.845813,-9877.571693
302.733436,1129.412267,880.558717,-9552.147819
302.736019,-306.281293,440.279358,-9705.288466
302.738603,-344.566454,803.988394,-9494.720077
302.741187,248.853550,650.847747,-9934.999435
302.743770,-516.849682,1052.841944,-9820.143950
302.746354,-153.140646,746.560651,-9647.860723
302.748938,-1703.689691,535.992262,-9667.003304
302.751522,-2565.105827,727.418070,-9934.999435
302.754105,-3885.943902,669.990328,-9954.142016
302.756689,-1244.267752,612.562586,-9954.142016
302.759273,708.275490,344.566454,-9705.288466
302.761856,3445.664544,1282.552914,-9686.145885
302.764440,2469.392923,76.570323,-9705.288466
302.767024,5206.781978,1167.697429,-9207.581365
302.769607,2239.681954,1052.841944,-9896.714274
302.772191,-937.986459,0.000000,-9992.427178
302.774775,-1722.832272,1933.400661,-9265.009107
302.777358,-555.134843,38.285162,-10011.569758
302.779942,1301.695494,1033.699363,-9820.143950
302.782526,2220.539373,1225.125171,-9418.149754
302.785109,3349.951640,287.138712,-9915.856854
302.787693,1473.978722,1205.982590,-9418.149754
302.790277,669.990328,478.564520,-9743.573627
302.792860,727.418070,823.130974,-9858.429112
302.795444,746.560651,880.558717,-9647.860723
302.798028,401.994197,325.423874,-9954.142016
302.800612,1033.699363,784.845813,-9494.720077
302.803195,95.712904,478.564520,-9743.573627
302.805779,153.140646,516.849682,-9858.429112
302.808363,1493.121302,1282.552914,-9781.858789
302.810948,2411.965181,325.423874,-9839.286531
302.813534,2967.100024,1129.412267,-9456.434915
302.816120,4249.652938,440.279358,-9590.432981
302.818706,1320.838075,1110.269686,-9801.001370
302.821291,1722.832272,1263.410333,-9762.716208
302.823877,2373.680019,133.998066,-9647.860723
302.826463,-4862.215523,1014.556782,-9973.284597
302.829049,-1837.687757,401.994197,-9724.431046
302.831634,-2775.674216,803.988394,-9896.714274
302.834220,-401.994197,535.992262,-10451.849117
302.836806,1129.412267,823.130974,-9590.432981
302.839392,497.707101,76.570323,-9686.145885
302.841977,612.562586,1359.123237,-9016.155557
302.844563,2890.529701,497.707101,-9839.286531
302.847149,76.570323,1110.269686,-9934.999435
302.849735,-2584.248408,784.845813,-9590.432981
302.852320,-1799.402595,631.705166,-9647.860723
302.854906,-842.273555,937.986459,-9762.716208
302.857492,555.134843,765.703232,-9820.143950
302.860078,1263.410333,823.130974,-9877.571693
302.862663,210.568389,612.562586,-9839.286531
302.865249,-631.705166,574.277424,-9571.290400
302.867835,325.423874,765.703232,-9686.145885
302.870421,57.427742,363.709035,-10126.425243
302.873006,-95.712904,1339.980656,-9533.005238
302.875592,-689.132909,287.138712,-9896.714274
302.878178,-1531.406464,1473.978722,-9571.290400
302.880764,-3790.230998,344.566454,-9877.571693
302.883349,-3751.945837,1320.838075,-9667.003304
302.885935,1684.547110,497.707101,-9934.999435
302.888521,689.132909,803.988394,-9628.718142
302.891107,2392.822600,669.990328,-9475.577496
302.893692,6546.762634,1110.269686,-9322.436850
302.896278,2067.398726,995.414202,-9686.145885
302.898864,-267.996131,153.140646,-10260.423309
302.901450,-1129.412267,1416.550979,-9533.005238
302.904035,-1148.554848,-153.140646,-9954.142016
302.906621,-401.994197,1110.269686,-9724.431046
302.909207,2737.389054,593.420005,-9896.714274
302.911793,2947.957443,689.132909,-9571.290400
302.914380,3369.094221,574.277424,-9647.860723
302.916968,803.988394,555.134843,-9724.431046
302.919556,-95.712904,708.275490,-9896.714274
302.922143,593.420005,784.845813,-9877.571693
302.924731,957.129040,937.986459,-9724.431046
302.927318,-76.570323,612.562586,-9743.573627
302.929906,727.418070,861.416136,-9628.718142
302.932494,689.132909,823.130974,-9647.860723
302.935081,746.560651,1033.699363,-9915.856854
302.937669,2431.107762,478.564520,-9590.432981
302.940257,3215.953574,1282.552914,-9494.720077
302.942844,3809.373579,133.998066,-9743.573627
302.945432,2354.537438,803.988394,-9513.862658
302.948020,2890.529701,1378.265818,-9839.286531
302.950607,2718.246474,-38.285162,-9839.286531
302.953195,-4345.365842,918.843878,-9915.856854
302.955782,-2794.816797,803.988394,-9647.860723
302.958370,-1493.121302,593.420005,-9762.716208
302.960958,-880.558717,861.416136,-10451.849117
302.963545,401.994197,765.703232,-9494.720077
302.966133,1761.117434,-114.855485,-9820.143950
302.968721,-38.285162,1186.840010,-9399.007173
302.971308,2622.533570,516.849682,-9781.858789
302.973896,325.423874,1167.697429,-10088.140082
302.976484,-1875.972918,823.130974,-9647.860723
302.979071,-2316.252277,650.847747,-9686.145885
302.981659,-727.418070,746.560651,-9896.714274
302.984246,1856.830338,689.132909,-9877.571693
302.986834,210.568389,899.701298,-9705.288466
302.989422,38.285162,440.279358,-9877.571693
302.992009,57.427742,746.560651,-9552.147819
302.994597,382.851616,459.421939,-9839.286531
302.997185,-478.564520,650.847747,-9896.714274
302.999772,765.703232,995.414202,-9877.571693
303.002360,-1627.119368,-19.142581,-9839.286531
303.004948,-2124.826469,880.558717,-9781.858789
303.007535,-4058.227130,937.986459,-9954.142016
303.010123,-593.420005,497.707101,-9915.856854
303.012711,133.998066,555.134843,-10068.997501
303.015298,3503.092286,1205.982590,-9705.288466
303.017887,3349.951640,-114.855485,-9533.005238
303.020475,5168.496816,918.843878,-9418.149754
303.023064,2277.967115,1454.836141,-9590.432981
303.025652,-1244.267752,-555.134843,-10183.852986
303.028241,-1895.115499,1952.543242,-9188.438784
303.030829,-746.560651,497.707101,-9973.284597
303.033418,1550.549045,823.130974,-9896.714274
303.036006,2986.242605,1071.984525,-9418.149754
303.038595,3675.375514,516.849682,-9762.716208
303.041183,1531.406464,708.275490,-9494.720077
303.043772,-344.566454,784.845813,-9628.718142
303.046360,516.849682,593.420005,-9839.286531
303.048949,918.843878,899.701298,-9667.003304
303.051537,76.570323,612.562586,-9954.142016
303.054126,344.566454,995.414202,-9418.149754
303.056714,937.986459,650.847747,-9705.288466
303.059303,1167.697429,995.414202,-9896.714274
303.061891,1856.830338,497.707101,-9743.573627
303.064480,2890.529701,918.843878,-9686.145885
303.067068,3847.658741,459.421939,-9571.290400
303.069657,957.129040,593.420005,-9647.860723
303.072245,4307.080680,1148.554848,-9686.145885
303.074834,1818.545176,497.707101,-10030.712339
303.077423,-1378.265818,440.279358,-9934.999435
303.080011,-1780.260014,363.709035,-9686.145885
303.082600,-4019.941968,516.849682,-10068.997501
303.085188,-708.275490,382.851616,-10164.710405
303.087777,1416.550979,1320.838075,-9609.575562
303.090365,-650.847747,172.283227,-9992.427178
303.092954,1933.400661,1378.265818,-8709.874264
303.095542,2775.674216,612.562586,-9896.714274
303.098131,-497.707101,631.705166,-10145.567824
303.100719,-1167.697429,880.558717,-9647.860723
303.103308,-1320.838075,593.420005,-9858.429112
303.105896,-440.279358,937.986459,-9647.860723
303.108485,708.275490,478.564520,-9896.714274
303.111073,803.988394,899.701298,-9801.001370
303.113662,-133.998066,593.420005,-9839.286531
303.116250,248.853550,574.277424,-9667.003304
303.118839,-631.705166,1129.412267,-9494.720077
303.121428,-153.140646,363.709035,-10088.140082
303.124017,1263.410333,1301.695494,-9743.573627
303.126606,-2009.970984,631.705166,-9647.860723
303.129196,-3024.527766,-38.285162,-10030.712339
303.131785,-4230.510357,1320.838075,-9667.003304
303.134374,-497.707101,363.709035,-9934.999435
303.136963,-248.853550,535.992262,-10030.712339
303.139552,3503.092286,1052.841944,-9801.001370
303.142142,3981.656806,-76.570323,-9609.575562
303.144731,5206.781978,803.988394,-9360.722011
303.147320,2450.250342,1320.838075,-9724.431046
303.149909,-1512.263883,-459.421939,-10164.710405
303.152498,-2297.109696,2029.113565,-9284.151688
303.155088,-861.416136,497.707101,-9858.429112
303.157677,1703.689691,727.418070,-9858.429112
303.160266,3369.094221,918.843878,-9360.722011
303.162855,4287.938099,727.418070,-9705.288466
303.165444,976.271621,363.709035,-9647.860723
303.168034,-229.710970,1033.699363,-9552.147819
303.170623,1091.127106,631.705166,-9954.142016
303.173212,727.418070,574.277424,-9724.431046
303.175801,899.701298,823.130974,-9839.286531
303.178390,267.996131,650.847747,-9647.860723
303.180980,1033.699363,842.273555,-9647.860723
303.183569,708.275490,803.988394,-9934.999435
303.186158,2526.820666,899.701298,-9724.431046
303.188747,3560.520029,880.558717,-9552.147819
303.191336,3388.236802,803.988394,-9533.005238
303.193926,3254.238736,612.562586,-9590.432981
303.196515,2143.969050,1225.125171,-9724.431046
303.199104,2852.244539,133.998066,-9705.288466
303.201693,-4919.643266,957.129040,-9820.143950
303.204283,-3771.088418,995.414202,-9839.286531
303.206873,-995.414202,497.707101,-9781.858789
303.209463,-842.273555,995.414202,-10298.708470
303.212054,248.853550,823.130974,-9628.718142
303.214644,2622.533570,-38.285162,-9724.431046
303.217234,133.998066,995.414202,-9456.434915
303.219824,1646.261949,612.562586,-9628.718142
303.222414,-191.425808,899.701298,-10126.425243
303.225004,-2756.531635,784.845813,-9609.575562
303.227594,-1703.689691,842.273555,-9590.432981
303.230184,937.986459,612.562586,-9877.571693
303.232774,133.998066,746.560651,-9743.573627
303.235364,-57.427742,1033.699363,-9724.431046
303.237954,689.132909,459.421939,-9781.858789
303.240545,-612.562586,784.845813,-9475.577496
303.243135,-153.140646,1014.556782,-9686.145885
303.245725,1225.125171,555.134843,-9954.142016
303.248315,-1741.974853,593.420005,-9743.573627
303.250905,-1761.117434,1033.699363,-9762.716208
303.253495,-3617.947771,842.273555,-9801.001370
303.256085,-2737.389054,478.564520,-9934.999435
303.258675,-344.566454,478.564520,-9801.001370
303.261265,2947.957443,1646.261949,-9590.432981
303.263855,2967.100024,-57.427742,-9858.429112
303.266445,6412.764568,1186.840010,-9150.153622
303.269036,2871.387120,1301.695494,-9571.290400
303.271626,-574.277424,-516.849682,-10356.136213
303.274216,-1780.260014,1799.402595,-9303.294269
303.276806,-937.986459,95.712904,-10145.567824
303.279396,574.277424,899.701298,-9954.142016
303.281986,2967.100024,995.414202,-9494.720077
303.284576,3541.377448,784.845813,-9647.860723
303.287166,1493.121302,669.990328,-9647.860723
303.289756,612.562586,784.845813,-9743.573627
303.292346,191.425808,1033.699363,-9667.003304
303.294936,325.423874,631.705166,-9877.571693
303.297527,957.129040,899.701298,-9839.286531
303.300117,153.140646,1033.699363,-9513.862658
303.302707,535.992262,861.416136,-9647.860723
303.305297,1186.840010,382.851616,-10011.569758
303.307887,2431.107762,650.847747,-9839.286531
303.310477,3330.809059,784.845813,-9609.575562
303.313068,3120.240670,325.423874,-9762.716208
303.315658,3885.943902,708.275490,-9552.147819
303.318248,1703.689691,1282.552914,-9724.431046
303.320838,2813.959378,95.712904,-9877.571693
303.323429,-4804.787781,1320.838075,-9609.575562
303.326019,-3522.234867,918.843878,-9686.145885
303.328609,-1301.695494,306.281293,-9705.288466
303.331199,-497.707101,1205.982590,-10088.140082
303.333790,-535.992262,899.701298,-9667.003304
303.336380,3139.383251,210.568389,-9571.290400
303.338970,650.847747,593.420005,-9781.858789
303.341560,765.703232,669.990328,-9686.145885
303.344151,-153.140646,823.130974,-10164.710405
303.346741,-2431.107762,650.847747,-9820.143950
303.349331,-1493.121302,1091.127106,-9533.005238
303.351922,440.279358,344.566454,-9954.142016
303.354512,1129.412267,861.416136,-9686.145885
303.357102,-344.566454,995.414202,-9686.145885
303.359692,248.853550,440.279358,-9877.571693
303.362283,-287.138712,1033.699363,-9571.290400
303.364873,401.994197,516.849682,-9954.142016
303.367463,-210.568389,440.279358,-9954.142016
303.370053,-1531.406464,1665.404530,-9513.862658
303.372644,-3235.096155,-344.566454,-10030.712339
303.375234,-4268.795518,1741.974853,-9437.292334
303.377824,612.562586,306.281293,-10164.710405
303.380414,-114.855485,765.703232,-9705.288466
303.383005,2143.969050,803.988394,-9513.862658
303.385595,6010.770371,95.712904,-9724.431046
303.388185,3043.670347,746.560651,-9667.003304
303.390775,440.279358,344.566454,-9954.142016
303.393366,-1071.984525,1454.836141,-9552.147819
303.395956,-1588.834206,114.855485,-9896.714274
303.398546,-1091.127106,1244.267752,-9686.145885
303.401137,2603.390989,631.705166,-9973.284597
303.403727,3445.664544,153.140646,-9475.577496
303.406317,2947.957443,1301.695494,-9418.149754
303.408907,612.562586,153.140646,-9896.714274
303.411497,727.418070,899.701298,-9513.862658
303.414087,574.277424,842.273555,-9896.714274
303.416677,1052.841944,555.134843,-9954.142016
303.419267,114.855485,765.703232,-9647.860723
303.421857,1244.267752,306.281293,-9705.288466
303.424447,1129.412267,1014.556782,-9628.718142
303.427037,1684.547110,401.994197,-10107.282662
303.429627,3407.379382,593.420005,-9628.718142
303.432217,3503.092286,746.560651,-9552.147819
303.434807,2928.814862,172.283227,-9801.001370
303.437397,1914.258080,1416.550979,-9552.147819
303.439987,2622.533570,325.423874,-9839.286531
303.442577,-4421.936165,1091.127106,-9762.716208
303.445167,-3924.229064,1148.554848,-9590.432981
303.447757,-1741.974853,401.994197,-9590.432981
303.450347,-1263.410333,1167.697429,-10317.851051
303.452937,459.421939,421.136778,-9801.001370
303.455526,2392.822600,248.853550,-9590.432981
303.458116,57.427742,1052.841944,-9513.862658
303.460706,631.705166,382.851616,-9781.858789
303.463296,-114.855485,976.271621,-9877.571693
303.465886,-2143.969050,746.560651,-9781.858789
303.468476,-2048.256146,708.275490,-9686.145885
303.471066,1071.984525,689.132909,-9801.001370
303.473656,880.558717,976.271621,-9647.860723
303.476246,-1091.127106,650.847747,-9858.429112
303.478836,746.560651,803.988394,-9705.288466
303.481426,0.000000,918.843878,-9552.147819
303.484016,-344.566454,555.134843,-9896.714274
303.486606,-1225.125171,421.136778,-9839.286531
303.489196,-1320.838075,1320.838075,-9609.575562
303.491786,-3579.662610,-57.427742,-9973.284597
303.494376,-4364.508422,1244.267752,-9628.718142
303.496965,478.564520,325.423874,-10107.282662
303.499555,325.423874,1244.267752,-9667.003304
303.502145,1895.115499,478.564520,-9705.288466
303.504735,6872.186507,937.986459,-9475.577496
303.507325,3388.236802,689.132909,-9801.001370
303.509915,1263.410333,440.279358,-9973.284597
303.512505,-1339.980656,1837.687757,-9245.866526
303.515094,-1282.552914,-535.992262,-10164.710405
303.517683,-842.273555,1148.554848,-9820.143950
303.520272,2813.959378,823.130974,-9858.429112
303.522861,3675.375514,-76.570323,-9667.003304
303.525450,2373.680019,1473.978722,-9590.432981
303.528039,861.416136,-19.142581,-10049.854920
303.530628,-95.712904,1110.269686,-9456.434915
303.533217,-38.285162,899.701298,-9915.856854
303.535806,765.703232,440.279358,-9934.999435
303.538395,1818.545176,1339.980656,-9360.722011
303.540984,-19.142581,325.423874,-9820.143950
303.543573,1148.554848,976.271621,-9590.432981
303.546162,2852.244539,995.414202,-9896.714274
303.548751,3426.521963,535.992262,-9839.286531
303.551340,1627.119368,861.416136,-9533.005238
303.553929,4900.500685,287.138712,-9743.573627
303.556518,2316.252277,1244.267752,-9705.288466
303.559106,-2431.107762,459.421939,-10164.710405
303.561695,-1971.685822,497.707101,-9341.579430
303.564284,-5168.496816,995.414202,-9820.143950
303.566873,-1205.982590,-114.855485,-10145.567824
303.569462,1014.556782,1607.976787,-9647.860723
303.572051,-1225.125171,593.420005,-10011.569758
303.574640,2565.105827,861.416136,-9188.438784
303.577229,1512.263883,631.705166,-9896.714274
303.579818,-593.420005,497.707101,-9915.856854
303.582407,19.142581,918.843878,-9820.143950
303.584996,-516.849682,421.136778,-9954.142016
303.587585,-1244.267752,1014.556782,-9552.147819
303.590174,976.271621,593.420005,-9858.429112
303.592763,516.849682,708.275490,-9877.571693
303.595352,-248.853550,1205.982590,-9609.575562
303.597941,-114.855485,842.273555,-9743.573627
303.600530,57.427742,593.420005,-9743.573627
303.603119,459.421939,746.560651,-9801.001370
303.605708,-1282.552914,1244.267752,-9839.286531
303.608297,-3062.812928,57.427742,-9934.999435
303.610886,-4268.795518,1091.127106,-9590.432981
303.613475,229.710970,918.843878,-9877.571693
303.616064,-535.992262,267.996131,-10030.712339
303.618652,1990.828403,765.703232,-9571.290400
303.621240,5436.492947,325.423874,-9609.575562
303.623828,4287.938099,57.427742,-9781.858789
303.626417,2048.256146,995.414202,-9839.286531
303.629005,-689.132909,669.990328,-9724.431046
303.631593,-2163.111630,1435.693560,-9456.434915
303.634181,-1186.840010,937.986459,-9762.716208
303.636770,2143.969050,784.845813,-9877.571693
303.639358,3330.809059,440.279358,-9571.290400
303.641946,4268.795518,937.986459,-9533.005238
303.644534,-382.851616,382.851616,-9743.573627
303.647122,114.855485,861.416136,-9628.718142
303.649711,995.414202,727.418070,-9915.856854
303.652299,593.420005,401.994197,-9915.856854
303.654887,669.990328,1052.841944,-9743.573627
303.657475,1225.125171,650.847747,-9647.860723
303.660064,1473.978722,1129.412267,-9418.149754
303.662652,2163.111630,1148.554848,-9801.001370
303.665240,3560.520029,172.283227,-10068.997501
303.667828,1263.410333,1244.267752,-9379.864592
303.670416,4919.643266,574.277424,-9667.003304
303.673005,2928.814862,765.703232,-9877.571693
303.675593,-210.568389,593.420005,-10107.282662
303.678181,-2871.387120,497.707101,-9494.720077
303.680769,-5149.354235,1569.691626,-9686.145885
303.683358,-1301.695494,-172.283227,-10145.567824
303.685946,1186.840010,1780.260014,-9379.864592
303.688534,-918.843878,555.134843,-10049.854920
303.691122,2316.252277,1129.412267,-9035.298138
303.693710,1837.687757,861.416136,-9839.286531
303.696299,-861.416136,555.134843,-10107.282662
303.698887,-229.710970,880.558717,-9743.573627
303.701475,-2335.394858,325.423874,-9992.427178
303.704063,-937.986459,918.843878,-9533.005238
303.706652,2297.109696,459.421939,-9781.858789
303.709240,57.427742,555.134843,-9858.429112
303.711828,-229.710970,957.129040,-9571.290400
303.714416,-516.849682,689.132909,-9839.286531
303.717005,669.990328,784.845813,-9781.858789
303.719593,-746.560651,535.992262,-9781.858789
303.722180,-1722.832272,1320.838075,-9877.571693
303.724768,-3254.238736,497.707101,-9628.718142
303.727356,-4287.938099,1014.556782,-9667.003304
303.729944,153.140646,976.271621,-9743.573627
303.732531,1588.834206,1512.263883,-9571.290400
303.735119,2124.826469,440.279358,-9647.860723
303.737707,6833.901346,1588.834206,-9265.009107
303.740295,3464.807125,708.275490,-9877.571693
303.742882,325.423874,114.855485,-10030.712339
303.745470,-1129.412267,1761.117434,-9399.007173
303.748058,-1263.410333,-555.134843,-10241.280728
303.750646,-1052.841944,1186.840010,-9628.718142
303.753233,2718.246474,784.845813,-9915.856854
303.755821,3905.086483,133.998066,-9743.573627
303.758409,2029.113565,1493.121302,-9322.436850
303.760996,19.142581,325.423874,-10068.997501
303.763584,-248.853550,880.558717,-9628.718142
303.766172,516.849682,1071.984525,-9705.288466
303.768760,1473.978722,287.138712,-9992.427178
303.771347,555.134843,1741.974853,-9513.862658
303.773935,1071.984525,-191.425808,-9762.716208
303.776523,1550.549045,1263.410333,-9418.149754
303.779111,3158.525832,746.560651,-9934.999435
303.781698,2354.537438,478.564520,-9839.286531
303.784286,4096.512291,746.560651,-9245.866526
303.786874,2411.965181,727.418070,-9762.716208
303.789462,3062.812928,535.992262,-9896.714274
303.792049,-4249.652938,1052.841944,-9820.143950
303.794637,-4900.500685,1512.263883,-9762.716208
303.797225,-1091.127106,95.712904,-9724.431046
303.799812,-344.566454,1186.840010,-9954.142016
303.802400,-727.418070,937.986459,-9839.286531
303.804988,2813.959378,19.142581,-9533.005238
303.807576,516.849682,861.416136,-9858.429112
303.810163,421.136778,535.992262,-9743.573627
303.812751,-401.994197,957.129040,-9992.427178
303.815339,-1588.834206,650.847747,-9858.429112
303.817927,-976.271621,880.558717,-9379.864592
303.820514,1282.552914,555.134843,-9934.999435
303.823102,-880.558717,516.849682,-9839.286531
303.825689,765.703232,1091.127106,-9456.434915
303.828275,-593.420005,689.132909,-9839.286531
303.830862,306.281293,803.988394,-9647.860723
303.833448,-191.425808,306.281293,-9820.143950
303.836035,-1799.402595,1397.408398,-9820.143950
303.838621,-3369.094221,612.562586,-9839.286531
303.841208,-3847.658741,842.273555,-9667.003304
303.843794,-459.421939,535.992262,-9896.714274
303.846381,976.271621,1646.261949,-9609.575562
303.848968,2182.254211,38.285162,-9705.288466
303.851554,6738.188442,1703.689691,-9092.725880
303.854141,3215.953574,612.562586,-9781.858789
303.856727,765.703232,76.570323,-10011.569758
303.859314,-1148.554848,1818.545176,-9399.007173
303.861900,-1320.838075,-248.853550,-10279.565890
303.864487,-1110.269686,937.986459,-9705.288466
303.867073,2909.672282,1167.697429,-9705.288466
303.869660,4307.080680,-325.423874,-9801.001370
303.872247,1703.689691,1359.123237,-9437.292334
303.874833,-114.855485,516.849682,-10088.140082
303.877420,191.425808,918.843878,-9686.145885
303.880006,363.709035,880.558717,-9762.716208
303.882593,1339.980656,325.423874,-9934.999435
303.885179,784.845813,1416.550979,-9667.003304
303.887766,1359.123237,172.283227,-9705.288466
303.890352,1933.400661,1129.412267,-9418.149754
303.892939,2928.814862,708.275490,-9973.284597
303.895525,1052.841944,669.990328,-9992.427178
303.898112,4709.074877,823.130974,-9475.577496
303.900699,2890.529701,669.990328,-9858.429112
303.903285,516.849682,574.277424,-10068.997501
303.905872,-2584.248408,555.134843,-9628.718142
303.908458,-4728.217458,1359.123237,-9667.003304
303.911045,-1301.695494,401.994197,-9762.716208
303.913631,-153.140646,937.986459,-10030.712339
303.916218,-1320.838075,861.416136,-9877.571693
303.918804,1971.685822,765.703232,-9226.723946
303.921391,1052.841944,669.990328,-10011.569758
303.923978,-976.271621,612.562586,-9992.427178
303.926564,-210.568389,1014.556782,-9647.860723
303.929150,-421.136778,459.421939,-10030.712339
303.931735,-1761.117434,918.843878,-9513.862658
303.934321,1320.838075,823.130974,-9801.001370
303.936907,1033.699363,612.562586,-9781.858789
303.939492,-765.703232,746.560651,-9590.432981
303.942078,-555.134843,708.275490,-9839.286531
303.944664,823.130974,669.990328,-9858.429112
303.947249,-1186.840010,1071.984525,-9877.571693
303.949835,-2852.244539,325.423874,-10030.712339
303.952420,-3694.518094,1339.980656,-9724.431046
303.955006,-1493.121302,114.855485,-10011.569758
303.957592,-1550.549045,497.707101,-9896.714274
303.960177,2258.824534,1378.265818,-9801.001370
303.962763,3579.662610,-248.853550,-9705.288466
303.965349,5800.201982,1110.269686,-9131.011042
303.967934,2660.818731,1282.552914,-9628.718142
303.970520,-574.277424,57.427742,-10030.712339
303.973106,-2431.107762,1607.976787,-9437.292334
303.975691,-1091.127106,574.277424,-9954.142016
303.978277,918.843878,727.418070,-10049.854920
303.980862,2909.672282,1378.265818,-9284.151688
303.983448,4460.221326,440.279358,-9552.147819
303.986034,401.994197,937.986459,-9628.718142
303.988619,-210.568389,555.134843,-9992.427178
303.991205,1244.267752,1052.841944,-9781.858789
303.993791,880.558717,593.420005,-9877.571693
303.996376,593.420005,689.132909,-9858.429112
303.998962,1703.689691,937.986459,-9494.720077
304.001548,1454.836141,421.136778,-9839.286531
304.004133,2813.959378,899.701298,-9801.001370
304.006719,2737.389054,650.847747,-9801.001370
304.009305,3273.381317,306.281293,-9820.143950
304.011890,3292.523898,1205.982590,-9360.722011
304.014476,3637.090352,248.853550,-9934.999435
304.017061,-3598.805190,1148.554848,-9743.573627
304.019647,-4153.940034,1033.699363,-9820.143950
304.022233,-1320.838075,478.564520,-9667.003304
304.024818,-1378.265818,1205.982590,-10088.140082
304.027404,-57.427742,363.709035,-9743.573627
304.029990,1761.117434,459.421939,-9513.862658
304.032574,-382.851616,1244.267752,-9743.573627
304.035159,1454.836141,267.996131,-9667.003304
304.037744,-133.998066,976.271621,-10068.997501
304.040329,-2239.681954,612.562586,-9801.001370
304.042914,-1301.695494,937.986459,-9628.718142
304.045498,2239.681954,727.418070,-9954.142016
304.048083,-497.707101,823.130974,-9647.860723
304.050668,440.279358,899.701298,-9724.431046
304.053253,-229.710970,689.132909,-9820.143950
304.055838,-114.855485,650.847747,-9628.718142
304.058422,-612.562586,1225.125171,-9781.858789
304.061007,-1837.687757,133.998066,-10183.852986
304.063592,-3790.230998,1435.693560,-9437.292334
304.066177,-708.275490,574.277424,-9858.429112
304.068762,-1512.263883,-57.427742,-10107.282662
304.071346,1588.834206,1129.412267,-9590.432981
304.073931,4039.084549,-76.570323,-9762.716208
304.076516,5493.920690,382.851616,-9552.147819
304.079101,2986.242605,1205.982590,-9533.005238
304.081685,-76.570323,-267.996131,-10088.140082
304.084270,-1952.543242,1818.545176,-9360.722011
304.086855,-1148.554848,-153.140646,-10222.138147
304.089440,459.421939,1129.412267,-9858.429112
304.092025,2909.672282,1091.127106,-9360.722011
304.094609,4019.941968,421.136778,-9609.575562
304.097194,555.134843,995.414202,-9513.862658
304.099779,-172.283227,478.564520,-10049.854920
304.102364,880.558717,631.705166,-9781.858789
304.104949,535.992262,880.558717,-9475.577496
304.107533,1110.269686,344.566454,-10068.997501
304.110118,1722.832272,918.843878,-9533.005238
304.112703,1741.974853,497.707101,-9647.860723
304.115288,3081.955509,842.273555,-9858.429112
304.117873,899.701298,746.560651,-9877.571693
304.120457,4249.652938,421.136778,-9609.575562
304.123042,3005.385186,1167.697429,-9628.718142
304.125627,1071.984525,172.283227,-10049.854920
304.128212,-2756.531635,823.130974,-9475.577496
304.130797,-3924.229064,1531.406464,-9801.001370
304.133381,-1052.841944,0.000000,-9781.858789
304.135943,-957.129040,1282.552914,-9992.427178
304.138505,-1684.547110,574.277424,-9992.427178
304.141066,1722.832272,689.132909,-9150.153622
304.143628,784.845813,765.703232,-10145.567824
304.146190,-287.138712,574.277424,-9954.142016
304.148752,1148.554848,899.701298,-9647.860723
304.151313,-1703.689691,287.138712,-9896.714274
304.153875,-1033.699363,1167.697429,-9418.149754
304.156437,1799.402595,689.132909,-9954.142016
304.158998,-191.425808,535.992262,-9896.714274
304.161560,0.000000,995.414202,-9628.718142
304.164122,1531.406464,784.845813,-9705.288466
304.166684,-1416.550979,516.849682,-9801.001370
304.169245,-2163.111630,689.132909,-9915.856854
304.171807,-2450.250342,937.986459,-9877.571693
304.174369,-3675.375514,669.990328,-9839.286531
304.176930,-287.138712,555.134843,-9781.858789
304.179492,-344.566454,1416.550979,-9494.720077
304.182054,1397.408398,267.996131,-9954.142016
304.184615,5819.344563,1244.267752,-9399.007173
304.187177,3828.516160,191.425808,-9724.431046
304.189739,957.129040,95.712904,-10068.997501
304.192301,-861.416136,1569.691626,-9418.149754
304.194862,-1091.127106,-287.138712,-10107.282662
304.197424,-823.130974,1186.840010,-9743.573627
304.199986,1875.972918,363.709035,-10068.997501
304.202547,3790.230998,210.568389,-9609.575562
304.205109,1990.828403,1225.125171,-9475.577496
304.207671,325.423874,516.849682,-9954.142016
304.210233,38.285162,1052.841944,-9647.860723
304.212794,459.421939,957.129040,-9839.286531
304.215356,1205.982590,459.421939,-9820.143950
304.217918,1263.410333,1052.841944,-9456.434915
304.220479,1971.685822,555.134843,-9647.860723
304.223041,3273.381317,803.988394,-9647.860723
304.225603,1225.125171,784.845813,-9896.714274
304.228164,4058.227130,440.279358,-9590.432981
304.230726,2660.818731,1052.841944,-9590.432981
304.233288,2354.537438,57.427742,-9915.856854
304.235850,-3541.377448,1225.125171,-9533.005238
304.238414,-3675.375514,1129.412267,-10049.854920
304.240977,-1244.267752,325.423874,-9724.431046
304.243541,-1473.978722,1205.982590,-9992.427178
304.246105,-267.996131,497.707101,-9686.145885
304.248669,1091.127106,95.712904,-9590.432981
304.251233,-95.712904,1091.127106,-9915.856854
304.253797,363.709035,459.421939,-9973.284597
304.256361,459.421939,880.558717,-9915.856854
304.258925,-516.849682,440.279358,-9839.286531
304.261489,-478.564520,861.416136,-9513.862658
304.264053,382.851616,363.709035,-10145.567824
304.266617,267.996131,650.847747,-9686.145885
304.269181,516.849682,976.271621,-9647.860723
304.271745,401.994197,344.566454,-9915.856854
304.274309,-1493.121302,1244.267752,-9475.577496
304.276873,-1761.117434,421.136778,-10107.282662
304.279437,-2890.529701,976.271621,-10011.569758
304.282001,-3330.809059,823.130974,-9743.573627
304.284565,-842.273555,153.140646,-9781.858789
304.287128,95.712904,1780.260014,-9418.149754
304.289692,1244.267752,38.285162,-9915.856854
304.292256,6240.481341,1741.974853,-9284.151688
304.294820,3503.092286,516.849682,-9858.429112
304.297384,1569.691626,229.710970,-9820.143950
304.299948,-1110.269686,1837.687757,-9265.009107
304.302512,-937.986459,-650.847747,-10375.278794
304.305076,-459.421939,1225.125171,-9820.143950
304.307640,1952.543242,650.847747,-9877.571693
304.310204,3560.520029,172.283227,-9609.575562
304.312768,2297.109696,1205.982590,-9475.577496
304.315332,421.136778,172.283227,-9992.427178
304.317896,287.138712,1263.410333,-9571.290400
304.320460,1129.412267,574.277424,-10030.712339
304.323024,1205.982590,612.562586,-9628.718142
304.325588,1301.695494,1186.840010,-9360.722011
304.328152,2488.535504,210.568389,-9839.286531
304.330716,3445.664544,1129.412267,-9571.290400
304.333279,459.421939,574.277424,-10049.854920
304.335843,4364.508422,784.845813,-9724.431046
304.338407,3043.670347,784.845813,-9667.003304
304.340973,1052.841944,133.998066,-9992.427178
304.343539,-2718.246474,1091.127106,-9513.862658
304.346105,-3962.514226,937.986459,-10068.997501
304.348670,-1148.554848,516.849682,-9858.429112
304.351236,287.138712,1205.982590,-9705.288466
304.353802,-1837.687757,421.136778,-10107.282662
304.356368,1320.838075,727.418070,-9073.583299
304.358933,344.566454,899.701298,-10107.282662
304.361499,19.142581,593.420005,-10145.567824
304.364065,631.705166,861.416136,-9686.145885
304.366631,-765.703232,574.277424,-9724.431046
304.369196,-535.992262,899.701298,-9533.005238
304.371762,1148.554848,459.421939,-9954.142016
304.374328,631.705166,708.275490,-9877.571693
304.376894,-459.421939,497.707101,-9781.858789
304.379459,-57.427742,19.142581,-9705.288466
304.382025,-593.420005,1627.119368,-9533.005238
304.384591,-2679.961312,0.000000,-10222.138147
304.387157,-3196.810994,1282.552914,-9762.716208
304.389722,-823.130974,689.132909,-10068.997501
304.392288,-2507.678085,-19.142581,-10011.569758
304.394854,957.129040,1531.406464,-9418.149754
304.397420,4287.938099,306.281293,-9686.145885
304.399985,4823.930362,172.283227,-9686.145885
304.402551,3120.240670,1244.267752,-9628.718142
304.405117,229.710970,153.140646,-9858.429112
304.407683,-1741.974853,1607.976787,-9418.149754
304.410248,-535.992262,382.851616,-10126.425243
304.412814,650.847747,1014.556782,-9934.999435
304.415380,2029.113565,1167.697429,-9456.434915
304.417946,3751.945837,153.140646,-9724.431046
304.420511,784.845813,1110.269686,-9494.720077
304.423077,-57.427742,765.703232,-9781.858789
304.425643,1818.545176,937.986459,-9992.427178
304.428209,114.855485,535.992262,-9724.431046
304.430774,784.845813,555.134843,-9762.716208
304.433340,2373.680019,784.845813,-9571.290400
304.435906,2909.672282,440.279358,-9934.999435
304.438472,2450.250342,899.701298,-9743.573627
304.441037,3349.951640,363.709035,-9858.429112
304.443600,2392.822600,1129.412267,-9571.290400
304.446167,2354.537438,401.994197,-9743.573627
304.448734,-3292.523898,1071.984525,-9590.432981
304.451301,-3579.662610,1091.127106,-9858.429112
304.453868,-1091.127106,421.136778,-9705.288466
304.456434,-1416.550979,1205.982590,-10164.710405
304.459001,-440.279358,382.851616,-9628.718142
304.461568,248.853550,172.283227,-9647.860723
304.464135,-497.707101,1282.552914,-9667.003304
304.466702,1225.125171,287.138712,-9915.856854
304.469269,861.416136,1167.697429,-9820.143950
304.471836,-1033.699363,669.990328,-9590.432981
304.474403,-937.986459,555.134843,-9609.575562
304.476970,1186.840010,803.988394,-9839.286531
304.479537,325.423874,765.703232,-9839.286531
304.482104,-210.568389,746.560651,-9877.571693
304.484671,459.421939,631.705166,-9628.718142
304.487238,-1110.269686,976.271621,-9494.720077
304.489805,-2450.250342,382.851616,-9915.856854
304.492372,-2947.957443,1091.127106,-9877.571693
304.494939,-114.855485,1033.699363,-9877.571693
304.497506,-2239.681954,0.000000,-9896.714274
304.500073,957.129040,1091.127106,-9475.577496
304.502640,3062.812928,-114.855485,-9762.716208
304.505207,5321.637462,765.703232,-9609.575562
304.507774,3292.523898,1148.554848,-9686.145885
304.510341,382.851616,-210.568389,-9992.427178
304.512908,-1454.836141,1741.974853,-9207.581365
304.515475,-555.134843,-287.138712,-10202.995566
304.518042,612.562586,1167.697429,-9954.142016
304.520609,2105.683888,1186.840010,-9303.294269
304.523176,3349.951640,306.281293,-9724.431046
304.525744,612.562586,842.273555,-9494.720077
304.528312,229.710970,631.705166,-9801.001370
304.530881,1148.554848,803.988394,-9877.571693
304.533449,421.136778,861.416136,-9667.003304
304.536017,880.558717,746.560651,-9743.573627
304.538586,2316.252277,823.130974,-9494.720077
304.541154,2928.814862,478.564520,-9839.286531
304.543722,765.703232,918.843878,-9839.286531
304.546291,4441.078746,555.134843,-9686.145885
304.548859,2967.100024,880.558717,-9705.288466
304.551427,1703.689691,248.853550,-9743.573627
304.553996,-2967.100024,803.988394,-9513.862658
304.556564,-3847.658741,1320.838075,-9934.999435
304.559132,-995.414202,210.568389,-9839.286531
304.561701,-1071.984525,1378.265818,-9992.427178
304.564269,-593.420005,478.564520,-9667.003304
304.566837,746.560651,191.425808,-9188.438784
304.569406,-344.566454,1148.554848,-9896.714274
304.571974,-229.710970,306.281293,-10126.425243
304.574542,1627.119368,1091.127106,-9820.143950
304.577111,-957.129040,574.277424,-9590.432981
304.579679,-918.843878,574.277424,-9609.575562
304.582247,325.423874,880.558717,-9934.999435
304.584816,133.998066,880.558717,-9743.573627
304.587384,880.558717,1339.980656,-9915.856854
304.589952,-459.421939,-38.285162,-9896.714274
304.592521,-1588.834206,765.703232,-9686.145885
304.595089,-2871.387120,727.418070,-9801.001370
304.597657,-3005.385186,574.277424,-10107.282662
304.600226,248.853550,1186.840010,-9839.286531
304.602794,-1741.974853,784.845813,-9667.003304
304.605363,784.845813,57.427742,-9762.716208
304.607931,4823.930362,1148.554848,-9379.864592
304.610499,4058.227130,-172.283227,-10279.565890
304.613068,2756.531635,1263.410333,-9647.860723
304.615636,248.853550,612.562586,-9628.718142
304.618204,-937.986459,-153.140646,-9896.714274
304.620773,-765.703232,1359.123237,-9667.003304
304.623341,1512.263883,344.566454,-10145.567824
304.625909,2450.250342,727.418070,-9533.005238
304.628479,2220.539373,1301.695494,-9456.434915
304.631048,880.558717,191.425808,-9801.001370
304.633618,-76.570323,1052.841944,-9667.003304
304.636187,727.418070,1014.556782,-9954.142016
304.638757,1205.982590,306.281293,-9667.003304
304.641326,1359.123237,1033.699363,-9341.579430
304.643896,2871.387120,459.421939,-9724.431046
304.646465,3388.236802,842.273555,-9590.432981
304.649035,2258.824534,382.851616,-9801.001370
304.651604,3330.809059,1301.695494,-9552.147819
304.654173,3962.514226,19.142581,-9686.145885
304.656743,-3656.232933,1091.127106,-9839.286531
304.659312,-3081.955509,1339.980656,-9552.147819
304.661882,-1837.687757,497.707101,-9896.714274
304.664451,-1837.687757,842.273555,-10375.278794
304.667021,229.710970,727.418070,-9379.864592
304.669590,-344.566454,172.283227,-9686.145885
304.672160,-708.275490,803.988394,-9647.860723
304.674729,1282.552914,765.703232,-9628.718142
304.677299,382.851616,765.703232,-10356.136213
304.679868,172.283227,574.277424,-9647.860723
304.682438,-248.853550,612.562586,-9360.722011
304.685007,19.142581,535.992262,-9915.856854
304.687577,612.562586,669.990328,-9781.858789
304.690146,1263.410333,937.986459,-9781.858789
304.692716,-995.414202,153.140646,-9992.427178
304.695285,-957.129040,842.273555,-9513.862658
304.697855,-2411.965181,478.564520,-9513.862658
304.700424,-3101.098090,803.988394,-9992.427178
304.702994,-19.142581,1205.982590,-9858.429112
304.705563,-1837.687757,784.845813,-9705.288466
304.708133,191.425808,325.423874,-9686.145885
304.710702,4689.932296,1052.841944,-9303.294269
304.713271,4536.791650,-229.710970,-10183.852986
304.715841,2718.246474,1359.123237,-9762.716208
304.718410,306.281293,842.273555,-9647.860723
304.720980,-1148.554848,765.703232,-9628.718142
304.723549,-574.277424,1052.841944,-9743.573627
304.726119,1569.691626,765.703232,-10011.569758
304.728688,2871.387120,497.707101,-9628.718142
304.731258,2507.678085,823.130974,-9456.434915
304.733828,-191.425808,287.138712,-9705.288466
304.736398,344.566454,784.845813,-9801.001370
304.738968,669.990328,918.843878,-9820.143950
304.741538,650.847747,918.843878,-9781.858789
304.744108,1320.838075,708.275490,-9858.429112
304.746678,2909.672282,727.418070,-9418.149754
304.749248,3158.525832,957.129040,-9456.434915
304.751818,3330.809059,114.855485,-10030.712339
304.754388,2699.103893,1301.695494,-9494.720077
304.756957,4173.082614,344.566454,-9667.003304
304.759527,-3579.662610,784.845813,-9839.286531
304.762097,-2813.959378,1225.125171,-9513.862658
304.764667,-2143.969050,612.562586,-9973.284597
304.767237,-1895.115499,957.129040,-10432.706536
304.769807,172.283227,708.275490,-9609.575562
304.772377,-593.420005,344.566454,-9686.145885
304.774947,-325.423874,937.986459,-9667.003304
304.777517,976.271621,382.851616,-9877.571693
304.780087,248.853550,976.271621,-10279.565890
304.782657,-344.566454,823.130974,-9609.575562
304.785227,421.136778,535.992262,-9533.005238
304.787797,191.425808,727.418070,-9839.286531
304.790367,612.562586,727.418070,-9781.858789
304.792936,823.130974,708.275490,-9973.284597
304.795506,-1454.836141,516.849682,-9801.001370
304.798076,-899.701298,669.990328,-9667.003304
304.800646,-2124.826469,1033.699363,-9743.573627
304.803216,-2890.529701,344.566454,-10145.567824
304.805786,-1014.556782,1167.697429,-9781.858789
304.808356,-1339.980656,1454.836141,-9686.145885
304.810926,-38.285162,-133.998066,-9877.571693
304.813496,5340.780043,1971.685822,-9054.440718
304.816066,4307.080680,0.000000,-10030.712339
304.818636,2737.389054,784.845813,-9915.856854
304.821206,440.279358,1473.978722,-9303.294269
304.823776,-708.275490,172.283227,-9877.571693
304.826345,-746.560651,1186.840010,-9743.573627
304.828915,1588.834206,478.564520,-9877.571693
304.831485,2813.959378,421.136778,-9839.286531
304.834056,1933.400661,918.843878,-9590.432981
304.836626,306.281293,478.564520,-9801.001370
304.839197,1301.695494,1110.269686,-9609.575562
304.841767,-57.427742,784.845813,-10049.854920
304.844338,1531.406464,593.420005,-9705.288466
304.846908,1914.258080,1033.699363,-9609.575562
304.849479,3139.383251,248.853550,-9781.858789
304.852049,708.275490,1129.412267,-9609.575562
304.854620,4536.791650,689.132909,-9992.427178
304.857191,4364.508422,880.558717,-9801.001370
304.859761,899.701298,363.709035,-9781.858789
304.862332,-1818.545176,421.136778,-9590.432981
304.864902,-4173.082614,1435.693560,-9801.001370
304.867473,-1665.404530,114.855485,-9954.142016
304.870043,-1282.552914,1148.554848,-9934.999435
304.872614,-1225.125171,880.558717,-9686.145885
304.875184,153.140646,210.568389,-9245.866526
304.877755,803.988394,1301.695494,-9724.431046
304.880325,440.279358,535.992262,-10164.710405
304.882896,650.847747,823.130974,-9877.571693
304.885466,95.712904,516.849682,-9705.288466
304.888037,-516.849682,880.558717,-9379.864592
304.890607,727.418070,267.996131,-10011.569758
304.893178,650.847747,784.845813,-9781.858789
304.895748,133.998066,555.134843,-9781.858789
304.898319,-555.134843,401.994197,-9973.284597
304.900889,-2603.390989,746.560651,-9475.577496
304.903460,-2890.529701,708.275490,-9934.999435
304.906030,76.570323,1091.127106,-10088.140082
304.908601,-2775.674216,555.134843,-9954.142016
304.911171,19.142581,650.847747,-9647.860723
304.913742,2986.242605,516.849682,-9513.862658
304.916312,5206.781978,210.568389,-9743.573627
304.918883,3713.660675,1225.125171,-9590.432981
304.921454,1052.841944,19.142581,-10030.712339
304.924024,-1014.556782,727.418070,-9724.431046
304.926595,-555.134843,918.843878,-9724.431046
304.929165,1052.841944,727.418070,-9973.284597
304.931736,1665.404530,937.986459,-9590.432981
304.934306,3062.812928,344.566454,-9686.145885
304.936877,957.129040,1014.556782,-9494.720077
304.939448,210.568389,421.136778,-9877.571693
304.942020,976.271621,459.421939,-9877.571693
304.944591,1091.127106,842.273555,-9513.862658
304.947162,1646.261949,689.132909,-9934.999435
304.949733,3024.527766,401.994197,-9628.718142
304.952304,1282.552914,1244.267752,-9609.575562
304.954875,3962.514226,325.423874,-9915.856854
304.957446,3215.953574,1129.412267,-9705.288466
304.960017,3177.668413,535.992262,-9820.143950
304.962589,-2622.533570,803.988394,-9609.575562
304.965160,-3311.666478,1282.552914,-9705.288466
304.967731,-1799.402595,631.705166,-9647.860723
304.970302,-2258.824534,976.271621,-10317.851051
304.972873,-1320.838075,555.134843,-9896.714274
304.975444,153.140646,287.138712,-9207.581365
304.978015,-57.427742,1052.841944,-9896.714274
304.980586,38.285162,440.279358,-9896.714274
304.983158,1914.258080,1110.269686,-10068.997501
304.985729,-344.566454,574.277424,-9781.858789
304.988300,-1091.127106,593.420005,-9552.147819
304.990871,995.414202,746.560651,-9781.858789
304.993442,880.558717,842.273555,-9762.716208
304.996013,-784.845813,382.851616,-9973.284597
304.998584,-555.134843,612.562586,-9743.573627
305.001155,-2277.967115,669.990328,-9475.577496
305.003727,-3024.527766,842.273555,-9839.286531
305.006298,-38.285162,1052.841944,-10183.852986
305.008869,-2565.105827,612.562586,-10030.712339
305.011440,-172.283227,727.418070,-9724.431046
305.014011,2947.957443,114.855485,-9647.860723
305.016582,5206.781978,344.566454,-9552.147819
305.019153,3732.803256,1205.982590,-9686.145885
305.021724,976.271621,765.703232,-9801.001370
305.024296,-727.418070,880.558717,-9609.575562
305.026867,-593.420005,1033.699363,-9839.286531
305.029438,689.132909,421.136778,-10107.282662
305.032009,1895.115499,1320.838075,-9418.149754
305.034580,2431.107762,650.847747,-9820.143950
305.037151,650.847747,823.130974,-9686.145885
305.039722,-267.996131,823.130974,-9686.145885
305.042293,1359.123237,689.132909,-9877.571693
305.044864,1167.697429,669.990328,-9705.288466
305.047435,1799.402595,899.701298,-9705.288466
305.050006,3503.092286,401.994197,-9801.001370
305.052577,650.847747,1301.695494,-9686.145885
305.055148,4249.652938,650.847747,-9801.001370
305.057719,4096.512291,937.986459,-9705.288466
305.060290,-1569.691626,650.847747,-9820.143950
305.062862,-1071.984525,-76.570323,-9590.432981
305.065433,-4326.223261,1186.840010,-9781.858789
305.068004,-2143.969050,19.142581,-10298.708470
305.070575,-937.986459,1052.841944,-9820.143950
305.073146,-1205.982590,880.558717,-9954.142016
305.075717,-306.281293,344.566454,-9207.581365
305.078288,516.849682,1129.412267,-9954.142016
305.080859,-172.283227,555.134843,-9992.427178
305.083430,1263.410333,1052.841944,-9494.720077
305.086001,-57.427742,344.566454,-9839.286531
305.088572,-1397.408398,784.845813,-9494.720077
305.091143,1799.402595,727.418070,-9628.718142
305.093714,880.558717,306.281293,-10183.852986
305.096285,-1627.119368,1091.127106,-9743.573627
305.098856,-555.134843,0.000000,-9896.714274
305.101427,-2565.105827,803.988394,-9705.288466
305.103998,-2756.531635,497.707101,-10030.712339
305.106569,-516.849682,421.136778,-9992.427178
305.109140,-708.275490,2105.683888,-9647.860723
305.111711,669.990328,-421.136778,-9858.429112
305.114282,5551.348432,1895.115499,-9131.011042
305.116853,4326.223261,440.279358,-9839.286531
305.119424,2277.967115,-153.140646,-10088.140082
305.121995,459.421939,1646.261949,-9265.009107
305.124566,-344.566454,-363.709035,-10145.567824
305.127137,-535.992262,1129.412267,-9724.431046
305.129708,1263.410333,574.277424,-9934.999435
305.132279,2450.250342,38.285162,-9915.856854
305.134850,995.414202,1148.554848,-9475.577496
305.137421,593.420005,363.709035,-10011.569758
305.139992,267.996131,803.988394,-9647.860723
305.142563,574.277424,842.273555,-9724.431046
305.145135,1684.547110,401.994197,-9954.142016
305.147706,2354.537438,1378.265818,-9245.866526
305.150277,2450.250342,382.851616,-9877.571693
305.152848,3369.094221,727.418070,-9647.860723
305.155419,2813.959378,1263.410333,-9705.288466
305.157990,3292.523898,229.710970,-9934.999435
305.160561,-2124.826469,803.988394,-9418.149754
305.163132,-3369.094221,1225.125171,-9762.716208
305.165703,-1703.689691,708.275490,-9628.718142
305.168274,-2871.387120,899.701298,-10356.136213
305.170845,-899.701298,669.990328,-9609.575562
305.173417,57.427742,727.418070,-9399.007173
305.175988,38.285162,172.283227,-9877.571693
305.178559,1186.840010,861.416136,-9590.432981
305.181130,478.564520,574.277424,-10298.708470
305.183701,-478.564520,382.851616,-9820.143950
305.186272,-19.142581,746.560651,-9456.434915
305.188843,612.562586,899.701298,-9781.858789
305.191414,382.851616,918.843878,-9877.571693
305.193985,57.427742,880.558717,-9820.143950
305.196556,-555.134843,421.136778,-9954.142016
305.199128,-2641.676150,861.416136,-9494.720077
305.201699,-2545.963246,401.994197,-9781.858789
305.204270,497.707101,899.701298,-10107.282662
305.206841,-2354.537438,1780.260014,-9724.431046
305.209412,-459.421939,-95.712904,-10049.854920
305.211983,4938.785846,1722.832272,-9131.011042
305.214554,4019.941968,133.998066,-9858.429112
305.217125,3196.810994,612.562586,-9839.286531
305.219696,1473.978722,1435.693560,-9379.864592
305.222267,-172.283227,478.564520,-9839.286531
305.224838,-574.277424,1110.269686,-9686.145885
305.227410,995.414202,287.138712,-9934.999435
305.229981,2622.533570,440.279358,-9762.716208
305.232552,1780.260014,1167.697429,-9513.862658
305.235123,210.568389,191.425808,-10068.997501
305.237694,440.279358,1225.125171,-9647.860723
305.240265,746.560651,708.275490,-9839.286531
305.242836,1148.554848,459.421939,-9724.431046
305.245407,2086.541307,1435.693560,-9494.720077
305.247978,2813.959378,0.000000,-9820.143950
305.250548,2871.387120,803.988394,-9533.005238
305.253119,3120.240670,1244.267752,-9667.003304
305.255690,3790.230998,133.998066,-9896.714274
305.258261,-2392.822600,957.129040,-9533.005238
305.260831,-3215.953574,1014.556782,-9801.001370
305.263402,-1895.115499,746.560651,-9647.860723
305.265973,-3081.955509,1014.556782,-10413.563955
305.268544,-957.129040,555.134843,-9590.432981
305.271114,-153.140646,918.843878,-9437.292334
305.273685,210.568389,287.138712,-9801.001370
305.276256,1186.840010,784.845813,-9571.290400
305.278827,574.277424,765.703232,-10068.997501
305.281397,114.855485,497.707101,-9858.429112
305.283968,0.000000,746.560651,-9552.147819
305.286539,516.849682,574.277424,-9877.571693
305.289110,38.285162,631.705166,-9896.714274
305.291680,172.283227,918.843878,-9896.714274
305.294251,-669.990328,229.710970,-9839.286531
305.296822,-2986.242605,976.271621,-9494.720077
305.299392,-2297.109696,114.855485,-9858.429112
305.301963,-19.142581,555.134843,-10011.569758
305.304534,-1684.547110,2239.681954,-9609.575562
305.307105,-133.998066,-306.281293,-10107.282662
305.309675,5225.924558,1875.972918,-9188.438784
305.312246,4039.084549,440.279358,-9762.716208
305.314817,3081.955509,287.138712,-10068.997501
305.317388,976.271621,1569.691626,-9284.151688
305.319958,172.283227,-248.853550,-9896.714274
305.322529,-803.988394,1320.838075,-9762.716208
305.325100,1186.840010,172.283227,-9877.571693
305.327671,2622.533570,440.279358,-9820.143950
305.330241,1244.267752,1378.265818,-9399.007173
305.332812,172.283227,191.425808,-10068.997501
305.335383,727.418070,1091.127106,-9647.860723
305.337954,1263.410333,669.990328,-9839.286531
305.340524,1531.406464,497.707101,-9667.003304
305.343095,2699.103893,976.271621,-9609.575562
305.345666,1205.982590,421.136778,-9954.142016
305.348236,4192.225195,689.132909,-9513.862658
305.350807,3732.803256,593.420005,-9992.427178
305.353378,1167.697429,631.705166,-9954.142016
305.355949,-1052.841944,287.138712,-9456.434915
305.358519,-4153.940034,1129.412267,-9858.429112
305.361090,-2316.252277,497.707101,-9820.143950
305.363661,-1952.543242,937.986459,-10088.140082
305.366231,-1531.406464,459.421939,-9877.571693
305.368802,133.998066,727.418070,-9073.583299
305.371373,823.130974,727.418070,-9915.856854
305.373943,535.992262,363.709035,-9877.571693
305.376514,555.134843,1129.412267,-9705.288466
305.379085,19.142581,421.136778,-9992.427178
305.381655,-823.130974,899.701298,-9379.864592
305.384226,1033.699363,899.701298,-9724.431046
305.386797,-19.142581,555.134843,-9896.714274
305.389368,-440.279358,1091.127106,-9839.286531
305.391938,-1416.550979,593.420005,-9628.718142
305.394509,-2699.103893,918.843878,-9552.147819
305.397080,-1435.693560,574.277424,-9877.571693
305.399650,-2335.394858,153.140646,-9973.284597
305.402221,-555.134843,746.560651,-9992.427178
305.404792,2431.107762,478.564520,-9571.290400
305.407362,4919.643266,229.710970,-9628.718142
305.409933,3885.943902,1263.410333,-9552.147819
305.412504,1875.972918,95.712904,-9992.427178
305.415074,-38.285162,1282.552914,-9475.577496
305.417645,0.000000,650.847747,-9934.999435
305.420216,669.990328,765.703232,-10011.569758
305.422787,1014.556782,1071.984525,-9571.290400
305.425357,2545.963246,516.849682,-9724.431046
305.427928,1473.978722,669.990328,-9801.001370
305.430499,-210.568389,746.560651,-9915.856854
305.433069,899.701298,708.275490,-9801.001370
305.435640,1493.121302,861.416136,-9552.147819
305.438211,2124.826469,459.421939,-9877.571693
305.440781,2699.103893,861.416136,-9571.290400
305.443352,2909.672282,497.707101,-9781.858789
305.445923,2775.674216,1129.412267,-9705.288466
305.448493,5685.346498,344.566454,-9533.005238
305.471629,1761.117434,937.986459,-10011.569758
305.474200,172.283227,574.277424,-9724.431046
305.476770,-1397.408398,516.849682,-9781.858789
305.479341,1071.984525,880.558717,-9667.003304
305.481911,497.707101,535.992262,-9781.858789
305.484482,-784.845813,1033.699363,-10088.140082
305.487052,-918.843878,593.420005,-9705.288466
305.489623,-2660.818731,421.136778,-9552.147819
305.492193,-803.988394,899.701298,-9781.858789
305.494764,-2967.100024,153.140646,-10241.280728
305.497334,-248.853550,1205.982590,-9915.856854
305.499905,1282.552914,478.564520,-9609.575562
305.502475,5168.496816,478.564520,-9609.575562
305.505046,4173.082614,918.843878,-9513.862658
305.507616,2048.256146,-57.427742,-10145.567824
305.510187,229.710970,1493.121302,-9456.434915
305.512757,133.998066,918.843878,-9762.716208
305.515328,382.851616,727.418070,-10030.712339
305.517898,1263.410333,1033.699363,-9494.720077
305.520469,2603.390989,382.851616,-9705.288466
305.523039,-267.996131,1052.841944,-9571.290400
305.525610,1703.689691,574.277424,-10030.712339
305.528180,535.992262,421.136778,-9858.429112
305.530751,899.701298,899.701298,-9475.577496
305.533321,2297.109696,478.564520,-9705.288466
305.535892,2545.963246,325.423874,-9820.143950
305.538462,3751.945837,650.847747,-9647.860723
305.541033,3560.520029,1014.556782,-9839.286531
305.543603,4498.506488,-57.427742,-9973.284597
305.546174,-2067.398726,1244.267752,-9303.294269
305.548744,-2967.100024,976.271621,-9839.286531
305.551315,-2526.820666,382.851616,-9801.001370
305.553885,-3617.947771,1167.697429,-10202.995566
305.556455,-803.988394,555.134843,-9647.860723
305.559025,478.564520,593.420005,-9571.290400
305.561595,555.134843,459.421939,-9781.858789
305.564165,-325.423874,842.273555,-9724.431046
305.566734,1263.410333,593.420005,-10298.708470
305.569304,478.564520,784.845813,-9743.573627
305.571874,-650.847747,689.132909,-9513.862658
305.574444,1512.263883,574.277424,-9820.143950
305.577014,-382.851616,497.707101,-9705.288466
305.579584,-861.416136,803.988394,-9858.429112
305.582154,-803.988394,918.843878,-9839.286531
305.584724,-2737.389054,57.427742,-9877.571693
305.587294,-382.851616,1129.412267,-9552.147819
305.589864,-3407.379382,880.558717,-10049.854920
305.592434,-861.416136,306.281293,-10126.425243
305.595004,2220.539373,1167.697429,-9360.722011
305.597574,4957.928427,-19.142581,-9858.429112
305.600144,4153.940034,1110.269686,-9418.149754
305.602714,2431.107762,440.279358,-9705.288466
305.605284,325.423874,1071.984525,-9647.860723
305.607854,-248.853550,746.560651,-9896.714274
305.610424,-229.710970,593.420005,-9954.142016
305.612994,1741.974853,1110.269686,-9379.864592
305.615564,2239.681954,421.136778,-9743.573627
305.618134,153.140646,516.849682,-9839.286531
305.620704,401.994197,957.129040,-9724.431046
305.623273,957.129040,287.138712,-10068.997501
305.625843,1014.556782,880.558717,-9590.432981
305.628413,2316.252277,784.845813,-9571.290400
305.630983,1244.267752,650.847747,-9801.001370
305.633553,4115.654872,708.275490,-9705.288466
305.636123,5283.352301,612.562586,-9705.288466
305.638693,1205.982590,574.277424,-9839.286531
305.641263,-344.566454,325.423874,-9399.007173
305.643833,-4517.649069,784.845813,-9820.143950
305.646403,-2775.674216,382.851616,-9858.429112
305.648973,-2699.103893,1205.982590,-10030.712339
305.651543,-1282.552914,421.136778,-9973.284597
305.654113,306.281293,1014.556782,-9054.440718
305.656682,1091.127106,593.420005,-9915.856854
305.659252,-248.853550,401.994197,-9934.999435
305.661822,382.851616,1225.125171,-9724.431046
305.664391,1014.556782,593.420005,-9915.856854
305.666961,-842.273555,593.420005,-9360.722011
305.669530,-114.855485,574.277424,-9705.288466
305.672100,1435.693560,1225.125171,-9839.286531
305.674669,-1416.550979,401.994197,-10088.140082
305.677239,-2737.389054,1167.697429,-9609.575562
305.679809,-2143.969050,478.564520,-9820.143950
305.682378,-823.130974,229.710970,-9896.714274
305.684948,-2105.683888,2105.683888,-9609.575562
305.687517,-153.140646,57.427742,-10164.710405
305.690087,5130.211654,1531.406464,-9303.294269
305.692656,4211.367776,421.136778,-9609.575562
305.695226,3809.373579,325.423874,-9839.286531
305.697795,1531.406464,1512.263883,-9188.438784
305.700365,153.140646,-401.994197,-10222.138147
305.702935,-421.136778,1818.545176,-9628.718142
305.705504,382.851616,133.998066,-10202.995566
305.708074,1550.549045,325.423874,-9590.432981
305.710643,1454.836141,1493.121302,-9188.438784
305.713213,1990.828403,478.564520,-10088.140082
305.715782,-535.992262,746.560651,-9801.001370
305.718352,1071.984525,918.843878,-9571.290400
305.720922,2411.965181,344.566454,-9667.003304
305.723491,1646.261949,727.418070,-9590.432981
305.726061,3330.809059,459.421939,-9647.860723
305.728630,3024.527766,1435.693560,-9590.432981
305.731200,5398.207786,172.283227,-9915.856854
305.733769,-1607.976787,937.986459,-9169.296203
305.736339,-2852.244539,1129.412267,-9647.860723
305.738889,-2469.392923,267.996131,-9877.571693
305.741439,-4058.227130,1129.412267,-10183.852986
305.743989,-1378.265818,669.990328,-9839.286531
305.746539,1071.984525,555.134843,-9571.290400
305.749088,-382.851616,-19.142581,-9724.431046
305.751638,1129.412267,1129.412267,-9360.722011
305.754188,1148.554848,478.564520,-10336.993632
305.756738,-746.560651,574.277424,-9762.716208
305.759288,-1378.265818,937.986459,-9628.718142
305.761838,1435.693560,574.277424,-9705.288466
305.764388,-172.283227,1167.697429,-9552.147819
305.766938,-1071.984525,535.992262,-9992.427178
305.769488,-1607.976787,1282.552914,-9801.001370
305.772038,-2584.248408,267.996131,-9858.429112
305.774588,-287.138712,995.414202,-9571.290400
305.777137,-3311.666478,1091.127106,-9686.145885
305.779687,-1033.699363,-57.427742,-10164.710405
305.782237,4249.652938,2143.969050,-9226.723946
305.784787,4192.225195,-76.570323,-9934.999435
305.787337,4326.223261,823.130974,-9762.716208
305.789887,2220.539373,1435.693560,-9265.009107
305.792437,172.283227,172.283227,-10068.997501
305.794987,-842.273555,1397.408398,-9724.431046
305.797537,421.136778,325.423874,-10145.567824
305.800087,1435.693560,1071.984525,-9360.722011
305.802637,1741.974853,516.849682,-9590.432981
305.805186,1320.838075,344.566454,-9743.573627
305.807736,133.998066,1167.697429,-9667.003304
305.810286,957.129040,535.992262,-10011.569758
305.812836,1952.543242,612.562586,-9647.860723
305.815386,1837.687757,708.275490,-9590.432981
305.817936,3464.807125,421.136778,-9647.860723
305.820486,3043.670347,1512.263883,-9628.718142
305.823036,5570.491013,133.998066,-9820.143950
305.825586,-1531.406464,1473.978722,-9437.292334
305.828136,-1550.549045,727.418070,-9571.290400
305.830685,-3330.809059,267.996131,-9705.288466
305.833235,-3905.086483,1435.693560,-10222.138147
305.835785,-1493.121302,306.281293,-10126.425243
305.838335,861.416136,784.845813,-9379.864592
305.840888,133.998066,191.425808,-9628.718142
305.843440,899.701298,937.986459,-9628.718142
305.845992,631.705166,421.136778,-10183.852986
305.848545,-440.279358,765.703232,-9647.860723
305.851097,57.427742,937.986459,-9781.858789
305.853649,823.130974,287.138712,-9781.858789
305.856202,-114.855485,1301.695494,-9571.290400
305.858754,-612.562586,287.138712,-10011.569758
305.861306,-2258.824534,976.271621,-9762.716208
305.863859,-2622.533570,421.136778,-9801.001370
305.866411,-497.707101,516.849682,-9801.001370
305.868963,-3101.098090,1225.125171,-9647.860723
305.871516,-1205.982590,-133.998066,-10107.282662
305.874068,3560.520029,1971.685822,-9379.864592
305.876621,4823.930362,153.140646,-9934.999435
305.879173,4019.941968,363.709035,-9820.143950
305.881725,1933.400661,1665.404530,-9092.725880
305.884278,-76.570323,-535.992262,-10279.565890
305.886830,-1129.412267,1454.836141,-9724.431046
305.889382,95.712904,746.560651,-9858.429112
305.891935,2009.970984,76.570323,-9877.571693
305.894487,1741.974853,1129.412267,-9303.294269
305.897039,382.851616,497.707101,-10011.569758
305.899592,823.130974,842.273555,-9934.999435
305.902144,1148.554848,727.418070,-9781.858789
305.904696,2220.539373,746.560651,-9552.147819
305.907249,918.843878,899.701298,-9686.145885
305.909801,4134.797453,401.994197,-9724.431046
305.912354,4307.080680,1244.267752,-9590.432981
305.914906,1703.689691,612.562586,-10030.712339
305.917458,287.138712,-19.142581,-9552.147819
305.920011,-4192.225195,1091.127106,-9552.147819
305.922563,-3235.096155,172.283227,-10068.997501
305.925115,-3254.238736,1205.982590,-10011.569758
305.927668,-1359.123237,478.564520,-10107.282662
305.930220,765.703232,918.843878,-9092.725880
305.932772,746.560651,478.564520,-9839.286531
305.935325,210.568389,842.273555,-9686.145885
305.937877,574.277424,918.843878,-9781.858789
305.940429,210.568389,555.134843,-10107.282662
305.942984,440.279358,765.703232,-9475.577496
305.945539,95.712904,803.988394,-9552.147819
305.948093,38.285162,516.849682,-9858.429112
305.950648,-1607.976787,995.414202,-9801.001370
305.953202,-2526.820666,727.418070,-9915.856854
305.955757,-899.701298,976.271621,-9743.573627
305.958311,-3024.527766,57.427742,-9934.999435
305.960866,-1454.836141,1301.695494,-9628.718142
305.963420,1722.832272,1148.554848,-9571.290400
305.965975,4728.217458,-95.712904,-9934.999435
305.968530,4766.502619,1359.123237,-9418.149754
305.971084,3273.381317,267.996131,-9743.573627
305.973639,401.994197,957.129040,-9437.292334
305.976193,229.710970,631.705166,-9992.427178
305.978748,306.281293,899.701298,-10030.712339
305.981302,-95.712904,937.986459,-9667.003304
305.983857,2584.248408,191.425808,-9762.716208
305.986411,1569.691626,861.416136,-9437.292334
305.988966,-38.285162,631.705166,-9858.429112
305.991520,957.129040,612.562586,-10011.569758
305.994075,1875.972918,1167.697429,-9590.432981
305.996630,1703.689691,344.566454,-9877.571693
305.999184,3369.094221,497.707101,-9437.292334
306.001739,2947.957443,1320.838075,-9667.003304
306.004293,6163.911018,344.566454,-9628.718142
306.006848,-803.988394,1129.412267,-9877.571693
306.009402,-574.277424,708.275490,-9456.434915
306.011957,-3101.098090,708.275490,-9533.005238
306.014511,-4575.076811,861.416136,-10490.134278
306.017066,-1952.543242,765.703232,-9801.001370
306.019621,995.414202,708.275490,-9762.716208
306.022175,325.423874,153.140646,-9686.145885
306.024730,516.849682,861.416136,-9341.579430
306.027284,1167.697429,382.851616,-10011.569758
306.029839,0.000000,669.990328,-9762.716208
306.032393,229.710970,650.847747,-9896.714274
306.034948,784.845813,287.138712,-9686.145885
306.037502,172.283227,1186.840010,-9533.005238
306.040057,-1416.550979,440.279358,-10107.282662
306.042612,-2105.683888,1339.980656,-9705.288466
306.045168,-2220.539373,612.562586,-9973.284597
306.047725,-2029.113565,210.568389,-9762.716208
306.050282,-1818.545176,1741.974853,-9437.292334
306.052838,-631.705166,287.138712,-10049.854920
306.055395,4498.506488,1741.974853,-9284.151688
306.057952,4441.078746,248.853550,-9915.856854
306.060508,3828.516160,-38.285162,-9973.284597
306.063065,1110.269686,1301.695494,-9303.294269
306.065622,114.855485,-325.423874,-10145.567824
306.068179,-1033.699363,1473.978722,-9877.571693
306.070735,1665.404530,535.992262,-10049.854920
306.073292,1703.689691,344.566454,-9724.431046
306.075849,440.279358,1186.840010,-9341.579430
306.078405,1129.412267,421.136778,-9973.284597
306.080962,689.132909,803.988394,-9743.573627
306.083519,899.701298,689.132909,-9877.571693
306.086075,2009.970984,535.992262,-9705.288466
306.088632,2794.816797,363.709035,-9456.434915
306.091189,2986.242605,1205.982590,-9647.860723
306.093746,6604.190376,708.275490,-9667.003304
306.096302,-210.568389,650.847747,-10145.567824
306.098859,191.425808,612.562586,-9360.722011
306.101416,-4000.799387,861.416136,-9590.432981
306.103972,-4498.506488,133.998066,-10432.706536
306.106529,-2986.242605,1454.836141,-9590.432981
306.109086,612.562586,669.990328,-10011.569758
306.111642,-38.285162,516.849682,-9724.431046
306.114199,899.701298,708.275490,-9341.579430
306.116756,1225.125171,689.132909,-9858.429112
306.119313,-612.562586,708.275490,-9820.143950
306.121869,401.994197,708.275490,-9915.856854
306.124426,976.271621,555.134843,-9571.290400
306.126983,-440.279358,976.271621,-9571.290400
306.129539,-842.273555,153.140646,-9781.858789
306.132096,-1665.404530,1167.697429,-9858.429112
306.134653,-2086.541307,631.705166,-10088.140082
306.137209,-2220.539373,267.996131,-9667.003304
306.139766,-1607.976787,1703.689691,-9475.577496
306.142323,-574.277424,267.996131,-9934.999435
306.144880,4613.361973,1493.121302,-9399.007173
306.147419,4613.361973,497.707101,-9896.714274
306.149958,4441.078746,229.710970,-9781.858789
306.152498,2124.826469,1282.552914,-9131.011042
306.155037,-19.142581,-210.568389,-9934.999435
306.157576,-1244.267752,1435.693560,-9858.429112
306.160116,1473.978722,899.701298,-9915.856854
306.162655,1607.976787,325.423874,-9724.431046
306.165195,363.709035,1225.125171,-9150.153622
306.167734,918.843878,478.564520,-9858.429112
306.170273,708.275490,1071.984525,-9820.143950
306.172813,1225.125171,995.414202,-9801.001370
306.175352,2316.252277,727.418070,-9801.001370
306.177891,2335.394858,497.707101,-9513.862658
306.180431,3235.096155,1129.412267,-9437.292334
306.182970,6297.909083,344.566454,-9820.143950
306.185509,-612.562586,1014.556782,-9839.286531
306.188049,-842.273555,1014.556782,-9494.720077
306.190588,-3349.951640,669.990328,-9552.147819
306.193128,-4977.071008,555.134843,-10528.419440
306.195667,-2603.390989,937.986459,-9686.145885
306.198206,248.853550,784.845813,-10049.854920
306.200746,-114.855485,555.134843,-9705.288466
306.203285,1244.267752,669.990328,-9418.149754
306.205824,803.988394,880.558717,-9858.429112
306.208364,-210.568389,727.418070,-9801.001370
306.210903,-133.998066,899.701298,-9820.143950
306.213443,746.560651,344.566454,-9858.429112
306.215982,-133.998066,612.562586,-9628.718142
306.218521,-1397.408398,631.705166,-9667.003304
306.221061,-2316.252277,1014.556782,-9820.143950
306.223600,-1722.832272,574.277424,-10126.425243
306.226139,-2641.676150,363.709035,-9743.573627
306.228679,-1473.978722,1282.552914,-9686.145885
306.231218,842.273555,727.418070,-9552.147819
306.233758,4632.504554,287.138712,-9896.714274
306.236297,5072.783912,1110.269686,-9686.145885
306.238836,3809.373579,-95.712904,-9992.427178
306.241376,344.566454,1225.125171,-9245.866526
306.243915,-344.566454,133.998066,-9934.999435
306.246454,-382.851616,1205.982590,-10011.569758
306.248998,1301.695494,1129.412267,-9877.571693
306.251541,1512.263883,363.709035,-9820.143950
306.254085,669.990328,823.130974,-9456.434915
306.256628,95.712904,516.849682,-9743.573627
306.259171,1493.121302,363.709035,-9954.142016
306.261715,1703.689691,1244.267752,-9686.145885
306.264258,650.847747,382.851616,-10088.140082
306.266802,4192.225195,497.707101,-9284.151688
306.269345,3866.801322,937.986459,-9724.431046
306.271888,4996.213589,363.709035,-10145.567824
306.274432,-57.427742,765.703232,-9513.862658
306.276975,-2182.254211,1167.697429,-9705.288466
306.279518,-3311.666478,-38.285162,-9705.288466
306.282062,-4019.941968,1225.125171,-9820.143950
306.284605,-1761.117434,612.562586,-10088.140082
306.287149,1627.119368,976.271621,-9341.579430
306.289692,803.988394,287.138712,-10011.569758
306.292235,-574.277424,918.843878,-9552.147819
306.294779,287.138712,593.420005,-9762.716208
306.297322,1014.556782,689.132909,-10049.854920
306.299866,-57.427742,918.843878,-9571.290400
306.302409,38.285162,689.132909,-9628.718142
306.304952,-401.994197,631.705166,-9628.718142
306.307496,-2335.394858,803.988394,-9762.716208
306.310039,-2679.961312,842.273555,-9820.143950
306.312582,-267.996131,689.132909,-10030.712339
306.315126,-3598.805190,1033.699363,-9724.431046
306.317669,-1071.984525,459.421939,-9781.858789
306.320213,4632.504554,1493.121302,-9494.720077
306.322756,4919.643266,363.709035,-9801.001370
306.325299,4881.358104,631.705166,-9762.716208
306.327843,2258.824534,1339.980656,-9245.866526
306.330386,-459.421939,-267.996131,-9896.714274
306.332930,-593.420005,1205.982590,-9571.290400
306.335473,153.140646,593.420005,-10088.140082
306.338016,1301.695494,153.140646,-9992.427178
306.340560,1933.400661,1493.121302,-9131.011042
306.343103,267.996131,363.709035,-9915.856854
306.345647,1014.556782,765.703232,-9762.716208
306.348190,1607.976787,1110.269686,-9628.718142
306.350737,1493.121302,401.994197,-9839.286531
306.353284,3196.810994,497.707101,-9399.007173
306.355831,3101.098090,976.271621,-9456.434915
306.358378,6259.623922,555.134843,-9571.290400
306.360925,-612.562586,1148.554848,-9973.284597
306.363472,-516.849682,880.558717,-9647.860723
306.366019,-2890.529701,555.134843,-9590.432981
306.368566,-5225.924558,650.847747,-10356.136213
306.371113,-2163.111630,937.986459,-9686.145885
306.373660,1512.263883,669.990328,-9781.858789
306.376207,0.000000,421.136778,-9743.573627
306.378754,401.994197,842.273555,-9322.436850
306.381301,1071.984525,631.705166,-9954.142016
306.383848,-440.279358,631.705166,-9743.573627
306.386395,-153.140646,784.845813,-9839.286531
306.388942,1244.267752,803.988394,-9896.714274
