#time,accel_x,accel_y,accel_z
4975.370802,-344.566454,2067.398726,-9724.431046
4975.373387,4843.072942,248.853550,-9762.716208
4975.375971,3292.523898,516.849682,-9820.143950
4975.378555,861.416136,995.414202,-9667.003304
4975.381148,-3101.098090,937.986459,-9743.573627
4975.383741,-248.853550,-535.992262,-10030.712339
4975.386333,3866.801322,2258.824534,-9399.007173
4975.388926,1684.547110,95.712904,-10298.708470
4975.391518,-421.136778,401.994197,-9858.429112
4975.394111,-2316.252277,3330.809059,-8767.302006
4975.396704,-3579.662610,-1110.269686,-10432.706536
4975.399296,-2009.970984,1473.978722,-10126.425243
4975.401889,3522.234867,1550.549045,-9628.718142
4975.404482,2354.537438,325.423874,-9724.431046
4975.407074,478.564520,191.425808,-9533.005238
4975.409667,-2986.242605,1493.121302,-9705.288466
4975.412260,-3177.668413,708.275490,-10088.140082
4975.414852,-784.845813,267.996131,-9915.856854
4975.417445,1148.554848,1550.549045,-9571.290400
4975.420037,2105.683888,-19.142581,-9801.001370
4975.422630,-325.423874,1129.412267,-9571.290400
4975.425223,-1933.400661,842.273555,-10107.282662
4975.427815,708.275490,478.564520,-10145.567824
4975.430408,1741.974853,746.560651,-9762.716208
4975.433001,-1225.125171,842.273555,-9590.432981
4975.435593,-1741.974853,-76.570323,-9801.001370
4975.438186,-2775.674216,1091.127106,-9954.142016
4975.440778,-1780.260014,880.558717,-10088.140082
4975.443371,1722.832272,497.707101,-9992.427178
4975.445964,3847.658741,976.271621,-9456.434915
4975.448556,-440.279358,918.843878,-9494.720077
4975.451149,-3656.232933,153.140646,-9954.142016
4975.453742,-4134.797453,1856.830338,-9858.429112
4975.456334,1952.543242,325.423874,-10068.997501
4975.458927,1071.984525,172.283227,-9877.571693
4975.461520,1071.984525,1875.972918,-9207.581365
4975.464112,2584.248408,382.851616,-9590.432981
4975.466705,-4230.510357,-1091.127106,-10566.704602
4975.469297,-2277.967115,2450.250342,-9245.866526
4975.471890,-1244.267752,-325.423874,-10011.569758
4975.474483,5742.774240,57.427742,-9743.573627
4975.477075,3330.809059,3101.098090,-8997.012976
4975.479668,708.275490,-2086.541307,-10719.845248
4975.482261,19.142581,2813.959378,-9341.579430
4975.484859,-3273.381317,-497.707101,-10298.708470
4975.487458,3024.527766,689.132909,-9877.571693
4975.490056,5225.924558,2143.969050,-9494.720077
4975.492654,1493.121302,-612.562586,-10049.854920
4975.495253,-1071.984525,2182.254211,-9456.434915
4975.497851,1473.978722,-95.712904,-10145.567824
4975.500450,172.283227,803.988394,-9628.718142
4975.503048,535.992262,1569.691626,-9896.714274
4975.505647,2775.674216,-497.707101,-9724.431046
4975.508245,2009.970984,1761.117434,-9590.432981
4975.510844,2660.818731,-57.427742,-10145.567824
4975.513442,153.140646,899.701298,-9667.003304
4975.516041,-114.855485,976.271621,-9896.714274
4975.518639,-133.998066,478.564520,-9609.575562
4975.521237,2067.398726,1225.125171,-9552.147819
4975.523836,2354.537438,382.851616,-10068.997501
4975.526434,-1225.125171,727.418070,-9858.429112
4975.529033,631.705166,612.562586,-9552.147819
4975.531631,1684.547110,555.134843,-9839.286531
4975.534230,1033.699363,727.418070,-9954.142016
4975.536828,708.275490,1110.269686,-9781.858789
4975.539427,4268.795518,95.712904,-9915.856854
4975.542025,2450.250342,631.705166,-9628.718142
4975.544624,306.281293,1033.699363,-9877.571693
4975.547222,-1205.982590,153.140646,-9934.999435
4975.549821,-689.132909,1531.406464,-9590.432981
4975.552419,2450.250342,38.285162,-10145.567824
4975.555017,4173.082614,1473.978722,-9781.858789
4975.557616,1225.125171,-325.423874,-10088.140082
4975.560214,-229.710970,1512.263883,-9494.720077
4975.562813,1799.402595,842.273555,-9571.290400
4975.565411,-823.130974,-133.998066,-10030.712339
4975.568010,3330.809059,267.996131,-10030.712339
4975.570608,-325.423874,1148.554848,-9724.431046
4975.573207,1186.840010,-153.140646,-9992.427178
4975.575805,-2411.965181,1761.117434,-9245.866526
4975.578404,459.421939,574.277424,-10222.138147
4975.581002,287.138712,440.279358,-9762.716208
4975.583601,-2833.101958,2488.535504,-9245.866526
4975.586199,1320.838075,-1512.263883,-10547.562021
4975.588798,995.414202,2201.396792,-9494.720077
4975.591397,-229.710970,612.562586,-10241.280728
4975.593995,-325.423874,-976.271621,-10375.278794
4975.596594,-459.421939,2354.537438,-9437.292334
4975.599193,-1837.687757,-1033.699363,-10126.425243
4975.601792,-1990.828403,1588.834206,-10145.567824
4975.604390,1684.547110,823.130974,-9667.003304
4975.606989,1741.974853,-153.140646,-9858.429112
4975.609588,574.277424,1186.840010,-9781.858789
4975.612187,-1646.261949,784.845813,-9820.143950
4975.614785,-2143.969050,478.564520,-9858.429112
4975.617384,-669.990328,1071.984525,-9762.716208
4975.619983,727.418070,784.845813,-9724.431046
4975.622582,1014.556782,0.000000,-9992.427178
4975.625181,267.996131,995.414202,-9705.288466
4975.627779,-401.994197,1052.841944,-9647.860723
4975.630378,133.998066,-133.998066,-10088.140082
4975.632977,-746.560651,957.129040,-9686.145885
4975.635576,-1837.687757,1282.552914,-9647.860723
4975.638174,-2565.105827,-191.425808,-10375.278794
4975.640773,-363.709035,1339.980656,-9513.862658
4975.643372,3235.096155,612.562586,-9877.571693
4975.645971,1148.554848,306.281293,-10202.995566
4975.648570,-3483.949706,1435.693560,-9303.294269
4975.651168,-3330.809059,593.420005,-9552.147819
4975.653767,1550.549045,478.564520,-10222.138147
4975.656366,-38.285162,1091.127106,-10107.282662
4975.658965,631.705166,1359.123237,-9456.434915
4975.661563,3062.812928,210.568389,-9475.577496
4975.664162,-4000.799387,516.849682,-10241.280728
4975.666761,-2239.681954,1473.978722,-9552.147819
4975.669360,-1512.263883,363.709035,-10107.282662
4975.671958,4977.071008,765.703232,-9724.431046
4975.674557,3579.662610,1990.828403,-9054.440718
4975.677156,746.560651,-1416.550979,-10356.136213
4975.679755,459.421939,3273.381317,-9322.436850
4975.682354,-2909.672282,-1627.119368,-10758.130410
4975.684952,2143.969050,1550.549045,-9724.431046
4975.687551,5034.498750,2469.392923,-9399.007173
4975.690150,2029.113565,-2679.961312,-10413.563955
4975.692748,-1550.549045,3177.668413,-9073.583299
4975.695347,1014.556782,-497.707101,-10241.280728
4975.697945,1741.974853,497.707101,-9992.427178
4975.700544,708.275490,1990.828403,-9571.290400
4975.703142,1722.832272,-306.281293,-9552.147819
4975.705741,1684.547110,1091.127106,-9896.714274
4975.708339,1818.545176,708.275490,-10222.138147
4975.710938,1646.261949,899.701298,-9705.288466
4975.713536,803.988394,440.279358,-10030.712339
4975.716135,-114.855485,1148.554848,-9456.434915
4975.718733,1435.693560,727.418070,-9590.432981
4975.721332,1263.410333,-133.998066,-10432.706536
4975.723930,229.710970,1837.687757,-9762.716208
4975.726529,1186.840010,38.285162,-9858.429112
4975.729127,1186.840010,401.994197,-10049.854920
4975.731726,2679.961312,1435.693560,-9552.147819
4975.734324,4134.797453,76.570323,-10126.425243
4975.736923,2373.680019,669.990328,-10183.852986
4975.739521,-325.423874,880.558717,-9341.579430
4975.742120,-1799.402595,-19.142581,-9915.856854
4975.744718,535.992262,784.845813,-10049.854920
4975.747317,4173.082614,1607.976787,-9399.007173
4975.749915,3579.662610,-19.142581,-10145.567824
4975.752514,-1129.412267,1818.545176,-9628.718142
4975.755112,631.705166,-172.283227,-9590.432981
4975.757711,306.281293,823.130974,-9934.999435
4975.760309,3062.812928,1761.117434,-9973.284597
4975.762908,3311.666478,-574.277424,-10145.567824
4975.765506,-1225.125171,1033.699363,-9533.005238
4975.768105,976.271621,229.710970,-9724.431046
4975.770703,-2718.246474,1588.834206,-9801.001370
4975.773302,0.000000,-1052.841944,-10834.700733
4975.775900,-803.988394,2316.252277,-8977.870395
4975.778498,-38.285162,880.558717,-9992.427178
4975.781097,172.283227,-880.558717,-10049.854920
4975.783695,-153.140646,2239.681954,-8997.012976
4975.786294,-516.849682,727.418070,-10604.989763
4975.788892,-459.421939,-574.277424,-10088.140082
4975.791491,-210.568389,1110.269686,-9341.579430
4975.794089,-1607.976787,-133.998066,-10413.563955
4975.796688,-1856.830338,1512.263883,-9954.142016
4975.799286,1741.974853,497.707101,-9705.288466
4975.801885,1895.115499,708.275490,-10011.569758
4975.804483,-248.853550,153.140646,-10088.140082
4975.807081,-401.994197,1033.699363,-9360.722011
4975.809680,-1550.549045,574.277424,-9877.571693
4975.812278,-784.845813,-95.712904,-10068.997501
4975.814876,1722.832272,1895.115499,-9647.860723
4975.817475,842.273555,-478.564520,-10030.712339
4975.820073,-459.421939,1091.127106,-9609.575562
4975.822672,-210.568389,1110.269686,-9820.143950
4975.825270,-1301.695494,38.285162,-10222.138147
4975.827868,-1665.404530,1320.838075,-9628.718142
4975.830467,-1378.265818,593.420005,-9762.716208
4975.833065,1282.552914,-210.568389,-9896.714274
4975.835663,861.416136,1990.828403,-9322.436850
4975.838262,-2182.254211,976.271621,-10030.712339
4975.840860,-3483.949706,593.420005,-9915.856854
4975.843459,1359.123237,899.701298,-9628.718142
4975.846057,287.138712,708.275490,-10068.997501
4975.848655,-861.416136,306.281293,-9762.716208
4975.851254,2986.242605,1320.838075,-9207.581365
4975.853852,-2737.389054,612.562586,-10470.991698
4975.856450,-3043.670347,459.421939,-9781.858789
4975.859049,153.140646,2718.246474,-8977.870395
4975.861647,-38.285162,-1339.980656,-10566.704602
4975.864246,2871.387120,2756.531635,-9188.438784
4975.866844,2392.822600,-689.132909,-9820.143950
4975.869442,1531.406464,689.132909,-10049.854920
4975.872041,-2947.957443,631.705166,-9820.143950
4975.874639,708.275490,1186.840010,-9245.866526
4975.877238,5359.922624,1282.552914,-9839.286531
4975.879836,1339.980656,-823.130974,-10451.849117
4975.882434,-267.996131,3062.812928,-8805.587168
4975.885033,1205.982590,-555.134843,-10126.425243
4975.887631,1320.838075,842.273555,-10260.423309
4975.890229,1014.556782,650.847747,-9628.718142
4975.892828,1110.269686,-401.994197,-10222.138147
4975.895426,1148.554848,1875.972918,-9379.864592
4975.898025,1339.980656,-38.285162,-9954.142016
4975.900621,1282.552914,689.132909,-9954.142016
4975.903217,1607.976787,1416.550979,-9877.571693
4975.905813,1301.695494,440.279358,-9820.143950
4975.908410,421.136778,689.132909,-9839.286531
4975.911006,-114.855485,1091.127106,-9609.575562
4975.913602,248.853550,497.707101,-10030.712339
4975.916199,2277.967115,650.847747,-9915.856854
4975.918795,1856.830338,1397.408398,-9552.147819
4975.921391,2431.107762,229.710970,-9858.429112
4975.923988,3177.668413,497.707101,-9724.431046
4975.926584,1569.691626,1550.549045,-9667.003304
4975.929180,-1952.543242,-95.712904,-10145.567824
4975.931777,-76.570323,344.566454,-9686.145885
4975.934373,3541.377448,1933.400661,-9379.864592
4975.936969,3541.377448,-363.709035,-10183.852986
4975.939565,57.427742,2258.824534,-9418.149754
4975.942162,1263.410333,689.132909,-9743.573627
4975.944758,593.420005,-555.134843,-10068.997501
4975.947354,2986.242605,2316.252277,-9609.575562
4975.949951,2603.390989,-401.994197,-10011.569758
4975.952547,-1512.263883,1129.412267,-9647.860723
4975.955143,2048.256146,-459.421939,-9973.284597
4975.957740,-3790.230998,1799.402595,-9590.432981
4975.960336,746.560651,-535.992262,-10604.989763
4975.962932,-823.130974,2488.535504,-9092.725880
4975.965529,-803.988394,823.130974,-9954.142016
4975.968125,306.281293,-650.847747,-9896.714274
4975.970721,478.564520,2258.824534,-9092.725880
4975.973317,-650.847747,784.845813,-10470.991698
4975.975914,-555.134843,-440.279358,-9877.571693
4975.978510,0.000000,1914.258080,-9169.296203
4975.981106,-2009.970984,-497.707101,-10509.276859
4975.983703,-1646.261949,976.271621,-10068.997501
4975.986299,574.277424,593.420005,-9705.288466
4975.988895,1339.980656,1244.267752,-9781.858789
4975.991492,-57.427742,555.134843,-9762.716208
4975.994088,-1071.984525,937.986459,-9839.286531
4975.996684,-1244.267752,861.416136,-9915.856854
4975.999281,-344.566454,38.285162,-9743.573627
4976.001877,631.705166,1799.402595,-9801.001370
4976.004472,574.277424,-133.998066,-10126.425243
4976.007067,-1205.982590,478.564520,-9571.290400
4976.009662,-191.425808,2029.113565,-9590.432981
4976.012257,-1167.697429,-784.845813,-10202.995566
4976.014852,-114.855485,1741.974853,-9628.718142
4976.017447,459.421939,1225.125171,-9820.143950
4976.020042,-287.138712,-1473.978722,-10394.421374
4976.022638,-2411.965181,2431.107762,-9016.155557
4976.025233,-1875.972918,267.996131,-10145.567824
4976.027828,2660.818731,-153.140646,-10451.849117
4976.030423,-708.275490,1569.691626,-9552.147819
4976.033018,-1454.836141,421.136778,-9743.573627
4976.035613,2833.101958,382.851616,-9724.431046
4976.038208,-2143.969050,-306.281293,-10336.993632
4976.040803,-1875.972918,1761.117434,-9494.720077
4976.043398,-842.273555,-38.285162,-10068.997501
4976.045993,3081.955509,593.420005,-9801.001370
4976.048588,2507.678085,2584.248408,-9284.151688
4976.051183,1990.828403,-2124.826469,-10585.847182
4976.053779,2182.254211,2833.101958,-9322.436850
4976.056374,-2679.961312,-555.134843,-10202.995566
4976.058969,631.705166,325.423874,-9724.431046
4976.061564,5149.354235,2833.101958,-9226.723946
4976.064159,1703.689691,-2852.244539,-10738.987829
4976.066754,-1741.974853,3560.520029,-8901.300072
4976.069349,2411.965181,-363.709035,-10068.997501
4976.071944,2813.959378,440.279358,-9896.714274
4976.074539,784.845813,842.273555,-9571.290400
4976.077134,880.558717,765.703232,-9667.003304
4976.079729,287.138712,516.849682,-9858.429112
4976.082325,1780.260014,306.281293,-9858.429112
4976.084920,2258.824534,1895.115499,-9437.292334
4976.087515,1397.408398,-574.277424,-10375.278794
4976.090110,-535.992262,1569.691626,-9437.292334
4976.092705,1148.554848,1129.412267,-9628.718142
4976.095300,650.847747,-497.707101,-10202.995566
4976.097895,650.847747,1990.828403,-9360.722011
4976.100490,2852.244539,861.416136,-9858.429112
4976.103085,2354.537438,-191.425808,-10183.852986
4976.105680,3598.805190,1933.400661,-9035.298138
4976.108273,306.281293,344.566454,-10049.854920
4976.110866,-1282.552914,1282.552914,-9954.142016
4976.113458,2545.963246,421.136778,-9322.436850
4976.116051,3426.521963,1091.127106,-9877.571693
4976.118643,325.423874,-363.709035,-10317.851051
4976.121235,1014.556782,1952.543242,-9207.581365
4976.123828,2163.111630,38.285162,-9820.143950
4976.126420,76.570323,-421.136778,-10222.138147
4976.129013,3407.379382,2431.107762,-9552.147819
4976.131605,1493.121302,-287.138712,-9801.001370
4976.134198,-1282.552914,1148.554848,-9647.860723
4976.136790,-1244.267752,1129.412267,-9705.288466
4976.139383,401.994197,1167.697429,-9877.571693
4976.141975,-19.142581,-631.705166,-10375.278794
4976.144567,-2411.965181,1837.687757,-9494.720077
4976.147160,114.855485,-765.703232,-10222.138147
4976.149752,1225.125171,1435.693560,-9341.579430
4976.152345,287.138712,1129.412267,-9839.286531
4976.154937,-516.849682,-57.427742,-10298.708470
4976.157530,-363.709035,1512.263883,-8958.727814
4976.160122,-593.420005,880.558717,-9762.716208
4976.162715,-2316.252277,669.990328,-10202.995566
4976.165307,-1033.699363,2679.961312,-9303.294269
4976.167899,727.418070,-1129.412267,-10049.854920
4976.170492,535.992262,1473.978722,-9686.145885
4976.173084,861.416136,1110.269686,-9590.432981
4976.175677,421.136778,229.710970,-10068.997501
4976.178269,-3120.240670,918.843878,-9915.856854
4976.180862,612.562586,497.707101,-9647.860723
4976.183454,2009.970984,1339.980656,-9820.143950
4976.186046,-631.705166,210.568389,-10202.995566
4976.188639,-1435.693560,1569.691626,-9571.290400
4976.191231,-38.285162,210.568389,-9896.714274
4976.193824,-2105.683888,19.142581,-10164.710405
4976.196416,-191.425808,2009.970984,-9533.005238
4976.199009,-344.566454,-19.142581,-9954.142016
4976.201601,-2526.820666,344.566454,-9973.284597
4976.204194,1339.980656,1818.545176,-9475.577496
4976.206786,1378.265818,497.707101,-10107.282662
4976.209378,-1856.830338,-669.990328,-9820.143950
4976.211969,114.855485,1493.121302,-9399.007173
4976.214559,172.283227,784.845813,-10164.710405
4976.217150,-1014.556782,-535.992262,-10126.425243
4976.219740,823.130974,2431.107762,-9418.149754
4976.222331,-2794.816797,-1320.838075,-10375.278794
4976.224921,4421.936165,1454.836141,-9303.294269
4976.227511,1607.976787,2277.967115,-9724.431046
4976.230102,803.988394,-1550.549045,-10643.274925
4976.232692,1875.972918,3790.230998,-8499.305875
4976.235283,612.562586,-1627.119368,-10490.134278
4976.237873,1646.261949,1148.554848,-9533.005238
4976.240464,3369.094221,1971.685822,-9571.290400
4976.243054,1933.400661,-1052.841944,-10490.134278
4976.245645,-1684.547110,1550.549045,-9399.007173
4976.248235,2833.101958,325.423874,-9437.292334
4976.250825,3196.810994,1799.402595,-9724.431046
4976.253416,248.853550,-1110.269686,-10394.421374
4976.256006,555.134843,2469.392923,-8843.872330
4976.258597,1014.556782,631.705166,-10107.282662
4976.261187,1646.261949,38.285162,-10011.569758
4976.263778,1722.832272,2603.390989,-9016.155557
4976.266368,1473.978722,-1205.982590,-10547.562021
4976.268958,325.423874,1359.123237,-9437.292334
4976.271549,172.283227,1435.693560,-9360.722011
4976.274139,1167.697429,-382.851616,-10126.425243
4976.276730,2986.242605,1703.689691,-9686.145885
4976.279320,2239.681954,995.414202,-10030.712339
4976.281911,2967.100024,344.566454,-9647.860723
4976.284501,1244.267752,1378.265818,-9513.862658
4976.287092,497.707101,-57.427742,-10049.854920
4976.289682,1895.115499,1531.406464,-9705.288466
4976.292272,3388.236802,478.564520,-9801.001370
4976.294862,-2239.681954,1301.695494,-9609.575562
4976.297452,1473.978722,-172.283227,-9915.856854
4976.300042,3426.521963,2143.969050,-9379.864592
4976.302632,153.140646,1359.123237,-10030.712339
4976.305222,2545.963246,-1186.840010,-10260.423309
4976.307811,-478.564520,2890.529701,-8958.727814
4976.310401,2143.969050,-1607.976787,-10413.563955
4976.312991,-2143.969050,1225.125171,-9762.716208
4976.315581,976.271621,1761.117434,-9705.288466
4976.318171,440.279358,-248.853550,-9724.431046
4976.320760,-3885.943902,1703.689691,-9762.716208
4976.323350,880.558717,-38.285162,-10107.282662
4976.325940,2316.252277,1454.836141,-9609.575562
4976.328530,-2029.113565,-114.855485,-10298.708470
4976.331120,-459.421939,746.560651,-9628.718142
4976.333710,-210.568389,2086.541307,-9437.292334
4976.336299,-880.558717,-842.273555,-10088.140082
4976.338889,-1971.685822,2277.967115,-9647.860723
4976.341479,-497.707101,842.273555,-10030.712339
4976.344069,1033.699363,-669.990328,-9896.714274
4976.346659,-19.142581,2794.816797,-8977.870395
4976.349249,1301.695494,-784.845813,-10490.134278
4976.351838,-1359.123237,995.414202,-9858.429112
4976.354428,-1378.265818,1837.687757,-9399.007173
4976.357018,1703.689691,-612.562586,-10164.710405
4976.359608,-133.998066,1856.830338,-9494.720077
4976.362198,-114.855485,440.279358,-9877.571693
4976.364788,-1320.838075,842.273555,-9724.431046
4976.367377,-1665.404530,1167.697429,-9801.001370
4976.369967,-2679.961312,229.710970,-9973.284597
4976.372557,-957.129040,1091.127106,-9762.716208
4976.375147,842.273555,574.277424,-9954.142016
4976.377737,2182.254211,708.275490,-9839.286531
4976.380327,-918.843878,574.277424,-9973.284597
4976.382916,-2967.100024,2469.392923,-9226.723946
4976.385506,2009.970984,-191.425808,-10145.567824
4976.388096,-1435.693560,57.427742,-10336.993632
4976.390686,-153.140646,2775.674216,-8977.870395
4976.393276,306.281293,19.142581,-9877.571693
4976.395866,-1071.984525,-248.853550,-10164.710405
4976.398453,1512.263883,3445.664544,-9226.723946
4976.401040,3158.525832,-2105.683888,-10432.706536
4976.403627,1952.543242,1301.695494,-9743.573627
4976.406215,-401.994197,2029.113565,-9207.581365
4976.408802,574.277424,191.425808,-9954.142016
4976.411389,4594.219392,2220.539373,-9245.866526
4976.413977,133.998066,-555.134843,-10604.989763
4976.416564,287.138712,2067.398726,-9379.864592
4976.419151,823.130974,325.423874,-9590.432981
4976.421738,1512.263883,669.990328,-9934.999435
4976.424326,3503.092286,2048.256146,-9801.001370
4976.426913,1225.125171,-1263.410333,-10317.851051
4976.429500,-1454.836141,3005.385186,-8939.585234
4976.432088,1856.830338,-574.277424,-10260.423309
4976.434675,2545.963246,1607.976787,-9360.722011
4976.437262,1741.974853,842.273555,-9877.571693
4976.439850,555.134843,-57.427742,-10107.282662
4976.442437,555.134843,1933.400661,-9284.151688
4976.445024,1550.549045,95.712904,-10011.569758
4976.447611,1627.119368,421.136778,-9839.286531
4976.450199,3426.521963,1550.549045,-9743.573627
4976.452786,2182.254211,-19.142581,-9954.142016
4976.455373,0.000000,1435.693560,-9475.577496
4976.457961,1818.545176,880.558717,-9724.431046
4976.460548,2852.244539,555.134843,-9992.427178
4976.463135,-516.849682,267.996131,-9973.284597
4976.465723,593.420005,2086.541307,-9341.579430
4976.468310,3407.379382,-899.701298,-10030.712339
4976.470897,1531.406464,401.994197,-9877.571693
4976.473484,2775.674216,2488.535504,-9820.143950
4976.476072,1225.125171,-1550.549045,-10451.849117
4976.478659,-2584.248408,1971.685822,-9111.868461
4976.481246,1205.982590,497.707101,-10088.140082
4976.483834,-191.425808,1167.697429,-9915.856854
4976.486421,497.707101,-516.849682,-10183.852986
4976.489008,-2335.394858,2048.256146,-9418.149754
4976.491596,-1818.545176,287.138712,-10164.710405
4976.494183,440.279358,-38.285162,-9647.860723
4976.496770,612.562586,976.271621,-9801.001370
4976.499357,-516.849682,516.849682,-10202.995566
4976.501943,-555.134843,1091.127106,-9341.579430
4976.504529,-861.416136,823.130974,-9609.575562
4976.507115,-1014.556782,-306.281293,-10604.989763
4976.509701,-1454.836141,1416.550979,-9820.143950
4976.512287,497.707101,689.132909,-9801.001370
4976.514872,-287.138712,133.998066,-9954.142016
4976.517458,478.564520,1454.836141,-9418.149754
4976.520044,669.990328,-191.425808,-10279.565890
4976.522630,-1359.123237,1607.976787,-9762.716208
4976.525216,689.132909,784.845813,-9743.573627
4976.527802,459.421939,306.281293,-9973.284597
4976.530387,-497.707101,803.988394,-9686.145885
4976.532973,-823.130974,1454.836141,-9724.431046
4976.535559,-2967.100024,-153.140646,-10375.278794
4976.538145,-2507.678085,1512.263883,-9284.151688
4976.540731,-918.843878,1263.410333,-9724.431046
4976.543317,2009.970984,-267.996131,-10107.282662
4976.545902,765.703232,2258.824534,-9111.868461
4976.548488,-2067.398726,-593.420005,-10126.425243
4976.551074,-2660.818731,957.129040,-10126.425243
4976.553660,516.849682,1914.258080,-9590.432981
4976.556246,-76.570323,-689.132909,-10164.710405
4976.558832,-19.142581,1071.984525,-9858.429112
4976.561417,-1435.693560,746.560651,-9667.003304
4976.564003,2660.818731,497.707101,-9590.432981
4976.566589,1091.127106,1607.976787,-9934.999435
4976.569175,1091.127106,306.281293,-9896.714274
4976.571761,3292.523898,2622.533570,-9092.725880
4976.574347,-1033.699363,-1895.115499,-10738.987829
4976.576932,344.566454,2526.820666,-9456.434915
4976.579518,4881.358104,1205.982590,-9743.573627
4976.582104,574.277424,-1799.402595,-10643.274925
4976.584690,-1320.838075,3541.377448,-8767.302006
4976.587276,2163.111630,-1110.269686,-9801.001370
4976.589862,2622.533570,937.986459,-9571.290400
4976.592447,3062.812928,2526.820666,-9647.860723
4976.595033,1091.127106,38.285162,-9647.860723
4976.597619,-1110.269686,1569.691626,-9552.147819
4976.600205,1320.838075,-191.425808,-10145.567824
4976.602791,689.132909,1129.412267,-9705.288466
4976.605375,2469.392923,497.707101,-9934.999435
4976.607959,842.273555,1263.410333,-9475.577496
4976.610543,153.140646,306.281293,-9781.858789
4976.613127,2737.389054,765.703232,-9762.716208
4976.615711,2373.680019,1684.547110,-9762.716208
4976.618295,3235.096155,-114.855485,-10279.565890
4976.620879,2220.539373,880.558717,-9418.149754
4976.623463,803.988394,1435.693560,-9686.145885
4976.626047,1512.263883,-669.990328,-10336.993632
4976.628631,-363.709035,1971.685822,-9647.860723
4976.631215,823.130974,593.420005,-9801.001370
4976.633799,4536.791650,153.140646,-9609.575562
4976.636383,1512.263883,1359.123237,-9590.432981
4976.638967,1856.830338,535.992262,-9896.714274
4976.641550,-650.847747,957.129040,-9571.290400
4976.644134,267.996131,535.992262,-9858.429112
4976.646718,-689.132909,516.849682,-9705.288466
4976.649302,1856.830338,2048.256146,-9513.862658
4976.651886,248.853550,-823.130974,-10260.423309
4976.654470,-3885.943902,1454.836141,-9590.432981
4976.657054,-995.414202,38.285162,-10126.425243
4976.659638,1531.406464,1320.838075,-9533.005238
4976.662222,325.423874,746.560651,-9839.286531
4976.664806,57.427742,899.701298,-9973.284597
4976.667390,-937.986459,1665.404530,-9265.009107
4976.669974,-1205.982590,-497.707101,-10107.282662
4976.672558,-1148.554848,1588.834206,-10068.997501
4976.675142,-1378.265818,765.703232,-9705.288466
4976.677726,229.710970,-95.712904,-9781.858789
4976.680310,-210.568389,1435.693560,-9705.288466
4976.682894,-267.996131,612.562586,-9954.142016
4976.685478,191.425808,0.000000,-10183.852986
4976.688062,-95.712904,1837.687757,-9609.575562
4976.690646,842.273555,287.138712,-9934.999435
4976.693230,1244.267752,1320.838075,-9609.575562
4976.695814,-1205.982590,899.701298,-9877.571693
4976.698398,-2756.531635,-76.570323,-10088.140082
4976.700982,-3196.810994,957.129040,-9992.427178
4976.703566,-957.129040,861.416136,-9781.858789
4976.706150,3024.527766,650.847747,-9781.858789
4976.708732,1550.549045,1225.125171,-9686.145885
4976.711315,-1799.402595,-306.281293,-9915.856854
4976.713897,-3311.666478,1837.687757,-9686.145885
4976.716479,976.271621,1129.412267,-10049.854920
4976.719062,19.142581,57.427742,-9762.716208
4976.721644,918.843878,535.992262,-9858.429112
4976.724226,-2507.678085,344.566454,-9954.142016
4976.726809,3273.381317,995.414202,-9399.007173
4976.729391,1225.125171,1741.974853,-9820.143950
4976.731973,1416.550979,-823.130974,-10375.278794
4976.734556,3905.086483,2813.959378,-9092.725880
4976.737138,-1493.121302,-1512.263883,-10490.134278
4976.739720,210.568389,1531.406464,-9628.718142
4976.742303,4441.078746,1339.980656,-9820.143950
4976.744885,880.558717,-1646.261949,-10566.704602
4976.747467,-1435.693560,2909.672282,-8977.870395
4976.750050,1761.117434,-842.273555,-9934.999435
4976.752632,3196.810994,765.703232,-9743.573627
4976.755214,2813.959378,2124.826469,-9667.003304
4976.757797,1359.123237,-803.988394,-10068.997501
4976.760379,133.998066,1875.972918,-9226.723946
4976.762961,-1225.125171,229.710970,-10049.854920
4976.765544,1895.115499,612.562586,-10011.569758
4976.768126,2086.541307,708.275490,-9762.716208
4976.770708,0.000000,861.416136,-9609.575562
4976.773291,1416.550979,574.277424,-9877.571693
4976.775873,1933.400661,95.712904,-9954.142016
4976.778455,2909.672282,1875.972918,-9609.575562
4976.781038,3445.664544,-440.279358,-10145.567824
4976.783620,2507.678085,1148.554848,-9705.288466
4976.786202,708.275490,1205.982590,-9360.722011
4976.788785,-1933.400661,-382.851616,-10202.995566
4976.791367,1014.556782,1856.830338,-9628.718142
4976.793949,5091.926493,823.130974,-9437.292334
4976.796532,2967.100024,-248.853550,-10164.710405
4976.799114,2699.103893,1741.974853,-9494.720077
4976.801696,-1014.556782,689.132909,-9111.868461
4976.804279,-2699.103893,1205.982590,-10107.282662
4976.806861,2009.970984,114.855485,-10432.706536
4976.809443,38.285162,1971.685822,-9245.866526
4976.812025,1588.834206,-1205.982590,-10375.278794
4976.814606,-3617.947771,2029.113565,-9437.292334
4976.817187,-2373.680019,401.994197,-10088.140082
4976.819768,669.990328,114.855485,-9954.142016
4976.822350,1091.127106,1971.685822,-9494.720077
4976.824931,497.707101,267.996131,-9992.427178
4976.827512,-842.273555,-191.425808,-9781.858789
4976.830094,-1129.412267,2431.107762,-9418.149754
4976.832675,-1244.267752,-612.562586,-10624.132344
4976.835256,-803.988394,1435.693560,-9801.001370
4976.837837,-555.134843,1148.554848,-9379.864592
4976.840419,574.277424,535.992262,-9820.143950
4976.843000,-650.847747,746.560651,-9877.571693
4976.845581,19.142581,823.130974,-9954.142016
4976.848163,325.423874,823.130974,-9954.142016
4976.850744,1205.982590,153.140646,-9858.429112
4976.853325,-842.273555,1512.263883,-9360.722011
4976.855906,-2163.111630,-19.142581,-9934.999435
4976.858488,-2947.957443,976.271621,-10164.710405
4976.861069,-2507.678085,1741.974853,-9839.286531
4976.863650,-899.701298,-153.140646,-10011.569758
4976.866231,3081.955509,1684.547110,-9265.009107
4976.868813,-1129.412267,-382.851616,-9820.143950
4976.871394,-3464.807125,1282.552914,-9954.142016
4976.873975,1569.691626,459.421939,-9820.143950
4976.876557,-1646.261949,363.709035,-10260.423309
4976.879138,-1435.693560,1607.976787,-9494.720077
4976.881719,1301.695494,880.558717,-9513.862658
4976.884300,-2201.396792,-95.712904,-10126.425243
4976.886882,2794.816797,2124.826469,-9820.143950
4976.889463,3426.521963,-1282.552914,-10049.854920
4976.892044,2450.250342,1186.840010,-9533.005238
4976.894625,-1301.695494,459.421939,-9724.431046
4976.897207,823.130974,669.990328,-9494.720077
4976.899788,2890.529701,1378.265818,-9647.860723
4976.902369,1895.115499,421.136778,-10164.710405
4976.904951,1569.691626,1454.836141,-9533.005238
4976.907532,-1186.840010,248.853550,-9915.856854
4976.910113,516.849682,267.996131,-9915.856854
4976.912694,4479.363907,1550.549045,-9896.714274
4976.915236,3196.810994,-1148.554848,-10375.278794
4976.917777,-1110.269686,1780.260014,-9092.725880
4976.920318,306.281293,937.986459,-9686.145885
4976.922859,842.273555,-133.998066,-10222.138147
4976.925400,1110.269686,1703.689691,-9801.001370
4976.927942,535.992262,133.998066,-9801.001370
4976.930483,689.132909,555.134843,-9609.575562
4976.933024,2239.681954,1071.984525,-9571.290400
4976.935565,2603.390989,535.992262,-10030.712339
4976.938106,3694.518094,727.418070,-9973.284597
4976.940647,3101.098090,803.988394,-9628.718142
4976.943189,-861.416136,497.707101,-9801.001370
4976.945730,-3349.951640,842.273555,-9686.145885
4976.948271,2967.100024,-114.855485,-9858.429112
4976.950812,4804.787781,1895.115499,-9781.858789
4976.953353,2163.111630,497.707101,-9724.431046
4976.955895,1627.119368,-229.710970,-9801.001370
4976.958436,-2641.676150,1799.402595,-9418.149754
4976.960977,306.281293,-459.421939,-10279.565890
4976.963518,-650.847747,1627.119368,-9781.858789
4976.966059,2718.246474,1454.836141,-9724.431046
4976.968601,306.281293,-1225.125171,-9743.573627
4976.971142,-5761.916821,2124.826469,-9360.722011
4976.973683,-1110.269686,-803.988394,-10624.132344
4976.976224,2622.533570,2660.818731,-9360.722011
4976.978765,229.710970,-325.423874,-10317.851051
4976.981307,-459.421939,650.847747,-9552.147819
4976.983848,-478.564520,1416.550979,-9016.155557
4976.986389,-1741.974853,-76.570323,-10183.852986
4976.988930,-1627.119368,1129.412267,-10394.421374
4976.991471,440.279358,803.988394,-9628.718142
4976.994012,-555.134843,401.994197,-9513.862658
4976.996554,133.998066,516.849682,-9667.003304
4976.999095,344.566454,937.986459,-9934.999435
4977.001636,306.281293,765.703232,-10241.280728
4977.004177,-899.701298,593.420005,-9762.716208
4977.006718,593.420005,612.562586,-9437.292334
4977.009260,-1914.258080,1148.554848,-9781.858789
4977.011801,-3464.807125,-95.712904,-10222.138147
4977.014342,-1722.832272,1569.691626,-9781.858789
4977.016890,612.562586,803.988394,-9973.284597
4977.019437,2450.250342,459.421939,-9820.143950
4977.021985,-1148.554848,191.425808,-9456.434915
4977.024533,-2526.820666,1167.697429,-10145.567824
4977.027081,1397.408398,995.414202,-10030.712339
4977.029628,-1416.550979,229.710970,-9915.856854
4977.032176,-708.275490,1397.408398,-9456.434915
4977.034724,-76.570323,727.418070,-9667.003304
4977.037271,555.134843,-95.712904,-10030.712339
4977.039819,1933.400661,2565.105827,-9762.716208
4977.042367,3407.379382,-1359.123237,-10241.280728
4977.044914,2239.681954,1473.978722,-9494.720077
4977.047462,-2526.820666,-669.990328,-10183.852986
4977.050010,650.847747,1148.554848,-9475.577496
4977.052558,4785.645200,1512.263883,-9839.286531
4977.055105,1186.840010,-306.281293,-10509.276859
4977.057653,842.273555,2392.822600,-8786.444587
4977.060201,-248.853550,114.855485,-9686.145885
4977.062748,287.138712,535.992262,-10107.282662
4977.065296,5130.211654,1550.549045,-9686.145885
4977.067844,2009.970984,133.998066,-10241.280728
4977.070392,57.427742,727.418070,-9399.007173
4977.072939,459.421939,459.421939,-9590.432981
4977.075487,1014.556782,535.992262,-10107.282662
4977.078035,363.709035,1110.269686,-10126.425243
4977.080582,2105.683888,957.129040,-9590.432981
4977.083130,746.560651,535.992262,-9552.147819
4977.085678,1493.121302,-210.568389,-9724.431046
4977.088225,4307.080680,1607.976787,-9456.434915
4977.090773,4383.651003,459.421939,-10260.423309
4977.093321,784.845813,0.000000,-10088.140082
4977.095869,-2124.826469,1856.830338,-9150.153622
4977.098416,1454.836141,-1359.123237,-10241.280728
4977.100964,4594.219392,2641.676150,-9494.720077
4977.103512,2239.681954,421.136778,-10279.565890
4977.106059,2909.672282,172.283227,-9801.001370
4977.108607,-1454.836141,1952.543242,-8652.446522
4977.111155,-2316.252277,325.423874,-10011.569758
4977.113703,535.992262,535.992262,-10202.995566
4977.116250,1703.689691,2182.254211,-9667.003304
4977.118768,708.275490,-1320.838075,-10202.995566
4977.121285,-4785.645200,1320.838075,-9303.294269
4977.123802,-1186.840010,19.142581,-10088.140082
4977.126320,1033.699363,1320.838075,-9839.286531
4977.128837,229.710970,842.273555,-9915.856854
4977.131355,267.996131,1205.982590,-9877.571693
4977.133872,-1052.841944,153.140646,-9877.571693
4977.136389,-1397.408398,1091.127106,-9456.434915
4977.138907,-689.132909,708.275490,-10202.995566
4977.141424,-229.710970,861.416136,-10451.849117
4977.143941,-363.709035,650.847747,-9207.581365
4977.146459,421.136778,1167.697429,-9456.434915
4977.148976,-593.420005,-76.570323,-10183.852986
4977.151494,-76.570323,861.416136,-10030.712339
4977.154011,325.423874,1818.545176,-9781.858789
4977.156528,-382.851616,19.142581,-10241.280728
4977.159046,-2105.683888,842.273555,-9475.577496
4977.161563,-2220.539373,1091.127106,-9571.290400
4977.164080,-1282.552914,267.996131,-10279.565890
4977.166598,784.845813,803.988394,-9801.001370
4977.169115,-229.710970,593.420005,-9973.284597
4977.171633,-2297.109696,861.416136,-9513.862658
4977.174150,612.562586,535.992262,-9609.575562
4977.176667,-172.283227,1818.545176,-10336.993632
4977.179185,-842.273555,-325.423874,-10298.708470
4977.181702,746.560651,669.990328,-9494.720077
4977.184220,-3713.660675,957.129040,-9705.288466
4977.186737,3617.947771,19.142581,-9839.286531
4977.189254,2450.250342,2105.683888,-9513.862658
4977.191772,1895.115499,784.845813,-10088.140082
4977.194289,1780.260014,2163.111630,-9035.298138
4977.196806,-784.845813,-1033.699363,-10126.425243
4977.199324,-38.285162,1933.400661,-9839.286531
4977.201841,5723.631659,823.130974,-9934.999435
4977.204359,1818.545176,-593.420005,-10336.993632
4977.206876,-1129.412267,2258.824534,-9245.866526
4977.209393,535.992262,-1052.841944,-9801.001370
4977.211911,1531.406464,1895.115499,-9552.147819
4977.214428,4460.221326,574.277424,-10260.423309
4977.216945,1282.552914,803.988394,-9303.294269
4977.219474,-114.855485,1416.550979,-9571.290400
4977.222002,-1071.984525,-153.140646,-10088.140082
4977.224530,1665.404530,1244.267752,-9647.860723
4977.227058,2928.814862,1339.980656,-9896.714274
4977.229586,-1129.412267,382.851616,-10049.854920
4977.232115,2986.242605,306.281293,-9150.153622
4977.234643,3426.521963,1359.123237,-9456.434915
4977.237171,3235.096155,19.142581,-10375.278794
4977.239699,631.705166,1301.695494,-9571.290400
4977.242228,-2182.254211,1378.265818,-9762.716208
4977.244756,899.701298,-899.701298,-10011.569758
4977.247284,4709.074877,2354.537438,-9169.296203
4977.249812,1435.693560,287.138712,-10356.136213
4977.252340,2641.676150,133.998066,-10088.140082
4977.254869,-1205.982590,2354.537438,-8748.159426
4977.257397,-2105.683888,38.285162,-10107.282662
4977.259925,172.283227,555.134843,-10049.854920
4977.262453,1684.547110,2526.820666,-9781.858789
4977.264981,325.423874,-1454.836141,-10317.851051
4977.267510,-5091.926493,1493.121302,-9341.579430
4977.270038,-937.986459,459.421939,-10145.567824
4977.272566,1473.978722,803.988394,-9724.431046
4977.275094,114.855485,1110.269686,-9609.575562
4977.277622,-191.425808,1186.840010,-9934.999435
4977.280151,-1320.838075,38.285162,-9954.142016
4977.282679,-1531.406464,1722.832272,-9265.009107
4977.285207,-497.707101,593.420005,-10145.567824
4977.287735,-669.990328,-133.998066,-10260.423309
4977.290264,-229.710970,1071.984525,-9169.296203
4977.292792,306.281293,1205.982590,-9552.147819
4977.295320,-1167.697429,-229.710970,-10336.993632
4977.297848,899.701298,1244.267752,-9686.145885
4977.300376,-1320.838075,1435.693560,-9781.858789
4977.302905,-1148.554848,-325.423874,-10279.565890
4977.305433,-1971.685822,1607.976787,-9513.862658
4977.307961,-2392.822600,727.418070,-9820.143950
4977.310489,1167.697429,267.996131,-10049.854920
4977.313017,631.705166,1722.832272,-9647.860723
4977.315546,-1933.400661,95.712904,-9896.714274
4977.318074,-1818.545176,995.414202,-9667.003304
4977.320612,2201.396792,1493.121302,-10011.569758
4977.323149,-1339.980656,-153.140646,-10164.710405
4977.325687,-1780.260014,1225.125171,-9743.573627
4977.328225,-3139.383251,1282.552914,-9628.718142
4977.330762,3771.088418,-19.142581,-9858.429112
4977.333300,2354.537438,1818.545176,-9724.431046
4977.335838,2335.394858,-287.138712,-10107.282662
4977.338376,3560.520029,1550.549045,-9513.862658
4977.340913,-2565.105827,-516.849682,-10241.280728
4977.343451,-401.994197,1416.550979,-9724.431046
4977.345989,5264.209720,287.138712,-10126.425243
4977.348526,2450.250342,-306.281293,-10432.706536
4977.351064,-1052.841944,2526.820666,-8977.870395
4977.353602,-172.283227,-1110.269686,-9820.143950
4977.356140,574.277424,2105.683888,-9571.290400
4977.358677,3924.229064,1148.554848,-10107.282662
4977.361215,3675.375514,-497.707101,-10068.997501
4977.363753,-133.998066,1722.832272,-9226.723946
4977.366290,-593.420005,325.423874,-9915.856854
4977.368828,995.414202,421.136778,-9896.714274
4977.371366,1627.119368,1301.695494,-9839.286531
4977.373903,1761.117434,440.279358,-9781.858789
4977.376441,2565.105827,727.418070,-9494.720077
4977.378979,4077.369710,861.416136,-9571.290400
4977.381517,1914.258080,957.129040,-9858.429112
4977.384054,-1205.982590,344.566454,-10222.138147
4977.386592,267.996131,2258.824534,-9571.290400
4977.389130,3158.525832,-229.710970,-9801.001370
4977.391667,3369.094221,593.420005,-9686.145885
4977.394205,2641.676150,2029.113565,-9609.575562
4977.396743,803.988394,-995.414202,-10183.852986
4977.399281,-4173.082614,1091.127106,-9743.573627
4977.401818,2565.105827,689.132909,-9762.716208
4977.404356,-842.273555,593.420005,-9839.286531
4977.406894,899.701298,631.705166,-10164.710405
4977.409431,19.142581,1646.261949,-9322.436850
4977.411969,-5895.914886,784.845813,-10011.569758
4977.414507,95.712904,-535.992262,-10298.708470
4977.417044,2641.676150,2794.816797,-9322.436850
4977.419582,-363.709035,-1416.550979,-10719.845248
4977.422095,-2373.680019,1933.400661,-9533.005238
4977.424609,-765.703232,842.273555,-9609.575562
4977.427122,-861.416136,-880.558717,-10356.136213
4977.429635,401.994197,2220.539373,-9877.571693
4977.432149,574.277424,172.283227,-9992.427178
4977.434662,-1914.258080,-306.281293,-9992.427178
4977.437175,-57.427742,1856.830338,-9360.722011
4977.439688,1837.687757,191.425808,-10241.280728
4977.442202,-229.710970,382.851616,-10068.997501
4977.444715,-344.566454,1435.693560,-9360.722011
4977.447228,-2105.683888,593.420005,-10049.854920
4977.449742,-2660.818731,76.570323,-10145.567824
4977.452255,153.140646,1703.689691,-9475.577496
4977.454768,382.851616,823.130974,-10126.425243
4977.457281,-1799.402595,-172.283227,-9954.142016
4977.459795,-1569.691626,2086.541307,-9150.153622
4977.462308,2622.533570,459.421939,-10202.995566
4977.464821,-1627.119368,-229.710970,-10241.280728
4977.467334,-1722.832272,1741.974853,-9533.005238
4977.469848,-2679.961312,19.142581,-10336.993632
4977.472361,3828.516160,-95.712904,-9724.431046
4977.474874,3081.955509,2986.242605,-9245.866526
4977.477388,2909.672282,-1875.972918,-10700.702667
4977.479901,2986.242605,1856.830338,-9341.579430
4977.482414,-3120.240670,497.707101,-9762.716208
4977.484927,76.570323,287.138712,-9781.858789
4977.487441,5034.498750,1359.123237,-9513.862658
4977.489954,2622.533570,1282.552914,-9934.999435
4977.492467,-401.994197,1799.402595,-9169.296203
4977.494981,-574.277424,287.138712,-9456.434915
4977.497494,-669.990328,1397.408398,-9934.999435
4977.500007,3656.232933,516.849682,-10145.567824
4977.502520,4441.078746,689.132909,-9667.003304
4977.505034,57.427742,957.129040,-9475.577496
4977.507547,-1033.699363,-191.425808,-10088.140082
4977.510060,1378.265818,1435.693560,-9437.292334
4977.512574,1473.978722,1014.556782,-9992.427178
4977.515087,2392.822600,880.558717,-9858.429112
4977.517600,3311.666478,1741.974853,-8958.727814
4977.520113,2679.961312,-555.134843,-9973.284597
4977.522639,746.560651,976.271621,-9724.431046
4977.525164,-1799.402595,1722.832272,-9628.718142
4977.527689,1933.400661,-823.130974,-10336.993632
4977.530215,4211.367776,2067.398726,-9245.866526
4977.532740,1971.685822,0.000000,-9781.858789
4977.535265,2622.533570,1014.556782,-9705.288466
4977.537791,-191.425808,1225.125171,-9494.720077
4977.540316,-727.418070,574.277424,-9820.143950
4977.542841,440.279358,-95.712904,-10088.140082
4977.545367,1473.978722,2201.396792,-9245.866526
4977.547892,-114.855485,-918.843878,-10260.423309
4977.550417,-3656.232933,1320.838075,-9839.286531
4977.552943,-1799.402595,861.416136,-10068.997501
4977.555468,631.705166,344.566454,-9628.718142
4977.557993,2928.814862,1148.554848,-9571.290400
4977.560519,-191.425808,-287.138712,-10126.425243
4977.563044,-2967.100024,650.847747,-9724.431046
4977.565569,-1799.402595,1110.269686,-9915.856854
4977.568095,765.703232,1091.127106,-10011.569758
4977.570620,-421.136778,899.701298,-9877.571693
4977.573146,210.568389,708.275490,-9437.292334
4977.575671,-440.279358,1071.984525,-9705.288466
4977.578196,-918.843878,535.992262,-9934.999435
4977.580722,1339.980656,440.279358,-10030.712339
4977.583247,-861.416136,1454.836141,-9820.143950
4977.585772,-2526.820666,-133.998066,-9858.429112
4977.588298,-3081.955509,1033.699363,-9877.571693
4977.590823,19.142581,1397.408398,-9724.431046
4977.593348,-133.998066,248.853550,-10375.278794
4977.595874,-899.701298,1225.125171,-9686.145885
4977.598399,-516.849682,1167.697429,-9303.294269
4977.600924,1818.545176,669.990328,-9820.143950
4977.603460,-1263.410333,57.427742,-10011.569758
4977.605996,-2641.676150,1818.545176,-9724.431046
4977.608531,-1071.984525,478.564520,-9801.001370
4977.611067,4919.643266,267.996131,-9590.432981
4977.613603,3541.377448,2603.390989,-9379.864592
4977.616138,2545.963246,-1856.830338,-10758.130410
4977.618674,3120.240670,2239.681954,-9284.151688
4977.621210,-3445.664544,133.998066,-10049.854920
4977.623745,38.285162,229.710970,-9915.856854
4977.626281,5666.203917,1339.980656,-9590.432981
4977.628817,2737.389054,1091.127106,-9934.999435
4977.631352,1952.543242,727.418070,-9475.577496
4977.633888,-1416.550979,976.271621,-9724.431046
4977.636424,-172.283227,1225.125171,-9858.429112
4977.638959,3311.666478,823.130974,-9973.284597
4977.641495,4153.940034,803.988394,-9647.860723
4977.644031,650.847747,1263.410333,-9341.579430
4977.646566,-1588.834206,-19.142581,-10030.712339
4977.649102,1014.556782,1607.976787,-9533.005238
4977.651638,3464.807125,995.414202,-10011.569758
4977.654174,2469.392923,95.712904,-10107.282662
4977.656709,3962.514226,1933.400661,-9054.440718
4977.659245,1933.400661,-440.279358,-10030.712339
4977.661781,-1167.697429,1014.556782,-9686.145885
4977.664316,114.855485,1703.689691,-9954.142016
4977.666852,4287.938099,-535.992262,-10145.567824
4977.669388,2833.101958,1186.840010,-9303.294269
4977.671923,2105.683888,1818.545176,-9609.575562
4977.674459,1263.410333,-1569.691626,-10375.278794
4977.676995,-3177.668413,1569.691626,-9647.860723
4977.679530,2450.250342,784.845813,-10011.569758
4977.682066,-612.562586,-133.998066,-9934.999435
4977.684602,612.562586,229.710970,-9686.145885
4977.687137,-957.129040,2431.107762,-9131.011042
4977.689673,-5245.067139,19.142581,-10719.845248
4977.692209,95.712904,-19.142581,-10068.997501
4977.694744,3177.668413,2890.529701,-9131.011042
4977.697280,-191.425808,-2067.398726,-10719.845248
4977.699816,-2048.256146,2699.103893,-9131.011042
4977.702351,-1588.834206,229.710970,-9858.429112
4977.704896,-2220.539373,-19.142581,-10241.280728
4977.707441,-133.998066,2335.394858,-9896.714274
4977.709985,1493.121302,-401.994197,-9762.716208
4977.712530,-1473.978722,401.994197,-9724.431046
4977.715075,-976.271621,1684.547110,-9724.431046
4977.717619,2067.398726,19.142581,-10317.851051
4977.720164,-861.416136,976.271621,-9954.142016
4977.722709,-1799.402595,1091.127106,-9475.577496
4977.725253,-1837.687757,401.994197,-9647.860723
4977.727798,-1856.830338,306.281293,-10222.138147
4977.730342,-918.843878,1569.691626,-9858.429112
4977.732887,-555.134843,957.129040,-9820.143950
4977.735432,1799.402595,401.994197,-9801.001370
4977.737976,650.847747,1799.402595,-9571.290400
4977.740521,-1493.121302,-1129.412267,-10202.995566
4977.743066,-2699.103893,937.986459,-9858.429112
4977.745610,-4594.219392,976.271621,-10030.712339
4977.748155,5206.781978,-267.996131,-9743.573627
4977.750699,4096.512291,2469.392923,-9265.009107
4977.753244,1703.689691,-382.851616,-10260.423309
4977.755789,2029.113565,1244.267752,-9686.145885
4977.758333,-3330.809059,-19.142581,-10317.851051
4977.760878,-172.283227,1416.550979,-9705.288466
4977.763423,6699.903280,-535.992262,-10030.712339
4977.765967,3235.096155,1473.978722,-9667.003304
4977.768512,-880.558717,1837.687757,-9284.151688
4977.771057,-669.990328,-842.273555,-10049.854920
4977.773601,-746.560651,2526.820666,-9533.005238
4977.776146,4307.080680,287.138712,-10088.140082
4977.778690,2890.529701,19.142581,-9896.714274
4977.781235,899.701298,2182.254211,-9131.011042
4977.783780,-535.992262,-440.279358,-10068.997501
4977.786324,918.843878,899.701298,-10068.997501
4977.788869,2967.100024,1512.263883,-9494.720077
4977.791414,3809.373579,57.427742,-10030.712339
4977.793958,2488.535504,1225.125171,-9379.864592
4977.796503,-401.994197,535.992262,-9628.718142
4977.799047,-1091.127106,1167.697429,-10279.565890
4977.801592,3196.810994,478.564520,-9934.999435
4977.804137,4919.643266,1186.840010,-9494.720077
4977.806688,516.849682,191.425808,-9954.142016
4977.809240,2239.681954,-133.998066,-9724.431046
4977.811791,-1818.545176,2373.680019,-9245.866526
4977.814343,-669.990328,-765.703232,-10853.843314
4977.816894,-689.132909,1569.691626,-9322.436850
4977.819446,1761.117434,1301.695494,-9647.860723
4977.821997,-612.562586,-1263.410333,-10164.710405
4977.824548,-5685.346498,2411.965181,-9360.722011
4977.827100,-746.560651,-229.710970,-10451.849117
4977.829651,1875.972918,708.275490,-9877.571693
4977.832203,2029.113565,1780.260014,-9245.866526
4977.834754,-382.851616,-191.425808,-9858.429112
4977.837306,-4173.082614,172.283227,-10088.140082
4977.839857,-1780.260014,2009.970984,-9341.579430
4977.842409,1071.984525,478.564520,-10356.136213
4977.844960,459.421939,306.281293,-9896.714274
4977.847512,-1110.269686,2009.970984,-8824.729749
4977.850063,-440.279358,-153.140646,-9973.284597
4977.852615,1091.127106,669.990328,-10088.140082
4977.855166,229.710970,2124.826469,-9705.288466
4977.857718,-1129.412267,-555.134843,-10183.852986
4977.860269,-1627.119368,1167.697429,-9265.009107
4977.862820,-2220.539373,1435.693560,-9781.858789
4977.865372,-2718.246474,-1473.978722,-10451.849117
4977.867923,0.000000,2699.103893,-9341.579430
4977.870475,3311.666478,19.142581,-10011.569758
4977.873026,382.851616,267.996131,-9877.571693
4977.875578,-2469.392923,1110.269686,-9284.151688
4977.878129,-1703.689691,363.709035,-10088.140082
4977.880681,-4460.221326,669.990328,-10432.706536
4977.883232,5474.778109,1282.552914,-9303.294269
4977.885784,4575.076811,1435.693560,-9743.573627
4977.888335,1052.841944,153.140646,-9781.858789
4977.890887,440.279358,3503.092286,-8977.870395
4977.893438,-2201.396792,-2182.254211,-11045.269122
4977.895990,-689.132909,1684.547110,-9839.286531
4977.898541,7274.180704,1071.984525,-9456.434915
4977.901092,3924.229064,-746.560651,-10413.563955
4977.903644,-746.560651,1799.402595,-9169.296203
4977.906195,-1186.840010,1225.125171,-9456.434915
4977.908753,-287.138712,746.560651,-10279.565890
4977.911310,4326.223261,650.847747,-9973.284597
4977.913867,3732.803256,995.414202,-9131.011042
4977.916425,-1493.121302,0.000000,-10202.995566
4977.918982,401.994197,708.275490,-9820.143950
4977.921539,2392.822600,1722.832272,-9686.145885
4977.924096,2909.672282,76.570323,-10700.702667
4977.926654,4134.797453,765.703232,-9513.862658
4977.929211,1665.404530,1301.695494,-9169.296203
4977.931768,-1186.840010,-287.138712,-10241.280728
4977.934326,-38.285162,861.416136,-9973.284597
4977.936883,3828.516160,1971.685822,-9915.856854
4977.939440,2469.392923,-1301.695494,-10260.423309
4977.941998,2660.818731,2220.539373,-9073.583299
4977.944555,133.998066,918.843878,-9437.292334
4977.947112,-2833.101958,325.423874,-10356.136213
4977.949669,2182.254211,1435.693560,-9896.714274
4977.952227,-842.273555,1359.123237,-9475.577496
4977.954784,382.851616,-1512.263883,-10126.425243
4977.957341,-1684.547110,3560.520029,-8422.735552
4977.959899,-4077.369710,823.130974,-10317.851051
4977.962456,133.998066,-593.420005,-9992.427178
4977.965013,3024.527766,3426.521963,-8671.589102
4977.967570,19.142581,-2354.537438,-10681.560086
4977.970128,-3273.381317,2029.113565,-9399.007173
4977.972685,-1588.834206,1091.127106,-9456.434915
4977.975242,-516.849682,-363.709035,-10624.132344
4977.977800,1263.410333,1244.267752,-10030.712339
4977.980357,1014.556782,937.986459,-9341.579430
4977.982914,-1741.974853,-248.853550,-9992.427178
4977.985472,497.707101,765.703232,-9552.147819
4977.988029,421.136778,1952.543242,-9820.143950
4977.990586,-2411.965181,-574.277424,-10758.130410
4977.993143,-593.420005,1225.125171,-9092.725880
4977.995701,-1971.685822,2143.969050,-9341.579430
4977.998258,-3943.371645,-1780.260014,-10547.562021
4978.000815,-153.140646,2947.957443,-9169.296203
4978.003373,3158.525832,593.420005,-10049.854920
4978.005930,1205.982590,306.281293,-10030.712339
4978.008487,-1684.547110,784.845813,-9169.296203
4978.011050,-1339.980656,650.847747,-9724.431046
4978.013612,-4670.789715,57.427742,-10604.989763
4978.016174,6393.621987,2029.113565,-9322.436850
4978.018737,4881.358104,708.275490,-9686.145885
4978.021299,1512.263883,-478.564520,-9724.431046
4978.023862,1033.699363,3235.096155,-8939.585234
4978.026424,-3503.092286,-1665.404530,-10968.698798
4978.028986,-631.705166,1684.547110,-9820.143950
4978.031549,7293.323285,976.271621,-9513.862658
4978.034111,4211.367776,-1052.841944,-10298.708470
4978.036674,-1282.552914,2239.681954,-9073.583299
4978.039236,-1493.121302,669.990328,-9743.573627
4978.041798,-1148.554848,708.275490,-10470.991698
4978.044361,3885.943902,650.847747,-9915.856854
4978.046923,4977.071008,1550.549045,-9188.438784
4978.049485,-1014.556782,-306.281293,-9992.427178
4978.052048,-1320.838075,689.132909,-9743.573627
4978.054610,3981.656806,2220.539373,-9609.575562
4978.057173,3541.377448,-344.566454,-10719.845248
4978.059735,2852.244539,1454.836141,-9111.868461
4978.062297,765.703232,650.847747,-9399.007173
4978.064860,-957.129040,95.712904,-10413.563955
4978.067422,2258.824534,1282.552914,-9686.145885
4978.069985,4996.213589,1167.697429,-9934.999435
4978.072547,650.847747,-19.142581,-10222.138147
4978.075109,2756.531635,-153.140646,-9360.722011
4978.077672,-1416.550979,2124.826469,-9284.151688
4978.080234,-382.851616,-535.992262,-10930.413637
4978.082797,-229.710970,1167.697429,-9915.856854
4978.085359,1454.836141,1129.412267,-9552.147819
4978.087921,-401.994197,-957.129040,-9801.001370
4978.090484,-5417.350366,1933.400661,-9571.290400
4978.093046,-842.273555,-133.998066,-10758.130410
4978.095609,1875.972918,1129.412267,-9877.571693
4978.098171,1818.545176,1454.836141,-9571.290400
4978.100733,-937.986459,-363.709035,-9954.142016
4978.103296,-4287.938099,1244.267752,-9628.718142
4978.105858,-1416.550979,1186.840010,-9552.147819
4978.108421,1129.412267,784.845813,-10183.852986
4978.110983,459.421939,555.134843,-9667.003304
4978.113549,114.855485,1167.697429,-9073.583299
4978.116115,-1282.552914,-191.425808,-9992.427178
4978.118681,-1607.976787,937.986459,-10068.997501
4978.121248,19.142581,1837.687757,-9762.716208
4978.123814,95.712904,-880.558717,-10336.993632
4978.126380,-2545.963246,1684.547110,-9494.720077
4978.128946,-3369.094221,172.283227,-9571.290400
4978.131512,-1971.685822,287.138712,-10202.995566
4978.134078,4000.799387,1569.691626,-9858.429112
4978.136644,1684.547110,918.843878,-9705.288466
4978.139210,-1875.972918,-899.701298,-9877.571693
4978.141776,-3177.668413,1397.408398,-9245.866526
4978.144342,-5245.067139,1033.699363,-10183.852986
4978.146909,4345.365842,-76.570323,-10470.991698
4978.149475,5800.201982,2852.244539,-9245.866526
4978.152041,3503.092286,-1244.267752,-9801.001370
4978.154607,2392.822600,1167.697429,-9360.722011
4978.157173,-3656.232933,-765.703232,-10451.849117
4978.159739,-899.701298,1722.832272,-9934.999435
4978.162305,7561.319416,-153.140646,-10145.567824
4978.164871,4536.791650,1244.267752,-9265.009107
4978.167437,574.277424,727.418070,-9092.725880
4978.170004,-2029.113565,-38.285162,-10183.852986
4978.172570,-153.140646,2316.252277,-9973.284597
4978.175136,3024.527766,-535.992262,-10604.989763
4978.177702,4326.223261,1129.412267,-8901.300072
4978.180268,114.855485,976.271621,-9207.581365
4978.182834,-1359.123237,-459.421939,-10375.278794
4978.185400,2813.959378,2143.969050,-9801.001370
4978.187966,5053.641331,593.420005,-10068.997501
4978.190532,3062.812928,-421.136778,-9877.571693
4978.193099,133.998066,1531.406464,-8958.727814
4978.195665,1186.840010,-555.134843,-10222.138147
4978.198231,2450.250342,1722.832272,-10260.423309
4978.200797,2335.394858,727.418070,-10030.712339
4978.203363,3407.379382,1282.552914,-9533.005238
4978.205929,1186.840010,-76.570323,-9322.436850
4978.208495,-3426.521963,1780.260014,-9188.438784
4978.211061,2890.529701,287.138712,-10566.704602
4978.213627,-2220.539373,880.558717,-10241.280728
4978.216197,421.136778,1033.699363,-9533.005238
4978.218766,-1895.115499,1665.404530,-9073.583299
4978.221335,-2909.672282,803.988394,-10068.997501
4978.223905,-306.281293,306.281293,-10202.995566
4978.226474,3043.670347,2029.113565,-9820.143950
4978.229043,-210.568389,-1588.834206,-10317.851051
4978.231612,-2201.396792,2067.398726,-8748.159426
4978.234182,-3062.812928,-287.138712,-10298.708470
4978.236751,-708.275490,344.566454,-10202.995566
4978.239320,2029.113565,2297.109696,-9839.286531
4978.241890,842.273555,-650.847747,-10336.993632
4978.244459,-1320.838075,1435.693560,-9265.009107
4978.247028,-2182.254211,516.849682,-9724.431046
4978.249597,-19.142581,344.566454,-10604.989763
4978.252167,421.136778,1684.547110,-9934.999435
4978.254736,-1416.550979,535.992262,-9724.431046
4978.257305,-4747.360038,-708.275490,-9762.716208
4978.259875,-2297.109696,2163.111630,-9303.294269
4978.262444,1378.265818,325.423874,-10336.993632
4978.265013,3598.805190,1033.699363,-10317.851051
4978.267582,-114.855485,516.849682,-9360.722011
4978.270152,-3311.666478,114.855485,-9379.864592
4978.272721,-5570.491013,861.416136,-9992.427178
4978.275290,4421.936165,1339.980656,-9877.571693
4978.277860,5895.914886,1818.545176,-9954.142016
4978.280429,4211.367776,-1684.547110,-10049.854920
4978.282998,2584.248408,2545.963246,-8480.163294
4978.285567,-4651.647134,-478.564520,-10317.851051
4978.288137,-1148.554848,555.134843,-10183.852986
4978.290706,5359.922624,2833.101958,-9494.720077
4978.293275,4804.787781,-306.281293,-10164.710405
4978.295844,1186.840010,1014.556782,-8767.302006
4978.298414,-1588.834206,803.988394,-9379.864592
4978.300983,-1933.400661,765.703232,-10604.989763
4978.303552,2852.244539,899.701298,-10145.567824
4978.306122,3311.666478,1014.556782,-9437.292334
4978.308691,1627.119368,-19.142581,-9647.860723
4978.311260,516.849682,516.849682,-9705.288466
4978.313829,516.849682,1282.552914,-9839.286531
4978.316399,4651.647134,421.136778,-10317.851051
4978.318970,3866.801322,1435.693560,-9379.864592
4978.321542,-19.142581,765.703232,-9533.005238
4978.324113,1799.402595,-957.129040,-9781.858789
4978.326684,2373.680019,2545.963246,-9552.147819
4978.329256,459.421939,-382.851616,-10604.989763
4978.331827,3445.664544,1225.125171,-9839.286531
4978.334399,2048.256146,1473.978722,-8824.729749
4978.336970,-2335.394858,-38.285162,-9513.862658
4978.339541,2258.824534,593.420005,-10356.136213
4978.342113,-1091.127106,2986.242605,-9533.005238
4978.344684,-325.423874,-2565.105827,-10911.271056
4978.347255,-2335.394858,2431.107762,-8709.874264
4978.349827,-1914.258080,1493.121302,-9513.862658
4978.352398,708.275490,-1301.695494,-10585.847182
4978.354970,2852.244539,2813.959378,-9609.575562
4978.357541,-1397.408398,-535.992262,-10164.710405
4978.360112,-2335.394858,669.990328,-9379.864592
4978.362684,-2450.250342,401.994197,-9801.001370
4978.365255,-1263.410333,1550.549045,-9915.856854
4978.367827,1550.549045,440.279358,-10796.415571
4978.370398,1186.840010,593.420005,-9743.573627
4978.372969,-2431.107762,1454.836141,-9131.011042
4978.375541,-1378.265818,-478.564520,-9992.427178
4978.378112,1282.552914,1607.976787,-10068.997501
4978.380684,-2182.254211,1454.836141,-9877.571693
4978.383255,-2584.248408,-803.988394,-10279.565890
4978.385826,-3292.523898,1875.972918,-9245.866526
4978.388398,-2392.822600,0.000000,-9801.001370
4978.390969,4785.645200,1071.984525,-10298.708470
4978.393541,1091.127106,1493.121302,-9934.999435
4978.396112,-4402.793584,76.570323,-9686.145885
4978.398683,-3790.230998,1856.830338,-9245.866526
4978.401255,-2297.109696,-612.562586,-10451.849117
4978.403826,5972.485210,1875.972918,-9954.142016
4978.406397,6470.192310,-267.996131,-9954.142016
4978.408969,2699.103893,1225.125171,-9590.432981
4978.411540,-842.273555,1933.400661,-8824.729749
4978.414112,-2201.396792,-1761.117434,-10260.423309
4978.416683,1550.549045,2928.814862,-9839.286531
4978.419254,6202.196179,-689.132909,-10470.991698
4978.421828,6106.483275,593.420005,-9494.720077
4978.424401,-1761.117434,1646.261949,-9188.438784
4978.426974,-2201.396792,-976.271621,-10126.425243
4978.429548,803.988394,2067.398726,-9896.714274
4978.432121,1301.695494,593.420005,-10394.421374
4978.434694,4498.506488,76.570323,-9437.292334
4978.437268,1550.549045,1091.127106,-9265.009107
4978.439841,-133.998066,516.849682,-9858.429112
4978.442414,2488.535504,880.558717,-10164.710405
4978.444988,3005.385186,1244.267752,-10107.282662
4978.447561,555.134843,1435.693560,-9494.720077
4978.450134,3235.096155,-803.988394,-9571.290400
4978.452708,2718.246474,2009.970984,-9494.720077
4978.455281,-325.423874,153.140646,-10222.138147
4978.457854,2450.250342,1186.840010,-10088.140082
4978.460428,1895.115499,1320.838075,-9322.436850
4978.463001,114.855485,-153.140646,-9896.714274
4978.465574,1722.832272,210.568389,-10011.569758
4978.468148,-2009.970984,2794.816797,-9647.860723
4978.470721,-937.986459,-2124.826469,-10758.130410
4978.473294,-2928.814862,2603.390989,-8977.870395
4978.475868,-2373.680019,1071.984525,-9762.716208
4978.478441,1818.545176,-1244.267752,-10088.140082
4978.481015,3235.096155,2967.100024,-9341.579430
4978.483588,-363.709035,-957.129040,-10509.276859
4978.486161,-3426.521963,1091.127106,-9322.436850
4978.488735,-2277.967115,765.703232,-9552.147819
4978.491308,727.418070,612.562586,-10145.567824
4978.493881,803.988394,746.560651,-10030.712339
4978.496455,899.701298,267.996131,-10030.712339
4978.499028,-746.560651,1837.687757,-9322.436850
4978.501601,-1952.543242,-1091.127106,-10183.852986
4978.504175,976.271621,1320.838075,-9686.145885
4978.506748,-995.414202,1875.972918,-9915.856854
4978.509321,-4823.930362,-1761.117434,-10604.989763
4978.511895,-3637.090352,2833.101958,-9150.153622
4978.514468,3101.098090,-287.138712,-10088.140082
4978.517041,3101.098090,1263.410333,-9858.429112
4978.519615,-535.992262,421.136778,-9667.003304
4978.522188,-3445.664544,593.420005,-9628.718142
4978.524737,-4977.071008,765.703232,-9954.142016
4978.527287,1741.974853,229.710970,-9820.143950
4978.529837,5647.061336,2373.680019,-9571.290400
4978.532386,5436.492947,-1741.974853,-10279.565890
4978.534936,1837.687757,1799.402595,-9150.153622
4978.537485,-4345.365842,-937.986459,-10432.706536
4978.540035,-1665.404530,1148.554848,-9858.429112
4978.542584,5627.918755,1990.828403,-9552.147819
4978.545134,5627.918755,-440.279358,-10336.993632
4978.547683,2871.387120,746.560651,-9322.436850
4978.550233,-1071.984525,976.271621,-9379.864592
4978.552783,-2507.678085,-172.283227,-10279.565890
4978.555332,210.568389,1512.263883,-10202.995566
4978.557882,5053.641331,535.992262,-9954.142016
4978.560431,2316.252277,133.998066,-9437.292334
4978.562981,-401.994197,746.560651,-9590.432981
4978.565530,1550.549045,1129.412267,-9801.001370
4978.568080,2450.250342,172.283227,-10585.847182
4978.570629,2392.822600,1684.547110,-9475.577496
4978.573179,3235.096155,-38.285162,-9475.577496
4978.575729,2258.824534,995.414202,-9494.720077
4978.578278,-306.281293,880.558717,-9667.003304
4978.580828,1493.121302,1186.840010,-10317.851051
4978.583377,1895.115499,478.564520,-9647.860723
4978.585927,-823.130974,1473.978722,-8977.870395
4978.588476,4039.084549,-172.283227,-10107.282662
4978.591026,-2641.676150,1014.556782,-9858.429112
4978.593575,-1531.406464,976.271621,-9858.429112
4978.596125,-976.271621,1301.695494,-9513.862658
4978.598675,-2373.680019,957.129040,-9801.001370
4978.601224,1282.552914,-421.136778,-9686.145885
4978.603774,3369.094221,2297.109696,-9571.290400
4978.606323,-76.570323,-1320.838075,-10643.274925
4978.608873,-4096.512291,2105.683888,-9188.438784
4978.611422,-4192.225195,344.566454,-10145.567824
4978.613972,1856.830338,-363.709035,-9801.001370
4978.616522,2048.256146,2526.820666,-9284.151688
4978.619071,-631.705166,-535.992262,-10470.991698
4978.621621,-1397.408398,1761.117434,-9284.151688
4978.624170,325.423874,535.992262,-9628.718142
4978.626725,-2431.107762,344.566454,-10260.423309
4978.629280,-1550.549045,1933.400661,-9609.575562
4978.631835,-2507.678085,248.853550,-9724.431046
4978.634389,-4498.506488,650.847747,-9954.142016
4978.636944,3962.514226,1301.695494,-9571.290400
4978.639499,2852.244539,1320.838075,-9647.860723
4978.642054,-1780.260014,-842.273555,-10030.712339
4978.644609,-2737.389054,1646.261949,-9265.009107
4978.647164,-5398.207786,-95.712904,-10336.993632
4978.649718,4153.940034,708.275490,-9705.288466
4978.652273,6451.049730,2679.961312,-9284.151688
4978.654828,2565.105827,-1703.689691,-10624.132344
4978.657383,2354.537438,2239.681954,-8843.872330
4978.659938,-3560.520029,57.427742,-10145.567824
4978.662493,-1493.121302,727.418070,-10030.712339
4978.665047,6221.338760,1186.840010,-9724.431046
4978.667602,5283.352301,880.558717,-9858.429112
4978.670157,229.710970,-153.140646,-9667.003304
4978.672712,-918.843878,880.558717,-9513.862658
4978.675267,-2086.541307,1799.402595,-9877.571693
4978.677821,2565.105827,-401.994197,-10624.132344
4978.680376,4249.652938,1818.545176,-9284.151688
4978.682931,-210.568389,382.851616,-9609.575562
4978.685486,1148.554848,-95.712904,-9705.288466
4978.688041,2584.248408,2067.398726,-9571.290400
4978.690596,1186.840010,-57.427742,-10528.419440
4978.693150,3177.668413,574.277424,-9590.432981
4978.695705,4211.367776,1550.549045,-9131.011042
4978.698260,2067.398726,-382.851616,-9934.999435
4978.700815,-3062.812928,1473.978722,-9858.429112
4978.703370,2488.535504,612.562586,-9877.571693
4978.705925,1684.547110,1052.841944,-9647.860723
4978.708479,1761.117434,842.273555,-9705.288466
4978.711034,669.990328,497.707101,-9571.290400
4978.713589,-1263.410333,1933.400661,-9667.003304
4978.716144,-2469.392923,-1435.693560,-10815.558152
4978.718699,-3809.373579,1416.550979,-9743.573627
4978.721253,746.560651,-57.427742,-10183.852986
4978.723808,2488.535504,650.847747,-9245.866526
4978.726363,2029.113565,1761.117434,-9571.290400
4978.728922,-2603.390989,-535.992262,-10585.847182
4978.731482,-4613.361973,1473.978722,-9571.290400
4978.734041,-2201.396792,918.843878,-9590.432981
4978.736600,2392.822600,-497.707101,-10470.991698
4978.739160,229.710970,1875.972918,-9437.292334
4978.741719,-306.281293,95.712904,-9973.284597
4978.744278,-1148.554848,918.843878,-9820.143950
4978.746837,-727.418070,708.275490,-9781.858789
4978.749397,-1588.834206,995.414202,-10049.854920
4978.751956,-3924.229064,19.142581,-10030.712339
4978.754515,-3483.949706,842.273555,-10030.712339
4978.757075,1684.547110,1359.123237,-9781.858789
4978.759634,2622.533570,440.279358,-10202.995566
4978.762193,-57.427742,210.568389,-9475.577496
4978.764752,-2967.100024,1569.691626,-9571.290400
4978.767312,-3866.801322,306.281293,-10317.851051
4978.769871,3369.094221,1148.554848,-9590.432981
4978.772430,6661.618118,1722.832272,-9705.288466
4978.774990,4077.369710,-1454.836141,-10260.423309
4978.777549,1971.685822,2392.822600,-8997.012976
4978.780108,-3349.951640,-421.136778,-10298.708470
4978.782667,-1416.550979,516.849682,-9877.571693
4978.785227,3388.236802,2507.678085,-9552.147819
4978.787786,5838.487144,-976.271621,-10509.276859
4978.790345,4536.791650,1378.265818,-9035.298138
4978.792905,153.140646,478.564520,-9743.573627
4978.795464,-1607.976787,555.134843,-10375.278794
4978.798023,-267.996131,727.418070,-10202.995566
4978.800583,4900.500685,1091.127106,-9418.149754
4978.803142,2488.535504,19.142581,-9762.716208
4978.805701,669.990328,344.566454,-9667.003304
4978.808260,2124.826469,1799.402595,-9322.436850
4978.810823,1895.115499,-344.566454,-10509.276859
4978.813386,2392.822600,823.130974,-9877.571693
4978.815949,4517.649069,1780.260014,-9265.009107
4978.818512,2048.256146,-937.986459,-10336.993632
4978.821075,-1875.972918,3043.670347,-9169.296203
4978.823638,1244.267752,-210.568389,-10183.852986
4978.826201,708.275490,574.277424,-9973.284597
4978.828764,3617.947771,1780.260014,-9341.579430
4978.831326,-669.990328,-267.996131,-9571.290400
4978.833889,-1033.699363,1856.830338,-9705.288466
4978.836452,-2813.959378,-421.136778,-10432.706536
4978.839015,-4402.793584,1205.982590,-9858.429112
4978.841578,1033.699363,248.853550,-10030.712339
4978.844141,3388.236802,1837.687757,-8901.300072
4978.846704,2067.398726,-229.710970,-10183.852986
4978.849267,-3292.523898,995.414202,-10030.712339
4978.851830,-5474.778109,1895.115499,-9724.431046
4978.854393,-1014.556782,-784.845813,-10183.852986
4978.856955,2163.111630,1397.408398,-9877.571693
4978.859518,1014.556782,1914.258080,-9341.579430
4978.862081,76.570323,-1071.984525,-10317.851051
4978.864644,-2699.103893,1971.685822,-9284.151688
4978.867207,-918.843878,555.134843,-10068.997501
4978.869770,-2871.387120,-153.140646,-10298.708470
4978.872333,-3464.807125,2086.541307,-9265.009107
4978.874896,-1627.119368,-153.140646,-10241.280728
4978.877459,3101.098090,-76.570323,-10336.993632
4978.880022,1320.838075,1607.976787,-9647.860723
4978.882584,-3120.240670,287.138712,-10030.712339
4978.885147,-1569.691626,689.132909,-9934.999435
4978.887710,-5034.498750,497.707101,-10049.854920
4978.890273,5895.914886,1971.685822,-9820.143950
4978.892836,5915.057467,-1167.697429,-10088.140082
4978.895399,2201.396792,1971.685822,-9379.864592
4978.897962,-516.849682,2258.824534,-9111.868461
4978.900525,-2411.965181,-2565.105827,-10585.847182
4978.903088,-937.986459,4077.369710,-9092.725880
4978.905651,7810.172966,-612.562586,-10145.567824
4978.908213,6125.625856,325.423874,-9820.143950
4978.910776,-689.132909,1627.119368,-8958.727814
4978.913319,-1014.556782,-229.710970,-10030.712339
4978.915861,-555.134843,1933.400661,-9877.571693
4978.918404,2029.113565,-114.855485,-10375.278794
4978.920946,3139.383251,1148.554848,-9284.151688
4978.923489,1148.554848,306.281293,-9705.288466
4978.926031,421.136778,650.847747,-9628.718142
4978.928574,2488.535504,1205.982590,-10011.569758
4978.931116,2986.242605,401.994197,-10375.278794
4978.933659,4843.072942,1397.408398,-9054.440718
4978.936201,4039.084549,-267.996131,-9858.429112
4978.938744,-3081.955509,1952.543242,-9475.577496
4978.941286,363.709035,172.283227,-10088.140082
4978.943828,1110.269686,1071.984525,-10068.997501
4978.946371,2699.103893,1780.260014,-9667.003304
4978.948913,1990.828403,-631.705166,-9724.431046
4978.951456,-2201.396792,1895.115499,-9322.436850
4978.953998,-2584.248408,-497.707101,-10394.421374
4978.956541,-4441.078746,1818.545176,-9820.143950
4978.959083,-1186.840010,918.843878,-10222.138147
4978.961626,2603.390989,574.277424,-9150.153622
4978.964168,3196.810994,861.416136,-9590.432981
4978.966711,-2297.109696,-344.566454,-10470.991698
4978.969253,-5685.346498,1895.115499,-9590.432981
4978.971796,-1799.402595,191.425808,-10107.282662
4978.974338,2756.531635,19.142581,-10068.997501
4978.976881,0.000000,2009.970984,-9169.296203
4978.979423,57.427742,-784.845813,-10279.565890
4978.981965,-631.705166,1320.838075,-9896.714274
4978.984508,-880.558717,1033.699363,-9781.858789
4978.987050,-3579.662610,-210.568389,-10336.993632
4978.989593,-3101.098090,1761.117434,-9571.290400
4978.992135,-765.703232,229.710970,-9954.142016
4978.994678,3866.801322,842.273555,-10030.712339
4978.997220,-1416.550979,-516.849682,-9992.427178
4978.999763,-3158.525832,1837.687757,-9379.864592
4979.002305,-2852.244539,765.703232,-10088.140082
4979.004848,-1014.556782,-689.132909,-10107.282662
4979.007390,5532.205851,2909.672282,-9590.432981
4979.009933,6680.760699,-1971.685822,-10298.708470
4979.012475,2143.969050,2163.111630,-9265.009107
4979.015024,-1493.121302,1933.400661,-9131.011042
4979.017573,-1014.556782,-2163.111630,-10394.421374
4979.020122,-555.134843,4000.799387,-9322.436850
4979.022671,6297.909083,-1512.263883,-10528.419440
4979.025220,5838.487144,1933.400661,-8920.442653
4979.027769,-2201.396792,459.421939,-9590.432981
4979.030317,-2124.826469,-133.998066,-10107.282662
4979.032866,1646.261949,2105.683888,-9934.999435
4979.035415,2316.252277,172.283227,-10336.993632
4979.037964,918.843878,880.558717,-9513.862658
4979.040513,1607.976787,229.710970,-9686.145885
4979.043062,267.996131,1493.121302,-9494.720077
4979.045611,1550.549045,1148.554848,-10528.419440
4979.048160,6144.768437,478.564520,-9456.434915
4979.050709,4421.936165,1933.400661,-9169.296203
4979.053258,-1588.834206,-1531.406464,-10643.274925
4979.055807,-172.283227,2431.107762,-9322.436850
4979.058356,1282.552914,421.136778,-9915.856854
4979.060904,-746.560651,-38.285162,-10451.849117
4979.063453,6087.340694,1186.840010,-9571.290400
4979.066002,-1339.980656,516.849682,-9265.009107
4979.068551,-2411.965181,287.138712,-10183.852986
4979.071100,-2737.389054,3196.810994,-9150.153622
4979.073649,-3579.662610,440.279358,-10394.421374
4979.076198,1627.119368,-976.271621,-10183.852986
4979.078747,4307.080680,3541.377448,-8461.020714
4979.081296,440.279358,-1301.695494,-10241.280728
4979.083845,-5130.211654,1148.554848,-9762.716208
4979.086394,-3981.656806,2526.820666,-9628.718142
4979.088943,1282.552914,-1148.554848,-10222.138147
4979.091491,1359.123237,1225.125171,-9571.290400
4979.094040,191.425808,1282.552914,-9418.149754
4979.096589,-1799.402595,-306.281293,-10126.425243
4979.099138,-95.712904,1875.972918,-9705.288466
4979.101687,-4364.508422,574.277424,-10126.425243
4979.104236,-2833.101958,382.851616,-9839.286531
4979.106785,-957.129040,1091.127106,-9456.434915
4979.109334,2718.246474,784.845813,-9743.573627
4979.111883,842.273555,535.992262,-10030.712339
4979.114432,-3311.666478,421.136778,-9705.288466
4979.116980,-1875.972918,1895.115499,-9437.292334
4979.119534,-2986.242605,-1952.543242,-10662.417506
4979.122088,5800.201982,2890.529701,-9188.438784
4979.124642,5761.916821,306.281293,-9533.005238
4979.127196,1952.543242,-172.283227,-10222.138147
4979.129751,-76.570323,3694.518094,-8595.018779
4979.132305,-2507.678085,-2086.541307,-10413.563955
4979.134859,-880.558717,1971.685822,-9877.571693
4979.137413,6948.756830,957.129040,-9781.858789
4979.139967,5532.205851,19.142581,-10126.425243
4979.142521,-191.425808,631.705166,-9781.858789
4979.145075,-19.142581,1263.410333,-9245.866526
4979.147629,-593.420005,1071.984525,-9915.856854
4979.150183,937.986459,-708.275490,-10987.841379
4979.152737,3866.801322,2775.674216,-8786.444587
4979.155291,2277.967115,-765.703232,-9877.571693
4979.157845,325.423874,-76.570323,-9973.284597
4979.160399,2756.531635,3101.098090,-9303.294269
4979.162953,4977.071008,-1818.545176,-10643.274925
4979.165507,4307.080680,2201.396792,-9379.864592
4979.168061,-363.709035,153.140646,-9705.288466
4979.170615,-516.849682,210.568389,-10145.567824
4979.173170,1033.699363,1339.980656,-9437.292334
4979.175724,-516.849682,1186.840010,-10068.997501
4979.178278,4843.072942,-555.134843,-10643.274925
4979.180832,-1244.267752,1416.550979,-8977.870395
4979.183386,-2794.816797,593.420005,-9724.431046
4979.185940,-2469.392923,669.990328,-10011.569758
4979.188494,-4881.358104,1301.695494,-10126.425243
4979.191048,1071.984525,497.707101,-9954.142016
4979.193602,4249.652938,1837.687757,-9303.294269
4979.196156,172.283227,-114.855485,-9590.432981
4979.198710,-4862.215523,1473.978722,-9667.003304
4979.201264,-4153.940034,803.988394,-10413.563955
4979.203818,1052.841944,593.420005,-9896.714274
4979.206372,2699.103893,1320.838075,-9609.575562
4979.208926,95.712904,-325.423874,-9858.429112
4979.211480,-1454.836141,1071.984525,-9590.432981
4979.214034,-1339.980656,1186.840010,-9667.003304
4979.216588,-3215.953574,-516.849682,-10279.565890
4979.219147,-2584.248408,1646.261949,-9571.290400
4979.221706,803.988394,-153.140646,-9781.858789
4979.224265,4153.940034,1569.691626,-9667.003304
4979.226824,-1684.547110,401.994197,-9858.429112
4979.229382,-4077.369710,1186.840010,-9781.858789
4979.231941,-2354.537438,1320.838075,-9954.142016
4979.234500,-1493.121302,-421.136778,-9877.571693
4979.237059,6431.907149,1856.830338,-9475.577496
4979.239617,6029.912952,-1071.984525,-10068.997501
4979.242176,1129.412267,1378.265818,-9513.862658
4979.244735,-2584.248408,861.416136,-9896.714274
4979.247294,-803.988394,-401.994197,-9954.142016
4979.249852,1186.840010,2775.674216,-9399.007173
4979.252411,7905.885870,-1301.695494,-10432.706536
4979.254970,5666.203917,2124.826469,-9265.009107
4979.257529,-2469.392923,76.570323,-9915.856854
4979.260087,-823.130974,-191.425808,-9896.714274
4979.262646,1990.828403,2373.680019,-9552.147819
4979.265205,1550.549045,-899.701298,-10643.274925
4979.267764,2354.537438,1493.121302,-9303.294269
4979.270322,210.568389,555.134843,-9513.862658
4979.272881,1875.972918,593.420005,-9705.288466
4979.275440,4307.080680,344.566454,-10068.997501
4979.277999,4747.360038,1837.687757,-9571.290400
4979.280557,3943.371645,287.138712,-9686.145885
4979.283116,-2048.256146,421.136778,-9801.001370
4979.285675,-918.843878,823.130974,-9667.003304
4979.288234,1110.269686,1646.261949,-9705.288466
4979.290792,5072.783912,880.558717,-10107.282662
4979.293351,-535.992262,1397.408398,-9303.294269
4979.295910,-1397.408398,689.132909,-9494.720077
4979.298469,-3483.949706,-325.423874,-10088.140082
4979.301027,-4996.213589,1741.974853,-9839.286531
4979.303586,459.421939,555.134843,-10509.276859
4979.306145,2928.814862,306.281293,-9724.431046
4979.308704,2928.814862,1416.550979,-9188.438784
4979.311262,-1359.123237,-765.703232,-10279.565890
4979.313821,-6029.912952,1359.123237,-10030.712339
4979.316380,210.568389,689.132909,-9954.142016
4979.318939,2507.678085,669.990328,-10030.712339
4979.321502,-153.140646,918.843878,-9437.292334
4979.324065,-1799.402595,555.134843,-9513.862658
4979.326628,-1473.978722,746.560651,-10107.282662
4979.329191,-3771.088418,1339.980656,-10030.712339
4979.331754,-3139.383251,689.132909,-10336.993632
4979.334317,-516.849682,-114.855485,-9973.284597
4979.336880,4460.221326,918.843878,-9303.294269
4979.339443,-1397.408398,-1052.841944,-10202.995566
4979.342005,-4709.074877,1512.263883,-9896.714274
4979.344568,-2450.250342,2201.396792,-9705.288466
4979.347131,-823.130974,-1473.978722,-10432.706536
4979.349694,5991.627790,1990.828403,-9418.149754
4979.352257,6144.768437,210.568389,-9360.722011
4979.354820,2029.113565,650.847747,-10107.282662
4979.357383,-1071.984525,2220.539373,-9456.434915
4979.359946,-2182.254211,-842.273555,-9973.284597
4979.362509,1397.408398,1646.261949,-9915.856854
4979.365072,7963.313613,-133.998066,-9820.143950
4979.367635,4728.217458,1971.685822,-9341.579430
4979.370198,-2411.965181,-669.990328,-10432.706536
4979.372761,-248.853550,1052.841944,-9245.866526
4979.375324,784.845813,1856.830338,-9533.005238
4979.377887,631.705166,-1263.410333,-11140.982026
4979.380450,2947.957443,2469.392923,-8920.442653
4979.383013,2201.396792,172.283227,-9647.860723
4979.385576,76.570323,440.279358,-10336.993632
4979.388139,4862.215523,1435.693560,-9265.009107
4979.390702,5991.627790,38.285162,-9973.284597
4979.393265,-708.275490,153.140646,-10202.995566
4979.395828,689.132909,2316.252277,-9131.011042
4979.398391,746.560651,-1033.699363,-10356.136213
4979.400954,-1837.687757,823.130974,-10068.997501
4979.403517,5819.344563,1627.119368,-9743.573627
4979.406080,-746.560651,133.998066,-10068.997501
4979.408643,-3062.812928,210.568389,-9762.716208
4979.411206,-2258.824534,2431.107762,-8805.587168
4979.413769,-4421.936165,-459.421939,-10949.556218
4979.416332,153.140646,229.710970,-10164.710405
4979.418895,3828.516160,3062.812928,-8671.589102
4979.421458,1761.117434,-1761.117434,-10643.274925
4979.424024,-4115.654872,2239.681954,-9169.296203
4979.426590,-5111.069074,1588.834206,-9934.999435
4979.429156,631.705166,-1129.412267,-10681.560086
4979.431722,1378.265818,1933.400661,-9265.009107
4979.434288,1722.832272,669.990328,-9571.290400
4979.436855,-2431.107762,-57.427742,-10088.140082
4979.439421,-3292.523898,957.129040,-9609.575562
4979.441987,-3924.229064,1627.119368,-9801.001370
4979.444553,-2124.826469,-267.996131,-10624.132344
4979.447119,3139.383251,957.129040,-9188.438784
4979.449685,1205.982590,1359.123237,-9456.434915
4979.452251,-4058.227130,-248.853550,-10107.282662
4979.454817,-2067.398726,1856.830338,-9379.864592
4979.457383,-5072.783912,784.845813,-10356.136213
4979.459949,5589.633594,382.851616,-9552.147819
4979.462515,6106.483275,2277.967115,-9092.725880
4979.465081,3120.240670,-1320.838075,-10317.851051
4979.467647,2411.965181,1512.263883,-9379.864592
4979.470214,-4077.369710,-976.271621,-10547.562021
4979.472780,-1397.408398,1684.547110,-9590.432981
4979.475346,6853.043926,287.138712,-9590.432981
4979.477912,6144.768437,708.275490,-9839.286531
4979.480478,708.275490,1263.410333,-9647.860723
4979.483044,-1301.695494,-325.423874,-9858.429112
4979.485610,210.568389,2603.390989,-9303.294269
4979.488176,1952.543242,-440.279358,-10604.989763
4979.490742,1052.841944,823.130974,-9724.431046
4979.493308,1684.547110,1761.117434,-9054.440718
4979.495874,1282.552914,-650.847747,-10470.991698
4979.498440,5302.494882,2182.254211,-9092.725880
4979.501006,4364.508422,191.425808,-10183.852986
4979.503573,2354.537438,-210.568389,-10030.712339
4979.506139,-19.142581,2258.824534,-9035.298138
4979.508705,-210.568389,-899.701298,-10298.708470
4979.511271,-363.709035,1205.982590,-9954.142016
4979.513837,4173.082614,1205.982590,-9858.429112
4979.516403,669.990328,478.564520,-9781.858789
4979.518969,-1569.691626,1550.549045,-9628.718142
4979.521535,-3062.812928,631.705166,-9494.720077
4979.524101,-4249.652938,937.986459,-10298.708470
4979.526670,-114.855485,440.279358,-10643.274925
4979.529239,3349.951640,1550.549045,-9131.011042
4979.531808,2488.535504,191.425808,-9801.001370
4979.534377,-1933.400661,-57.427742,-10068.997501
4979.536946,-5168.496816,1703.689691,-9781.858789
4979.539514,-1378.265818,76.570323,-10030.712339
4979.542083,2143.969050,918.843878,-10088.140082
4979.544652,708.275490,861.416136,-9571.290400
4979.547221,-842.273555,-38.285162,-9915.856854
4979.549790,-2756.531635,1646.261949,-9475.577496
4979.552359,-4402.793584,631.705166,-10068.997501
4979.554928,-1244.267752,516.849682,-10356.136213
4979.557497,3005.385186,842.273555,-9552.147819
4979.560065,1244.267752,1052.841944,-9341.579430
4979.562634,-2258.824534,-363.709035,-9954.142016
4979.565203,-3656.232933,1052.841944,-9934.999435
4979.567772,-4900.500685,478.564520,-10509.276859
4979.570341,5704.489078,727.418070,-9628.718142
4979.572910,6680.760699,1703.689691,-9054.440718
4979.575479,2048.256146,-459.421939,-10183.852986
4979.578048,2335.394858,1339.980656,-9533.005238
4979.580616,-3656.232933,191.425808,-10356.136213
4979.583185,-1186.840010,1569.691626,-9628.718142
4979.585754,4843.072942,38.285162,-9820.143950
4979.588323,7235.895542,631.705166,-9628.718142
4979.590892,2220.539373,1971.685822,-9265.009107
4979.593461,-1703.689691,-689.132909,-10145.567824
4979.596030,38.285162,2699.103893,-9054.440718
4979.598598,1627.119368,-459.421939,-10509.276859
4979.601167,1933.400661,727.418070,-9743.573627
4979.603736,2201.396792,1818.545176,-8920.442653
4979.606305,1971.685822,-746.560651,-10298.708470
4979.608874,4498.506488,1684.547110,-9724.431046
4979.611443,4670.789715,784.845813,-9839.286531
4979.614012,267.996131,-229.710970,-10011.569758
4979.616581,440.279358,2335.394858,-9303.294269
4979.619149,1895.115499,-497.707101,-9724.431046
4979.621718,-2239.681954,1167.697429,-10145.567824
4979.624287,5513.063270,306.281293,-10183.852986
4979.626856,-669.990328,1244.267752,-9360.722011
4979.629427,-2526.820666,57.427742,-10222.138147
4979.631999,-2220.539373,1091.127106,-9341.579430
4979.634570,-4019.941968,823.130974,-10183.852986
4979.637141,38.285162,-382.851616,-10700.702667
4979.639712,3541.377448,2373.680019,-9035.298138
4979.642284,937.986459,-1741.974853,-10413.563955
4979.644855,-3101.098090,1416.550979,-9609.575562
4979.647426,-3790.230998,2067.398726,-9705.288466
4979.649997,153.140646,-842.273555,-10413.563955
4979.652569,669.990328,1665.404530,-9762.716208
4979.655140,995.414202,803.988394,-9552.147819
4979.657711,-2029.113565,555.134843,-9839.286531
4979.660282,-4153.940034,842.273555,-9915.856854
4979.662854,-3158.525832,1320.838075,-9839.286531
4979.665425,-535.992262,612.562586,-10279.565890
4979.667996,2909.672282,823.130974,-9609.575562
4979.670567,-861.416136,133.998066,-9418.149754
4979.673139,-4173.082614,937.986459,-9877.571693
4979.675710,-2909.672282,1033.699363,-10107.282662
4979.678281,-937.986459,95.712904,-10107.282662
4979.680852,6565.905214,1665.404530,-9571.290400
4979.683424,5876.772306,-957.129040,-9724.431046
4979.685995,1990.828403,1875.972918,-9494.720077
4979.688566,-669.990328,1569.691626,-9533.005238
4979.691137,-516.849682,-114.855485,-10164.710405
4979.693709,727.418070,2239.681954,-9533.005238
4979.696280,7159.325219,-708.275490,-9839.286531
4979.698851,5627.918755,1818.545176,-9207.581365
4979.701422,-1799.402595,57.427742,-10145.567824
4979.703994,-842.273555,401.994197,-9724.431046
4979.706565,1818.545176,2163.111630,-9379.864592
4979.709136,-38.285162,-918.843878,-10777.272990
4979.711708,1588.834206,1531.406464,-9226.723946
4979.714279,1607.976787,823.130974,-9801.001370
4979.716850,3866.801322,-114.855485,-10030.712339
4979.719421,4823.930362,1856.830338,-9494.720077
4979.721993,1780.260014,19.142581,-10145.567824
4979.724564,-440.279358,1607.976787,-9245.866526
4979.727135,1186.840010,-631.705166,-9858.429112
4979.729706,-555.134843,1837.687757,-9801.001370
4979.732279,4192.225195,803.988394,-10088.140082
4979.734852,114.855485,-191.425808,-9915.856854
4979.737424,-1799.402595,3081.955509,-8997.012976
4979.739997,-2718.246474,-1071.984525,-10145.567824
4979.742570,-3771.088418,1493.121302,-9801.001370
4979.745142,-344.566454,1320.838075,-10279.565890
4979.747715,3292.523898,-306.281293,-9973.284597
4979.750288,2009.970984,1282.552914,-9360.722011
4979.752860,-1684.547110,95.712904,-9877.571693
4979.755433,-4938.785846,650.847747,-10068.997501
4979.758006,-1703.689691,1091.127106,-10011.569758
4979.760579,2699.103893,937.986459,-10030.712339
4979.763151,344.566454,344.566454,-9667.003304
4979.765724,-2909.672282,306.281293,-9762.716208
4979.768297,-3981.656806,1473.978722,-9647.860723
4979.770869,-3541.377448,19.142581,-10202.995566
4979.773442,-650.847747,1741.974853,-9973.284597
4979.776015,3924.229064,1110.269686,-9686.145885
4979.778587,-95.712904,-1071.984525,-9973.284597
4979.781160,-4555.934230,2718.246474,-9207.581365
4979.783733,-2565.105827,325.423874,-10202.995566
4979.786305,-2641.676150,-497.707101,-10451.849117
4979.788878,5302.494882,3024.527766,-9284.151688
4979.791451,6144.768437,-2297.109696,-10030.712339
4979.794023,1837.687757,1990.828403,-9437.292334
4979.796596,-1531.406464,2316.252277,-9475.577496
4979.799169,-1014.556782,-2029.113565,-10585.847182
4979.801741,-191.425808,3215.953574,-9341.579430
4979.804314,6374.479406,-114.855485,-9647.860723
4979.806887,6049.055533,-76.570323,-9801.001370
4979.809460,-440.279358,1493.121302,-9667.003304
4979.812032,-2067.398726,669.990328,-9513.862658
4979.814605,1933.400661,363.709035,-10260.423309
4979.817178,1914.258080,-95.712904,-10298.708470
4979.819750,440.279358,2277.967115,-9303.294269
4979.822323,2603.390989,-1014.556782,-10164.710405
4979.824896,4785.645200,1378.265818,-9494.720077
4979.827468,4900.500685,287.138712,-10241.280728
4979.830041,-631.705166,-306.281293,-10222.138147
4979.832614,-229.710970,2469.392923,-9245.866526
4979.835188,1933.400661,-669.990328,-9686.145885
4979.837762,-1646.261949,1167.697429,-10126.425243
4979.840336,5015.356170,918.843878,-10088.140082
4979.842910,-612.562586,631.705166,-9360.722011
4979.845484,-2928.814862,899.701298,-9877.571693
4979.848058,-2775.674216,1033.699363,-9379.864592
4979.850633,-3349.951640,478.564520,-10164.710405
4979.853207,823.130974,-401.994197,-10260.423309
4979.855781,3158.525832,3273.381317,-8805.587168
4979.858355,612.562586,-1473.978722,-10164.710405
4979.860929,-4498.506488,1741.974853,-9322.436850
4979.863503,-4383.651003,1493.121302,-9781.858789
4979.866077,1990.828403,-593.420005,-10490.134278
4979.868651,727.418070,2182.254211,-9590.432981
4979.871225,-287.138712,133.998066,-9686.145885
4979.873800,-2641.676150,172.283227,-9839.286531
4979.876374,-4019.941968,1722.832272,-9590.432981
4979.878948,-2584.248408,-38.285162,-10470.991698
4979.881522,3024.527766,727.418070,-9992.427178
4979.884096,1435.693560,1225.125171,-9379.864592
4979.886670,-3407.379382,267.996131,-9705.288466
4979.889244,-1856.830338,574.277424,-9820.143950
4979.891818,-5302.494882,1301.695494,-10030.712339
4979.894393,4670.789715,1091.127106,-9820.143950
4979.896967,6355.336826,1071.984525,-9743.573627
4979.899541,1607.976787,880.558717,-9513.862658
4979.902115,2086.541307,1818.545176,-9379.864592
4979.904689,-3598.805190,-1473.978722,-10834.700733
4979.907263,-899.701298,2967.100024,-9418.149754
4979.909837,5532.205851,-287.138712,-9801.001370
4979.912411,6470.192310,-95.712904,-9954.142016
4979.914986,1339.980656,2871.387120,-8939.585234
4979.917560,-76.570323,-1799.402595,-10566.704602
4979.920134,-1014.556782,1952.543242,-9399.007173
4979.922708,2029.113565,765.703232,-9896.714274
4979.925282,2258.824534,1014.556782,-9418.149754
4979.927856,2163.111630,1378.265818,-9341.579430
4979.930430,3005.385186,-19.142581,-10336.993632
4979.933004,5761.916821,1416.550979,-9667.003304
4979.935578,1607.976787,-38.285162,-10260.423309
4979.938154,-1205.982590,1895.115499,-9245.866526
4979.940729,2124.826469,-842.273555,-10126.425243
4979.943304,-459.421939,1512.263883,-9513.862658
4979.945880,3445.664544,1397.408398,-10030.712339
4979.948455,937.986459,-631.705166,-9590.432981
4979.951030,-2067.398726,1971.685822,-9456.434915
4979.953606,-3139.383251,-746.560651,-10107.282662
4979.956181,-4211.367776,784.845813,-9934.999435
4979.958756,-38.285162,2067.398726,-9973.284597
4979.961332,3215.953574,-440.279358,-10241.280728
4979.963907,1244.267752,880.558717,-9552.147819
4979.966482,-2239.681954,191.425808,-9667.003304
4979.969057,-3866.801322,669.990328,-10202.995566
4979.971633,-2431.107762,669.990328,-10241.280728
4979.974208,2354.537438,1646.261949,-9724.431046
4979.976783,114.855485,76.570323,-9896.714274
4979.979359,-2048.256146,-133.998066,-9839.286531
4979.981934,-4307.080680,2469.392923,-9456.434915
4979.984509,-2163.111630,-516.849682,-10624.132344
4979.987085,1052.841944,1014.556782,-9820.143950
4979.989660,1914.258080,2182.254211,-9169.296203
4979.992235,-1014.556782,-1148.554848,-10164.710405
4979.994811,-3139.383251,1512.263883,-9418.149754
4979.997386,-4823.930362,1359.123237,-10088.140082
4979.999961,5187.639397,1052.841944,-9801.001370
4980.002537,6221.338760,1512.263883,-9379.864592
4980.005112,2813.959378,-823.130974,-10164.710405
4980.007687,2871.387120,1531.406464,-9303.294269
4980.010262,-3560.520029,-19.142581,-10528.419440
4980.012838,-1014.556782,1473.978722,-9992.427178
4980.015413,3713.660675,689.132909,-9686.145885
4980.017988,6508.477472,459.421939,-9475.577496
4980.020564,2584.248408,1933.400661,-9111.868461
4980.023140,-1359.123237,-1244.267752,-10509.276859
4980.025716,401.994197,2718.246474,-9131.011042
4980.028292,2354.537438,57.427742,-10241.280728
4980.030868,1684.547110,-153.140646,-9934.999435
4980.033444,2679.961312,2297.109696,-9092.725880
4980.036020,4575.076811,-918.843878,-10260.423309
4980.038596,4307.080680,1186.840010,-9628.718142
4980.041172,765.703232,1397.408398,-10011.569758
4980.043748,306.281293,689.132909,-9801.001370
4980.046324,1244.267752,-76.570323,-9552.147819
4980.048900,-1397.408398,1225.125171,-9896.714274
4980.051476,4517.649069,-38.285162,-10566.704602
4980.054052,-1186.840010,1167.697429,-9456.434915
4980.056628,-2239.681954,1588.834206,-9590.432981
4980.059204,-2890.529701,-478.564520,-9896.714274
4980.061780,-3407.379382,1052.841944,-9877.571693
4980.064356,-153.140646,1895.115499,-9954.142016
4980.066932,3388.236802,-267.996131,-10145.567824
4980.069508,1282.552914,803.988394,-9513.862658
4980.072084,-3330.809059,1301.695494,-9552.147819
4980.074660,-3637.090352,593.420005,-10222.138147
4980.077236,267.996131,708.275490,-10126.425243
4980.079812,2373.680019,1416.550979,-9858.429112
4980.082388,-823.130974,-114.855485,-9934.999435
4980.084964,-2775.674216,746.560651,-9628.718142
4980.087540,-3981.656806,1282.552914,-9801.001370
4980.090116,-3407.379382,-440.279358,-10566.704602
4980.092692,2660.818731,2067.398726,-9667.003304
4980.095268,1071.984525,267.996131,-9934.999435
4980.097844,-4077.369710,1186.840010,-9399.007173
4980.100420,-2124.826469,2143.969050,-9552.147819
4980.102996,-2603.390989,-1799.402595,-10834.700733
4980.105572,5838.487144,2469.392923,-9418.149754
4980.108148,5570.491013,459.421939,-9245.866526
4980.110724,2354.537438,-191.425808,-9896.714274
4980.113300,880.558717,2833.101958,-8882.157491
4980.115876,-2335.394858,-1301.695494,-10566.704602
4980.118452,-1684.547110,2067.398726,-10107.282662
4980.121028,6431.907149,-57.427742,-9475.577496
4980.123605,6470.192310,535.992262,-9322.436850
4980.126182,-880.558717,1244.267752,-9992.427178
4980.128758,-2029.113565,-248.853550,-10049.854920
4980.131335,3177.668413,2411.965181,-9111.868461
4980.133912,516.849682,-823.130974,-10719.845248
4980.136488,1627.119368,1607.976787,-9303.294269
4980.139065,5857.629725,1148.554848,-9092.725880
4980.141641,3866.801322,-612.562586,-10470.991698
4980.144218,1473.978722,2526.820666,-9475.577496
4980.146794,-574.277424,229.710970,-9762.716208
4980.149371,1665.404530,-459.421939,-9954.142016
4980.151947,19.142581,2622.533570,-8997.012976
4980.154524,2699.103893,172.283227,-10260.423309
4980.157100,1378.265818,114.855485,-10164.710405
4980.159677,-2545.963246,2833.101958,-9150.153622
4980.162253,-2354.537438,-2009.970984,-10624.132344
4980.164830,-4039.084549,2431.107762,-9322.436850
4980.167406,-1799.402595,899.701298,-9877.571693
4980.169983,2603.390989,-995.414202,-10547.562021
4980.172559,1416.550979,2048.256146,-9418.149754
4980.175136,-1110.269686,57.427742,-9590.432981
4980.177712,-3560.520029,497.707101,-9992.427178
4980.180289,-2756.531635,1473.978722,-9552.147819
4980.182865,2775.674216,555.134843,-9973.284597
4980.185442,1033.699363,267.996131,-9973.284597
4980.188018,-4000.799387,669.990328,-9437.292334
4980.190595,-3751.945837,937.986459,-9456.434915
4980.193172,-2967.100024,-153.140646,-10490.134278
4980.195748,1359.123237,1703.689691,-9475.577496
4980.198325,478.564520,1205.982590,-9839.286531
4980.200901,-2392.822600,19.142581,-10068.997501
4980.203478,-516.849682,1473.978722,-8920.442653
4980.206054,-5398.207786,421.136778,-10317.851051
4980.208631,4536.791650,861.416136,-10068.997501
4980.211207,5838.487144,1741.974853,-9341.579430
4980.213784,2775.674216,-382.851616,-9781.858789
4980.216360,3158.525832,976.271621,-9303.294269
4980.218937,-2469.392923,-1052.841944,-10317.851051
4980.221513,-1225.125171,2679.961312,-9954.142016
4980.224090,5589.633594,-267.996131,-9992.427178
4980.226667,6470.192310,669.990328,-9399.007173
4980.229244,765.703232,2239.681954,-8901.300072
4980.231821,-325.423874,-1167.697429,-10356.136213
4980.234398,-708.275490,2469.392923,-9513.862658
4980.236975,1244.267752,574.277424,-10088.140082
4980.239552,3388.236802,-76.570323,-10049.854920
4980.242129,3885.943902,1741.974853,-9379.864592
4980.244706,3598.805190,-746.560651,-10260.423309
4980.247283,3062.812928,1703.689691,-9686.145885
4980.249860,-1435.693560,803.988394,-10126.425243
4980.252437,1435.693560,-1129.412267,-10222.138147
4980.255014,1186.840010,2526.820666,-8958.727814
4980.257591,4096.512291,267.996131,-10260.423309
4980.260168,-593.420005,38.285162,-10222.138147
4980.262745,-1627.119368,2545.963246,-9169.296203
4980.265322,-2565.105827,-1473.978722,-10451.849117
4980.267899,-4402.793584,1359.123237,-9820.143950
4980.270476,-459.421939,1569.691626,-9743.573627
4980.273053,2067.398726,-689.132909,-10317.851051
4980.275630,1339.980656,2143.969050,-9628.718142
4980.278207,-1435.693560,-287.138712,-9762.716208
4980.280784,-3101.098090,229.710970,-10088.140082
4980.283361,-1646.261949,382.851616,-10030.712339
4980.285938,2373.680019,1588.834206,-9628.718142
4980.288515,-306.281293,382.851616,-10030.712339
4980.291092,-3369.094221,-133.998066,-10030.712339
4980.293669,-4019.941968,1990.828403,-9111.868461
4980.296246,-2143.969050,-114.855485,-10317.851051
4980.298823,1148.554848,1071.984525,-10336.993632
4980.301400,1052.841944,689.132909,-9724.431046
4980.303977,-2584.248408,440.279358,-9743.573627
4980.306554,-2699.103893,1607.976787,-9724.431046
4980.309131,-1473.978722,-823.130974,-10241.280728
4980.311708,5838.487144,2431.107762,-9973.284597
4980.314285,5340.780043,-995.414202,-10030.712339
4980.316862,2928.814862,1627.119368,-9226.723946
4980.319439,191.425808,2048.256146,-9303.294269
4980.322016,-1416.550979,-1856.830338,-10470.991698
4980.324593,-1607.976787,3713.660675,-9686.145885
4980.327170,5934.200048,-937.986459,-10279.565890
4980.329747,6221.338760,1071.984525,-9073.583299
4980.332323,-1818.545176,995.414202,-9839.286531
4980.334900,-1225.125171,-344.566454,-10202.995566
4980.337477,2182.254211,2297.109696,-9399.007173
4980.340054,727.418070,-114.855485,-10413.563955
4980.342631,3464.807125,1301.695494,-9341.579430
4980.345207,4383.651003,1741.974853,-9150.153622
4980.347784,4019.941968,-248.853550,-9954.142016
4980.350361,784.845813,1359.123237,-9724.431046
4980.352938,-574.277424,1110.269686,-9877.571693
4980.355514,2526.820666,421.136778,-9418.149754
4980.358091,-535.992262,861.416136,-9533.005238
4980.360668,3847.658741,478.564520,-10030.712339
4980.363245,-1914.258080,1339.980656,-9628.718142
4980.365822,-2718.246474,-38.285162,-10375.278794
4980.368398,-2813.959378,2201.396792,-9016.155557
4980.370975,-2660.818731,-306.281293,-10279.565890
4980.373552,-248.853550,593.420005,-10126.425243
4980.376129,3215.953574,2124.826469,-9131.011042
4980.378706,-267.996131,-2009.970984,-10796.415571
4980.381282,-3101.098090,2143.969050,-9341.579430
4980.383859,-2660.818731,1071.984525,-9781.858789
4980.386436,344.566454,-957.129040,-10356.136213
4980.389013,2086.541307,2105.683888,-9724.431046
4980.391589,-1512.263883,325.423874,-9992.427178
4980.394166,-3101.098090,-19.142581,-10049.854920
4980.396743,-3790.230998,1493.121302,-9533.005238
4980.399320,-842.273555,-153.140646,-10164.710405
4980.401897,1378.265818,1167.697429,-10068.997501
4980.404473,-2009.970984,1837.687757,-9341.579430
4980.407050,-133.998066,-76.570323,-9801.001370
4980.409627,-4785.645200,210.568389,-10222.138147
4980.412204,3522.234867,1952.543242,-9341.579430
4980.414781,5474.778109,727.418070,-9915.856854
4980.417357,2947.957443,-497.707101,-10164.710405
4980.419934,3235.096155,1933.400661,-8824.729749
4980.422511,-2603.390989,-650.847747,-10470.991698
4980.425088,-803.988394,1301.695494,-9762.716208
4980.427664,4957.928427,746.560651,-9781.858789
4980.430241,4977.071008,-555.134843,-10260.423309
4980.432818,1952.543242,1914.258080,-8882.157491
4980.435394,-803.988394,440.279358,-9820.143950
4980.437971,-172.283227,574.277424,-10011.569758
4980.440547,1646.261949,1052.841944,-9705.288466
4980.443124,3177.668413,669.990328,-9781.858789
4980.445701,4689.932296,899.701298,-9590.432981
4980.448277,4173.082614,-382.851616,-9628.718142
4980.450854,1646.261949,1837.687757,-9494.720077
4980.453430,95.712904,1033.699363,-10317.851051
4980.456007,2201.396792,-363.709035,-9915.856854
4980.458583,-344.566454,1646.261949,-9456.434915
4980.461160,4594.219392,-631.705166,-10260.423309
4980.463736,-1550.549045,1339.980656,-9360.722011
4980.466313,-2411.965181,1722.832272,-9992.427178
4980.468889,-2986.242605,-937.986459,-10298.708470
4980.471466,-3924.229064,1454.836141,-9647.860723
4980.474043,-229.710970,1416.550979,-10088.140082
4980.476619,3062.812928,1359.123237,-9245.866526
4980.479196,669.990328,114.855485,-10183.852986
4980.481772,-3196.810994,612.562586,-9992.427178
4980.484349,-3177.668413,516.849682,-9781.858789
4980.486925,287.138712,1167.697429,-9686.145885
4980.489502,880.558717,880.558717,-10088.140082
4980.492078,-1071.984525,612.562586,-9820.143950
4980.494655,-2909.672282,1244.267752,-9801.001370
4980.497231,-3235.096155,803.988394,-9820.143950
4980.499808,-631.705166,-133.998066,-9858.429112
4980.502384,-19.142581,1282.552914,-9858.429112
4980.504961,-2603.390989,574.277424,-9743.573627
4980.507538,1110.269686,555.134843,-9552.147819
4980.510114,-4670.789715,1091.127106,-10088.140082
4980.512691,3426.521963,459.421939,-9801.001370
4980.515267,5359.922624,1493.121302,-9399.007173
4980.517844,2737.389054,76.570323,-10222.138147
4980.520420,3330.809059,842.273555,-9399.007173
4980.522997,-1914.258080,-95.712904,-10011.569758
4980.525573,-1225.125171,3081.955509,-9609.575562
4980.528150,4728.217458,-669.990328,-10183.852986
4980.530726,5053.641331,823.130974,-9820.143950
4980.533303,2239.681954,2163.111630,-9016.155557
4980.535879,-842.273555,-784.845813,-10202.995566
4980.538456,-382.851616,1588.834206,-9801.001370
4980.541032,2373.680019,1320.838075,-9934.999435
4980.543608,3656.232933,-669.990328,-9877.571693
4980.546185,4747.360038,2220.539373,-9303.294269
4980.548761,4058.227130,-57.427742,-9896.714274
4980.551337,363.709035,650.847747,-9667.003304
4980.553914,535.992262,1665.404530,-10088.140082
4980.556490,2354.537438,306.281293,-9590.432981
4980.559066,-937.986459,957.129040,-9628.718142
4980.561643,4192.225195,287.138712,-9954.142016
4980.564219,-1837.687757,1071.984525,-9437.292334
4980.566795,-2852.244539,555.134843,-10279.565890
4980.569372,-2584.248408,1818.545176,-9418.149754
4980.571948,-2852.244539,-153.140646,-10202.995566
4980.574524,-382.851616,1129.412267,-9820.143950
4980.577101,2450.250342,3158.525832,-8824.729749
4980.579677,287.138712,-1799.402595,-10681.560086
4980.582253,-3866.801322,1914.258080,-9475.577496
4980.584830,-1301.695494,1339.980656,-9667.003304
4980.587406,440.279358,-669.990328,-10356.136213
4980.589982,-689.132909,1837.687757,-9705.288466
4980.592558,-153.140646,1052.841944,-9609.575562
4980.595135,-3675.375514,-267.996131,-10528.419440
4980.597711,-2737.389054,1741.974853,-9533.005238
4980.600287,76.570323,1033.699363,-9973.284597
4980.602864,-574.277424,-1186.840010,-10317.851051
4980.605440,-1703.689691,2009.970984,-9245.866526
4980.608016,-459.421939,1148.554848,-10049.854920
4980.610593,-1703.689691,-1320.838075,-10509.276859
4980.613169,4402.793584,3292.523898,-9188.438784
4980.615745,4785.645200,-823.130974,-10202.995566
4980.618322,2565.105827,861.416136,-9877.571693
4980.620898,1339.980656,3081.955509,-8748.159426
4980.623474,248.853550,-1569.691626,-10413.563955
4980.626051,57.427742,2373.680019,-9801.001370
4980.628627,5091.926493,325.423874,-9820.143950
4980.631203,5072.783912,421.136778,-9609.575562
4980.633780,133.998066,1091.127106,-9724.431046
4980.636356,-746.560651,1225.125171,-9552.147819
4980.638932,784.845813,440.279358,-9973.284597
4980.641508,2239.681954,478.564520,-10030.712339
4980.644084,4211.367776,1914.258080,-9073.583299
4980.646661,4632.504554,-344.566454,-10145.567824
4980.649237,1186.840010,1435.693560,-9360.722011
4980.651813,363.709035,2163.111630,-9647.860723
4980.654389,1359.123237,-1703.689691,-10930.413637
4980.656965,784.845813,2718.246474,-9188.438784
4980.659541,3847.658741,401.994197,-9992.427178
4980.662117,-861.416136,-631.705166,-9992.427178
4980.664694,-1761.117434,3005.385186,-9092.725880
4980.667270,-2603.390989,-172.283227,-10260.423309
4980.669846,-4192.225195,593.420005,-10145.567824
4980.672422,-287.138712,1990.828403,-9609.575562
4980.674998,2431.107762,-459.421939,-10183.852986
4980.677574,861.416136,918.843878,-9839.286531
4980.680150,-1416.550979,593.420005,-9762.716208
4980.682727,-3943.371645,1033.699363,-10202.995566
4980.685303,535.992262,-325.423874,-10011.569758
4980.687879,1914.258080,1818.545176,-9609.575562
4980.690455,-2297.109696,-76.570323,-10126.425243
4980.693031,-3981.656806,95.712904,-10088.140082
4980.695607,-2067.398726,1895.115499,-9533.005238
4980.698183,-76.570323,229.710970,-10490.134278
4980.700760,-1263.410333,-133.998066,-10011.569758
4980.703336,-2009.970984,2029.113565,-9111.868461
4980.705912,861.416136,95.712904,-10030.712339
4980.708488,-1148.554848,-363.709035,-9934.999435
4980.711064,4632.504554,2679.961312,-9628.718142
4980.713640,4019.941968,-1205.982590,-10202.995566
4980.716216,3081.955509,1818.545176,-9418.149754
4980.718793,1225.125171,2258.824534,-9265.009107
4980.721369,-995.414202,-2143.969050,-10356.136213
4980.723945,-976.271621,3560.520029,-9341.579430
4980.726521,4517.649069,-229.710970,-10183.852986
4980.729097,5379.065205,363.709035,-9839.286531
4980.731673,1684.547110,2048.256146,-9035.298138
4980.734250,-1990.828403,-38.285162,-9992.427178
4980.736826,861.416136,1186.840010,-9762.716208
4980.739402,4479.363907,1014.556782,-9915.856854
4980.741978,4421.936165,1052.841944,-9667.003304
4980.744554,4785.645200,325.423874,-9628.718142
4980.747130,2373.680019,1359.123237,-9303.294269
4980.749706,-593.420005,1550.549045,-9915.856854
4980.752282,1665.404530,-957.129040,-10528.419440
4980.754858,555.134843,2545.963246,-9131.011042
4980.757433,3158.525832,325.423874,-10202.995566
4980.760009,-1454.836141,401.994197,-9533.005238
4980.762585,-2392.822600,2201.396792,-9609.575562
4980.765161,-2947.957443,-1052.841944,-10834.700733
4980.767737,-3809.373579,1493.121302,-9877.571693
4980.770313,-918.843878,1435.693560,-9781.858789
4980.772889,2201.396792,-937.986459,-10260.423309
4980.775465,1167.697429,2105.683888,-9456.434915
4980.778041,-2201.396792,-57.427742,-9896.714274
4980.780617,-2967.100024,1014.556782,-9781.858789
4980.783193,1282.552914,612.562586,-9647.860723
4980.785769,937.986459,1071.984525,-9820.143950
4980.788345,-2718.246474,440.279358,-9954.142016
4980.790921,-3311.666478,861.416136,-9801.001370
4980.793497,-1244.267752,1225.125171,-9667.003304
4980.796073,-1301.695494,880.558717,-9992.427178
4980.798649,-1320.838075,57.427742,-9781.858789
4980.801225,-2105.683888,1531.406464,-9322.436850
4980.803801,-38.285162,631.705166,-10049.854920
4980.806377,267.996131,344.566454,-9839.286531
4980.808953,4096.512291,1818.545176,-9858.429112
4980.811528,3771.088418,-880.558717,-9896.714274
4980.814104,2794.816797,1895.115499,-9379.864592
4980.816680,382.851616,1301.695494,-9877.571693
4980.819256,229.710970,-1550.549045,-10011.569758
4980.821832,-516.849682,3254.238736,-9379.864592
4980.824408,4823.930362,-880.558717,-10222.138147
4980.826984,5627.918755,746.560651,-9590.432981
4980.829560,172.283227,1856.830338,-9360.722011
4980.832136,-2239.681954,306.281293,-9992.427178
4980.834712,4307.080680,1167.697429,-9724.431046
4980.837288,2239.681954,593.420005,-10030.712339
4980.839864,4058.227130,823.130974,-9609.575562
4980.842440,5359.922624,689.132909,-9590.432981
4980.845015,765.703232,497.707101,-9877.571693
4980.847590,-306.281293,1473.978722,-9896.714274
4980.850165,2163.111630,-287.138712,-10068.997501
4980.852740,-1301.695494,1378.265818,-9647.860723
4980.855316,4632.504554,-708.275490,-10068.997501
4980.857891,-1703.689691,1990.828403,-9265.009107
4980.860466,-3120.240670,-114.855485,-10336.993632
4980.863041,-2392.822600,1473.978722,-9437.292334
4980.865616,-2469.392923,765.703232,-10260.423309
4980.868191,-976.271621,382.851616,-10145.567824
4980.870766,2545.963246,1263.410333,-9111.868461
4980.873341,287.138712,133.998066,-9992.427178
4980.875917,-2775.674216,287.138712,-10164.710405
4980.878492,-1512.263883,1110.269686,-9820.143950
4980.881067,1454.836141,-76.570323,-9973.284597
4980.883642,-669.990328,1129.412267,-10107.282662
4980.886217,-2182.254211,344.566454,-9839.286531
4980.888792,-2545.963246,899.701298,-9781.858789
4980.891367,-1761.117434,344.566454,-10183.852986
4980.893942,-1091.127106,535.992262,-9934.999435
4980.896518,-2297.109696,1665.404530,-9667.003304
4980.899093,631.705166,-421.136778,-9781.858789
4980.901668,-2641.676150,1512.263883,-9896.714274
4980.904243,2373.680019,1205.982590,-9552.147819
4980.906818,4173.082614,172.283227,-9858.429112
4980.909393,2086.541307,727.418070,-9839.286531
4980.911968,3292.523898,1473.978722,-9131.011042
4980.914543,-1282.552914,-669.990328,-10585.847182
4980.917119,823.130974,2029.113565,-9494.720077
4980.919694,2947.957443,880.558717,-9571.290400
4980.922269,3694.518094,-153.140646,-10356.136213
4980.924844,3273.381317,1741.974853,-9207.581365
4980.927419,-421.136778,-421.136778,-10088.140082
4980.929994,-1397.408398,1454.836141,-9896.714274
4980.932569,3196.810994,995.414202,-9877.571693
4980.935144,4460.221326,555.134843,-9647.860723
4980.937720,4536.791650,957.129040,-9590.432981
4980.940295,3101.098090,516.849682,-9647.860723
4980.942870,478.564520,1493.121302,-9609.575562
4980.945445,746.560651,-861.416136,-10451.849117
4980.948019,459.421939,1914.258080,-9762.716208
4980.950594,2584.248408,631.705166,-9801.001370
4980.953168,-1052.841944,650.847747,-9513.862658
4980.955743,-2201.396792,1761.117434,-9667.003304
4980.958317,-2852.244539,-1052.841944,-10470.991698
4980.960892,-3809.373579,1837.687757,-9724.431046
4980.963466,-1320.838075,1071.984525,-10030.712339
4980.966041,1550.549045,-976.271621,-10260.423309
4980.968615,574.277424,2660.818731,-9054.440718
4980.971189,-114.855485,-574.277424,-10260.423309
4980.973764,-3828.516160,1091.127106,-10011.569758
4980.976338,-248.853550,1205.982590,-9513.862658
4980.978913,976.271621,746.560651,-9992.427178
4980.981487,-1914.258080,344.566454,-9896.714274
4980.984062,-4039.084549,957.129040,-9781.858789
4980.986636,-1301.695494,995.414202,-9801.001370
4980.989211,-1493.121302,421.136778,-10164.710405
4980.991785,-2450.250342,1473.978722,-9705.288466
4980.994359,555.134843,976.271621,-9456.434915
4980.996934,-1416.550979,650.847747,-10030.712339
4980.999508,918.843878,957.129040,-9513.862658
4981.002083,3809.373579,1875.972918,-9686.145885
4981.004657,2297.109696,-497.707101,-10336.993632
4981.007232,2469.392923,1722.832272,-9245.866526
4981.009806,-114.855485,-57.427742,-10260.423309
4981.012381,727.418070,440.279358,-10011.569758
4981.014955,2239.681954,1818.545176,-9647.860723
4981.017529,3598.805190,-172.283227,-10202.995566
4981.020104,3732.803256,1033.699363,-9456.434915
4981.022678,-401.994197,535.992262,-9915.856854
4981.025253,-612.562586,765.703232,-9494.720077
4981.027827,2967.100024,976.271621,-10011.569758
4981.030402,3254.238736,133.998066,-9858.429112
4981.032976,4651.647134,1148.554848,-9647.860723
4981.035551,3388.236802,172.283227,-9801.001370
4981.038125,325.423874,1741.974853,-9590.432981
4981.040699,1435.693560,-631.705166,-10241.280728
4981.043274,287.138712,1646.261949,-9667.003304
4981.045848,2373.680019,1244.267752,-9781.858789
4981.048423,1282.552914,-1148.554848,-9896.714274
4981.050997,-2201.396792,1933.400661,-9552.147819
4981.053571,-2813.959378,-478.564520,-10432.706536
4981.056144,-3637.090352,1052.841944,-10107.282662
4981.058718,-1627.119368,1703.689691,-9839.286531
4981.061292,1741.974853,-976.271621,-10298.708470
4981.063866,497.707101,1875.972918,-9284.151688
4981.066440,-440.279358,0.000000,-9973.284597
4981.069014,-2833.101958,1225.125171,-10088.140082
4981.071588,248.853550,803.988394,-9743.573627
4981.074162,976.271621,440.279358,-9628.718142
4981.076736,-2277.967115,19.142581,-10241.280728
4981.079309,-3426.521963,555.134843,-10030.712339
4981.081883,-1052.841944,1454.836141,-9724.431046
4981.084457,-1473.978722,-95.712904,-10356.136213
4981.087031,-2833.101958,1435.693560,-9762.716208
4981.089605,2009.970984,478.564520,-9724.431046
4981.092179,-2584.248408,-727.418070,-10356.136213
4981.094753,3349.951640,2143.969050,-9322.436850
4981.097327,3771.088418,555.134843,-9801.001370
4981.099900,1607.976787,-76.570323,-10413.563955
4981.102474,3024.527766,1895.115499,-8958.727814
4981.105048,-689.132909,-689.132909,-10547.562021
4981.107622,440.279358,1741.974853,-9667.003304
4981.110196,4211.367776,823.130974,-9494.720077
4981.112770,4594.219392,325.423874,-10183.852986
4981.115344,1186.840010,1435.693560,-9245.866526
4981.117918,-631.705166,-401.994197,-9992.427178
4981.120492,1205.982590,1378.265818,-9743.573627
4981.123065,1837.687757,153.140646,-10375.278794
4981.125639,4594.219392,1225.125171,-9494.720077
4981.128213,5723.631659,631.705166,-9628.718142
4981.130787,1971.685822,-727.418070,-10107.282662
4981.133361,574.277424,2794.816797,-9131.011042
4981.135935,1550.549045,382.851616,-10222.138147
4981.138509,-612.562586,1416.550979,-9781.858789
4981.141082,3828.516160,574.277424,-9686.145885
4981.143656,-1512.263883,497.707101,-9724.431046
4981.146230,-2813.959378,248.853550,-10145.567824
4981.148803,-2163.111630,2335.394858,-9150.153622
4981.151377,-2507.678085,-401.994197,-10490.134278
4981.153951,-1359.123237,957.129040,-10068.997501
4981.156525,2048.256146,1837.687757,-8843.872330
4981.159098,1014.556782,-746.560651,-10126.425243
4981.161672,-1761.117434,1741.974853,-9552.147819
4981.164246,-2699.103893,1416.550979,-9513.862658
4981.166820,1091.127106,-976.271621,-10375.278794
4981.169393,-1684.547110,2297.109696,-9513.862658
4981.171967,-3617.947771,38.285162,-9820.143950
4981.174541,-842.273555,76.570323,-10049.854920
4981.177115,-1952.543242,2507.678085,-9820.143950
4981.179688,-2545.963246,-1378.265818,-10126.425243
4981.182262,-1435.693560,1531.406464,-9667.003304
4981.184836,803.988394,1761.117434,-9839.286531
4981.187410,1454.836141,-842.273555,-10088.140082
4981.189983,3713.660675,2507.678085,-9724.431046
4981.192557,2718.246474,-669.990328,-9896.714274
4981.195131,2105.683888,880.558717,-9724.431046
4981.197704,497.707101,2029.113565,-9533.005238
4981.200278,1263.410333,-1301.695494,-10011.569758
4981.202852,861.416136,2469.392923,-9513.862658
4981.205426,4575.076811,-689.132909,-10202.995566
4981.207999,3981.656806,1569.691626,-9475.577496
4981.210573,727.418070,-382.851616,-10202.995566
4981.213147,-1416.550979,1244.267752,-9552.147819
4981.215721,4000.799387,1339.980656,-9647.860723
4981.218294,3905.086483,-727.418070,-10700.702667
4981.220868,4575.076811,2048.256146,-9150.153622
4981.223442,3062.812928,363.709035,-9456.434915
4981.226016,1493.121302,861.416136,-10049.854920
4981.228589,918.843878,401.994197,-9896.714274
4981.231163,19.142581,1167.697429,-9667.003304
4981.233737,2335.394858,746.560651,-10068.997501
4981.236310,-803.988394,880.558717,-9265.009107
4981.238883,-1627.119368,1263.410333,-9743.573627
4981.241456,-2833.101958,-401.994197,-10298.708470
4981.244029,-3943.371645,1646.261949,-9762.716208
4981.246603,-1780.260014,1282.552914,-10030.712339
4981.249176,1071.984525,-1033.699363,-10413.563955
4981.251749,1167.697429,2603.390989,-9131.011042
4981.254322,-478.564520,-478.564520,-10030.712339
4981.256895,-2124.826469,689.132909,-10049.854920
4981.259468,-1320.838075,1014.556782,-9801.001370
4981.262042,-784.845813,-421.136778,-10183.852986
4981.264615,-1416.550979,1531.406464,-9513.862658
4981.267188,-2909.672282,612.562586,-10241.280728
4981.269761,-1703.689691,1320.838075,-9590.432981
4981.272334,-1990.828403,-574.277424,-9896.714274
4981.274907,-3560.520029,1971.685822,-9858.429112
4981.277481,2143.969050,497.707101,-9628.718142
4981.280054,-746.560651,-861.416136,-10049.854920
4981.282627,3828.516160,3101.098090,-9475.577496
4981.285200,2909.672282,-1856.830338,-10298.708470
4981.287773,2220.539373,2335.394858,-9207.581365
4981.290346,1493.121302,2450.250342,-9284.151688
4981.292920,306.281293,-2699.103893,-10509.276859
4981.295493,459.421939,3962.514226,-8977.870395
4981.298066,4211.367776,-708.275490,-10222.138147
4981.300639,2986.242605,-191.425808,-10356.136213
4981.303212,1186.840010,2469.392923,-9226.723946
4981.305785,-19.142581,-555.134843,-9973.284597
4981.308359,3598.805190,1033.699363,-9762.716208
4981.310932,2335.394858,842.273555,-10183.852986
4981.313505,6604.190376,631.705166,-9322.436850
4981.316078,2182.254211,229.710970,-9705.288466
4981.318651,1110.269686,1875.972918,-9628.718142
4981.321224,1761.117434,-76.570323,-9896.714274
4981.323798,-995.414202,459.421939,-10202.995566
4981.326371,2507.678085,2086.541307,-9571.290400
4981.328944,1627.119368,-459.421939,-9858.429112
4981.331517,-2699.103893,1550.549045,-9915.856854
4981.334090,-2622.533570,899.701298,-9705.288466
4981.336663,-3388.236802,325.423874,-10222.138147
4981.339236,-2105.683888,1148.554848,-10049.854920
4981.341809,1186.840010,267.996131,-9973.284597
4981.344381,1052.841944,1110.269686,-9590.432981
4981.346954,287.138712,57.427742,-9915.856854
4981.349527,-3771.088418,1607.976787,-9801.001370
4981.352099,-306.281293,306.281293,-9858.429112
4981.354672,-344.566454,708.275490,-9686.145885
4981.357245,-2239.681954,899.701298,-9858.429112
4981.359817,-2545.963246,-344.566454,-10183.852986
4981.362390,-2641.676150,2699.103893,-9341.579430
4981.364963,-3081.955509,-727.418070,-10241.280728
4981.367535,-2258.824534,918.843878,-10030.712339
4981.370108,1607.976787,1875.972918,-9322.436850
4981.372681,95.712904,-1091.127106,-10068.997501
4981.375253,4000.799387,1990.828403,-9647.860723
4981.377826,2947.957443,114.855485,-9667.003304
4981.380399,2258.824534,976.271621,-9954.142016
4981.382971,918.843878,1875.972918,-9341.579430
4981.385544,1684.547110,-1263.410333,-9762.716208
4981.388117,689.132909,2775.674216,-9628.718142
4981.390689,3598.805190,-1148.554848,-10241.280728
4981.393262,2584.248408,1531.406464,-9475.577496
4981.395835,1091.127106,1091.127106,-9877.571693
4981.398407,-38.285162,-727.418070,-10183.852986
4981.400980,1244.267752,2584.248408,-9188.438784
4981.403553,3426.521963,-306.281293,-10183.852986
4981.406125,5206.781978,1665.404530,-9245.866526
4981.408698,2833.101958,229.710970,-9552.147819
4981.411271,1110.269686,899.701298,-9973.284597
4981.413844,1741.974853,1110.269686,-9379.864592
4981.416416,-2756.531635,287.138712,-10107.282662
4981.418989,3694.518094,555.134843,-10107.282662
4981.421562,-631.705166,1320.838075,-9303.294269
4981.424134,-2029.113565,516.849682,-9973.284597
4981.426707,-2029.113565,267.996131,-9877.571693
4981.429280,-3656.232933,555.134843,-10049.854920
4981.431852,-2431.107762,1167.697429,-10298.708470
4981.434425,1607.976787,535.992262,-9571.290400
4981.436998,1493.121302,669.990328,-9552.147819
4981.439570,0.000000,555.134843,-10068.997501
4981.442123,-2928.814862,38.285162,-10375.278794
4981.444676,133.998066,1186.840010,-9437.292334
4981.447228,-976.271621,459.421939,-10126.425243
4981.449781,-3790.230998,-57.427742,-10030.712339
4981.452334,-976.271621,1416.550979,-9533.005238
4981.454887,-2277.967115,114.855485,-10260.423309
4981.457439,-4575.076811,861.416136,-9762.716208
4981.459992,1531.406464,1282.552914,-9379.864592
4981.462545,-1167.697429,210.568389,-10317.851051
4981.465098,3426.521963,842.273555,-9360.722011
4981.467650,3981.656806,2411.965181,-9226.723946
4981.470203,1684.547110,-1588.834206,-10643.274925
4981.472756,1837.687757,1531.406464,-9494.720077
4981.475309,114.855485,2009.970984,-9399.007173
4981.477861,2469.392923,-1473.978722,-10394.421374
4981.480414,3503.092286,1550.549045,-9265.009107
4981.482967,3369.094221,593.420005,-9762.716208
4981.485520,803.988394,727.418070,-9858.429112
4981.488072,899.701298,229.710970,-9877.571693
4981.490625,1569.691626,1359.123237,-9322.436850
4981.493178,1416.550979,-76.570323,-10317.851051
4981.495731,5130.211654,535.992262,-9820.143950
4981.498283,4843.072942,1473.978722,-9475.577496
4981.500836,306.281293,-842.273555,-10413.563955
4981.503389,1435.693560,1282.552914,-9399.007173
4981.505942,-535.992262,823.130974,-10107.282662
4981.508494,516.849682,382.851616,-9934.999435
4981.511047,1646.261949,1033.699363,-9475.577496
4981.513600,-1627.119368,1282.552914,-9571.290400
4981.516153,-2392.822600,76.570323,-10011.569758
4981.518705,-3215.953574,2086.541307,-9839.286531
4981.521258,-2316.252277,-325.423874,-10432.706536
4981.523811,-631.705166,-38.285162,-9896.714274
4981.526364,440.279358,2986.242605,-9016.155557
4981.528916,248.853550,-1244.267752,-10356.136213
4981.531469,-497.707101,1741.974853,-9533.005238
4981.534022,-1875.972918,2220.539373,-9341.579430
4981.536575,-861.416136,-1052.841944,-10528.419440
4981.539127,-650.847747,1780.260014,-9150.153622
4981.541680,-1225.125171,612.562586,-9934.999435
4981.544235,-2890.529701,306.281293,-10260.423309
4981.546790,-3713.660675,1378.265818,-9571.290400
4981.549345,-191.425808,1167.697429,-9667.003304
4981.551899,-421.136778,612.562586,-10202.995566
4981.554454,2775.674216,-210.568389,-9686.145885
4981.557009,4307.080680,2967.100024,-9265.009107
4981.559564,2086.541307,-2067.398726,-10566.704602
4981.562119,1761.117434,2354.537438,-9360.722011
4981.564674,382.851616,1148.554848,-9686.145885
4981.567228,1818.545176,-1378.265818,-10413.563955
4981.569783,2584.248408,3503.092286,-9265.009107
4981.572338,3139.383251,-861.416136,-10202.995566
4981.574893,1952.543242,459.421939,-9571.290400
4981.577448,574.277424,2086.541307,-9609.575562
4981.580002,-1148.554848,-459.421939,-10222.138147
4981.582557,3981.656806,1167.697429,-9322.436850
4981.585112,3675.375514,1378.265818,-9839.286531
4981.587667,4900.500685,-133.998066,-9973.284597
4981.590222,2794.816797,1167.697429,-9341.579430
4981.592776,1263.410333,363.709035,-10145.567824
4981.595331,-1512.263883,784.845813,-9858.429112
4981.597886,1780.260014,918.843878,-9628.718142
4981.600441,1512.263883,669.990328,-9992.427178
4981.602996,-2641.676150,1205.982590,-9475.577496
4981.605551,-1761.117434,-1148.554848,-10145.567824
4981.608105,-2775.674216,3713.660675,-8997.012976
4981.610660,-2258.824534,-1148.554848,-10815.558152
4981.613215,-631.705166,1052.841944,-9494.720077
4981.615770,1282.552914,2411.965181,-9303.294269
4981.618325,765.703232,-1588.834206,-10375.278794
4981.620879,-2354.537438,2603.390989,-9150.153622
4981.623434,-918.843878,1186.840010,-9820.143950
4981.625989,-689.132909,-708.275490,-10317.851051
4981.628544,-1110.269686,1952.543242,-9360.722011
4981.631099,-2718.246474,631.705166,-9896.714274
4981.633653,-2947.957443,535.992262,-10241.280728
4981.636208,-3617.947771,937.986459,-9552.147819
4981.638763,0.000000,114.855485,-10068.997501
4981.641318,248.853550,803.988394,-9954.142016
