#time,accel_x,accel_y,accel_z
7272.150623,401.994197,689.132909,-9801.001370
7272.153024,459.421939,631.705166,-9820.143950
7272.155425,555.134843,880.558717,-9724.431046
7272.157826,440.279358,669.990328,-9915.856854
7272.160227,421.136778,650.847747,-9839.286531
7272.162628,421.136778,784.845813,-9743.573627
7272.165029,555.134843,899.701298,-9801.001370
7272.167430,516.849682,593.420005,-9915.856854
7272.169831,593.420005,19.142581,-9896.714274
7272.172232,1378.265818,880.558717,-9686.145885
7272.174633,-191.425808,765.703232,-9896.714274
7272.177034,1493.121302,-1914.258080,-10049.854920
7272.179435,363.709035,-1339.980656,-9839.286531
7272.181836,-267.996131,-1646.261949,-10298.708470
7272.184237,-114.855485,-6125.625856,-10528.419440
7272.186638,1665.404530,3713.660675,-8212.167163
7272.189039,-76.570323,421.136778,-10490.134278
7272.191496,-937.986459,3024.527766,-10758.130410
7272.193953,1512.263883,7523.034254,-7944.171032
7272.196410,-363.709035,-5972.485210,-10509.276859
7272.198866,1071.984525,1703.689691,-8863.014910
7272.201323,-267.996131,-1722.832272,-10222.138147
7272.203780,248.853550,287.138712,-11676.974288
7272.206237,1263.410333,6891.329088,-8059.026517
7272.208694,440.279358,-2679.961312,-10356.136213
7272.211151,-880.558717,5149.354235,-8441.878133
7272.213607,2526.820666,2641.676150,-10030.712339
7272.216064,-1761.117434,574.277424,-11160.124606
7272.218521,-784.845813,689.132909,-9341.579430
7272.220978,2603.390989,-191.425808,-8863.014910
7272.223435,-191.425808,-153.140646,-10068.997501
7272.225892,-401.994197,3235.096155,-9896.714274
7272.228348,2469.392923,-497.707101,-10528.419440
7272.230805,-784.845813,3311.666478,-9513.862658
7272.233262,95.712904,-267.996131,-9609.575562
7272.235719,1435.693560,593.420005,-9322.436850
7272.238176,-38.285162,1167.697429,-10011.569758
7272.240633,19.142581,1339.980656,-10183.852986
7272.243089,976.271621,382.851616,-9762.716208
7272.245546,133.998066,1033.699363,-9169.296203
7272.248003,-267.996131,2488.535504,-9513.862658
7272.250460,1856.830338,3732.803256,-9781.858789
7272.252917,-1320.838075,4785.645200,-9896.714274
7272.255374,593.420005,1799.402595,-9475.577496
7272.257830,3522.234867,-1378.265818,-9513.862658
7272.260287,-2373.680019,4900.500685,-9456.434915
7272.262744,1493.121302,-76.570323,-10356.136213
7272.265201,4575.076811,-3464.807125,-9973.284597
7272.267658,-2679.961312,9743.573627,-7580.461997
7272.270115,57.427742,-2622.533570,-11064.411702
7272.272571,2641.676150,-3292.523898,-10375.278794
7272.275028,-1990.828403,7733.602643,-8480.163294
7272.277485,3139.383251,-5876.772306,-11140.982026
7272.279942,-803.988394,9513.862658,-7484.749093
7272.282399,1397.408398,-2603.390989,-10528.419440
7272.284856,-746.560651,-1378.265818,-10260.423309
7272.287312,-650.847747,-1780.260014,-10700.702667
7272.289807,2009.970984,-5551.348432,-10834.700733
7272.292301,-555.134843,1129.412267,-9341.579430
7272.294795,-1665.404530,5838.487144,-8805.587168
7272.297290,4460.221326,-3905.086483,-10241.280728
7272.299784,-229.710970,1531.406464,-9781.858789
7272.302278,-1493.121302,497.707101,-10528.419440
7272.304773,1320.838075,-497.707101,-9762.716208
7272.307267,3483.949706,1129.412267,-8614.161360
7272.309761,95.712904,708.275490,-10030.712339
7272.312256,-2009.970984,-1359.123237,-10643.274925
7272.314750,2565.105827,899.701298,-9762.716208
7272.317244,95.712904,1244.267752,-9724.431046
7272.319739,325.423874,1588.834206,-9245.866526
7272.322233,287.138712,765.703232,-9513.862658
7272.324727,823.130974,-2909.672282,-10777.272990
7272.327222,133.998066,1244.267752,-9743.573627
7272.329716,95.712904,1014.556782,-10145.567824
7272.332210,555.134843,287.138712,-9437.292334
7272.334705,861.416136,-555.134843,-9322.436850
7272.337199,-248.853550,306.281293,-10241.280728
7272.339693,823.130974,-2182.254211,-10796.415571
7272.342187,401.994197,-1320.838075,-9801.001370
7272.344682,-440.279358,2277.967115,-8977.870395
7272.347176,-133.998066,-1952.543242,-10222.138147
7272.349670,2679.961312,574.277424,-9896.714274
7272.352165,-1091.127106,-2067.398726,-10719.845248
7272.354659,-765.703232,976.271621,-9781.858789
7272.357153,-325.423874,-2029.113565,-10356.136213
7272.359648,2124.826469,2373.680019,-8786.444587
7272.362142,-133.998066,1014.556782,-9284.151688
7272.364636,-1627.119368,-5723.631659,-12289.536874
7272.367131,2928.814862,2699.103893,-8843.872330
7272.369625,2124.826469,3732.803256,-8690.731683
7272.372119,-3292.523898,-6202.196179,-11562.118803
7272.374614,1799.402595,6144.768437,-8556.733618
7272.377108,593.420005,-5206.781978,-11389.835576
7272.379602,248.853550,4058.227130,-10088.140082
7272.382097,-880.558717,1454.836141,-9628.718142
7272.384591,1473.978722,2622.533570,-8748.159426
7272.387085,1722.832272,7791.030386,-8212.167163
7272.389603,-1780.260014,-6623.332957,-11906.685258
7272.392120,-842.273555,-1837.687757,-10547.562021
7272.394638,2239.681954,6910.471669,-8059.026517
7272.397155,-1091.127106,-2565.105827,-11389.835576
7272.399673,1052.841944,7044.469734,-8193.024582
7272.402190,1378.265818,-1722.832272,-10126.425243
7272.404708,172.283227,-2220.539373,-10949.556218
7272.407225,325.423874,5742.774240,-9111.868461
7272.409743,1378.265818,1895.115499,-10164.710405
7272.412260,421.136778,-363.709035,-9762.716208
7272.414778,-516.849682,2124.826469,-8997.012976
7272.417296,1263.410333,-306.281293,-10375.278794
7272.419813,440.279358,937.986459,-10164.710405
7272.422331,497.707101,1512.263883,-9858.429112
7272.424848,-153.140646,650.847747,-9628.718142
7272.427366,612.562586,1473.978722,-9092.725880
7272.429883,842.273555,-95.712904,-10375.278794
7272.432401,-765.703232,2622.533570,-10030.712339
7272.434918,1933.400661,976.271621,-9877.571693
7272.437436,-689.132909,803.988394,-9475.577496
7272.439953,-363.709035,3273.381317,-9035.298138
7272.442471,1263.410333,1741.974853,-9820.143950
7272.444988,-114.855485,3273.381317,-10260.423309
7272.447506,2526.820666,210.568389,-9954.142016
7272.450023,-708.275490,4823.930362,-8901.300072
7272.452541,-1148.554848,3905.086483,-9667.003304
7272.455058,4307.080680,-4555.934230,-10222.138147
7272.457576,-3062.812928,9188.438784,-8097.311678
7272.460093,612.562586,-3426.521963,-11408.978157
7272.462611,2373.680019,-5111.069074,-10662.417506
7272.465128,-2316.252277,9303.294269,-7752.745224
7272.467646,3445.664544,-4307.080680,-10643.274925
7272.470164,-401.994197,11179.267187,-7503.891674
7272.472681,2545.963246,267.996131,-10011.569758
7272.475199,-1512.263883,-1282.552914,-9705.288466
7272.477716,-478.564520,-3139.383251,-10681.560086
7272.480234,2622.533570,-7274.180704,-10911.271056
7272.482751,-1186.840010,4766.502619,-8633.303941
7272.485269,-937.986459,6202.196179,-9150.153622
7272.487786,4670.789715,-6278.766502,-11006.983960
7272.490321,-3196.810994,3866.801322,-8843.872330
7272.492855,306.281293,-1186.840010,-10394.421374
7272.495389,2009.970984,497.707101,-9820.143950
7272.497924,2545.963246,612.562586,-9073.583299
7272.500458,-1914.258080,-1282.552914,-9954.142016
7272.502992,1665.404530,-1493.121302,-10279.565890
7272.505527,1741.974853,2431.107762,-9705.288466
7272.508061,-1205.982590,1320.838075,-9820.143950
7272.510595,995.414202,1990.828403,-9073.583299
7272.513130,535.992262,76.570323,-10183.852986
7272.515664,153.140646,-2488.535504,-10490.134278
7272.518198,478.564520,1378.265818,-9418.149754
7272.520733,363.709035,803.988394,-10068.997501
7272.523267,516.849682,-727.418070,-10030.712339
7272.525801,306.281293,555.134843,-9226.723946
7272.528336,344.566454,-1569.691626,-10222.138147
7272.530870,95.712904,-689.132909,-10088.140082
7272.533404,2373.680019,153.140646,-10011.569758
7272.535939,267.996131,-1550.549045,-9801.001370
7272.538473,-784.845813,-1875.972918,-9724.431046
7272.541007,1607.976787,133.998066,-9399.007173
7272.543542,2009.970984,3847.658741,-9590.432981
7272.546076,-1263.410333,-2163.111630,-10853.843314
7272.548610,-1244.267752,-1052.841944,-9207.581365
7272.551145,3637.090352,6604.190376,-8001.598774
7272.553679,-1205.982590,-8307.880067,-12021.540742
7272.556214,-1339.980656,497.707101,-9494.720077
7272.558748,3349.951640,937.986459,-9743.573627
7272.561282,-287.138712,-421.136778,-10202.995566
7272.563817,19.142581,7025.327154,-8212.167163
7272.566351,1703.689691,-880.558717,-10528.419440
7272.568885,1933.400661,3503.092286,-9858.429112
7272.571420,-2163.111630,-2009.970984,-10719.845248
7272.573954,-1148.554848,-995.414202,-9877.571693
7272.576488,3120.240670,4632.504554,-8997.012976
7272.579023,1741.974853,1473.978722,-9571.290400
7272.581557,-1378.265818,-2967.100024,-10892.128475
7272.584091,1684.547110,6795.616184,-8748.159426
7272.586626,-306.281293,-2660.818731,-11064.411702
7272.589160,0.000000,4709.074877,-8843.872330
7272.591707,210.568389,4134.797453,-8518.448456
7272.594255,1627.119368,-1339.980656,-10777.272990
7272.596802,-1378.265818,3943.371645,-9647.860723
7272.599349,2641.676150,1646.261949,-9934.999435
7272.601896,153.140646,1914.258080,-9494.720077
7272.604443,-1186.840010,-210.568389,-9111.868461
7272.606991,1569.691626,1397.408398,-9686.145885
7272.609538,727.418070,1550.549045,-10470.991698
7272.612085,95.712904,574.277424,-10145.567824
7272.614632,-19.142581,842.273555,-8729.016845
7272.617180,1071.984525,669.990328,-9303.294269
7272.619727,803.988394,1205.982590,-10528.419440
7272.622274,899.701298,2603.390989,-10068.997501
7272.624821,421.136778,1971.685822,-9801.001370
7272.627369,153.140646,2067.398726,-9131.011042
7272.629916,555.134843,2545.963246,-8997.012976
7272.632463,2622.533570,-401.994197,-10681.560086
7272.635010,-2947.957443,6355.336826,-9399.007173
7272.637558,2622.533570,1359.123237,-10317.851051
7272.640105,2411.965181,-1607.976787,-9705.288466
7272.642652,-1071.984525,6451.049730,-7637.889739
7272.645199,2201.396792,-5225.924558,-11657.831707
7272.647747,823.130974,-1148.554848,-11026.126541
7272.650294,-1435.693560,10107.282662,-7427.321350
7272.652841,2909.672282,-4594.219392,-11006.983960
7272.655388,-976.271621,5704.489078,-8518.448456
7272.657936,-995.414202,-5493.920690,-11102.696864
7272.660483,1780.260014,-1646.261949,-10566.704602
7272.663030,1703.689691,459.421939,-9839.286531
7272.665577,2163.111630,-4594.219392,-10068.997501
7272.668125,-1531.406464,7006.184573,-7618.747158
7272.670672,1359.123237,-1493.121302,-10413.563955
7272.673219,2431.107762,-5647.061336,-11772.687192
7272.675766,-3292.523898,5800.201982,-8843.872330
7272.678314,2909.672282,-1856.830338,-9858.429112
7272.680861,-191.425808,3292.523898,-8977.870395
7272.683408,-727.418070,-2277.967115,-10279.565890
7272.685955,2909.672282,-5283.352301,-10643.274925
7272.688503,114.855485,-325.423874,-10145.567824
7272.691050,-727.418070,1110.269686,-10088.140082
7272.693605,842.273555,1071.984525,-9284.151688
7272.696160,1263.410333,4000.799387,-9111.868461
7272.698715,-210.568389,-2737.389054,-10604.989763
7272.701270,459.421939,-535.992262,-9877.571693
7272.703826,612.562586,1588.834206,-9973.284597
7272.706381,382.851616,478.564520,-10030.712339
7272.708936,401.994197,-478.564520,-9686.145885
7272.711491,363.709035,-248.853550,-9456.434915
7272.714046,1282.552914,995.414202,-9896.714274
7272.716601,-535.992262,-1091.127106,-10528.419440
7272.719157,1607.976787,-3311.666478,-10011.569758
7272.721712,-325.423874,-3139.383251,-9628.718142
7272.724267,593.420005,-1282.552914,-10068.997501
7272.726822,2813.959378,6278.766502,-9131.011042
7272.729377,-1033.699363,-1952.543242,-11274.980091
7272.731933,-95.712904,478.564520,-9399.007173
7272.734488,2679.961312,6431.907149,-7886.743290
7272.737043,19.142581,-8020.741355,-11868.400096
7272.739598,-1703.689691,-1607.976787,-10145.567824
7272.742153,1971.685822,1110.269686,-9820.143950
7272.744708,708.275490,-574.277424,-10088.140082
7272.747264,-535.992262,6374.479406,-8537.591037
7272.749819,2105.683888,1071.984525,-10145.567824
7272.752374,153.140646,3292.523898,-10279.565890
7272.754929,-1971.685822,191.425808,-9954.142016
7272.757484,-842.273555,-1225.125171,-9839.286531
7272.760039,3081.955509,3445.664544,-9265.009107
7272.762595,1512.263883,1741.974853,-9475.577496
7272.765150,-937.986459,-2660.818731,-10758.130410
7272.767705,1378.265818,6451.049730,-8882.157491
7272.770260,-363.709035,-1799.402595,-11083.554283
7272.772815,1052.841944,5455.635528,-8633.303941
7272.775370,382.851616,1703.689691,-8461.020714
7272.777926,976.271621,-2124.826469,-11064.411702
7272.780481,-191.425808,2258.824534,-9667.003304
7272.783036,1244.267752,2488.535504,-9801.001370
7272.785591,229.710970,2699.103893,-9609.575562
7272.788146,-76.570323,861.416136,-9092.725880
7272.790702,1646.261949,-248.853550,-9973.284597
7272.793257,-497.707101,1990.828403,-10107.282662
7272.795818,363.709035,459.421939,-10336.993632
7272.798380,1052.841944,631.705166,-9609.575562
7272.800942,344.566454,995.414202,-8748.159426
7272.803504,57.427742,1263.410333,-9858.429112
7272.806065,76.570323,3732.803256,-10222.138147
7272.808627,823.130974,2220.539373,-9743.573627
7272.811189,-382.851616,1014.556782,-9743.573627
7272.813750,2545.963246,918.843878,-9169.296203
7272.816312,-344.566454,4421.936165,-9552.147819
7272.818874,-1205.982590,4900.500685,-10298.708470
7272.821436,3426.521963,-1320.838075,-10088.140082
7272.823997,-1799.402595,6029.912952,-8135.596840
7272.826559,1875.972918,-5647.061336,-10949.556218
7272.829121,918.843878,-5876.772306,-10719.845248
7272.831683,-1875.972918,9111.868461,-8882.157491
7272.834244,3177.668413,-2737.389054,-11064.411702
7272.836806,-746.560651,11236.694930,-6833.901346
7272.839368,1378.265818,-4919.643266,-10930.413637
7272.841929,-1263.410333,-3981.656806,-10930.413637
7272.844491,1416.550979,248.853550,-9858.429112
7272.847053,2182.254211,-4594.219392,-10547.562021
7272.849615,-1550.549045,7293.323285,-7925.028451
7272.852176,1493.121302,-1052.841944,-9877.571693
7272.854738,4460.221326,-6106.483275,-11332.407834
7272.857300,-3790.230998,4077.369710,-9188.438784
7272.859862,1741.974853,-2775.674216,-10585.847182
7272.862423,918.843878,2124.826469,-9456.434915
7272.864985,-478.564520,1818.545176,-8920.442653
7272.867547,1914.258080,-6355.336826,-10509.276859
7272.870108,-19.142581,-650.847747,-10107.282662
7272.872670,287.138712,1320.838075,-9992.427178
7272.875232,210.568389,593.420005,-10298.708470
7272.877794,1052.841944,1359.123237,-8939.585234
7272.880355,421.136778,2277.967115,-8863.014910
7272.882917,976.271621,-1761.117434,-10490.134278
7272.885479,-421.136778,1971.685822,-10011.569758
7272.888041,899.701298,325.423874,-9954.142016
7272.890602,133.998066,-1263.410333,-9954.142016
7272.893164,823.130974,1033.699363,-9073.583299
7272.895726,803.988394,-1818.545176,-10260.423309
7272.898291,-382.851616,-3981.656806,-10681.560086
7272.900856,-19.142581,-1722.832272,-9781.858789
7272.903422,535.992262,976.271621,-9475.577496
7272.905987,-95.712904,114.855485,-10872.985894
7272.908552,1435.693560,5417.350366,-8441.878133
7272.911118,-880.558717,-1761.117434,-10222.138147
7272.913683,1588.834206,2584.248408,-9992.427178
7272.916248,1952.543242,-2488.535504,-9762.716208
7272.918814,229.710970,-4211.367776,-10643.274925
7272.921379,-1952.543242,-3924.229064,-10662.417506
7272.923944,2718.246474,6795.616184,-8461.020714
7272.926510,803.988394,-1856.830338,-11006.983960
7272.929075,-1952.543242,9399.007173,-8097.311678
7272.931640,4058.227130,5800.201982,-8690.731683
7272.934206,-210.568389,-1684.547110,-10719.845248
7272.936771,-1914.258080,-1473.978722,-9858.429112
7272.939336,995.414202,-689.132909,-10758.130410
7272.941902,2335.394858,3866.801322,-9150.153622
7272.944467,-401.994197,-1359.123237,-9896.714274
7272.947032,1033.699363,5340.780043,-9705.288466
7272.949598,-1014.556782,1780.260014,-9820.143950
7272.952163,1110.269686,-382.851616,-10394.421374
7272.954729,-363.709035,2679.961312,-9054.440718
7272.957294,459.421939,-1761.117434,-10356.136213
7272.959859,210.568389,2450.250342,-9513.862658
7272.962425,1225.125171,1512.263883,-9877.571693
7272.964990,-612.562586,765.703232,-10126.425243
7272.967555,-382.851616,3426.521963,-8977.870395
7272.970121,1799.402595,-765.703232,-10126.425243
7272.972686,861.416136,1607.976787,-9934.999435
7272.975251,-555.134843,995.414202,-10566.704602
7272.977817,1378.265818,1225.125171,-9494.720077
7272.980382,574.277424,1856.830338,-9111.868461
7272.982947,-516.849682,2431.107762,-9724.431046
7272.985513,1205.982590,1071.984525,-10011.569758
7272.988078,1550.549045,784.845813,-10336.993632
7272.990643,-2029.113565,4632.504554,-9399.007173
7272.993209,3024.527766,1205.982590,-9781.858789
7272.995774,-689.132909,3885.943902,-9265.009107
7272.998339,2182.254211,-2067.398726,-9934.999435
7273.000851,-976.271621,861.416136,-10011.569758
7273.003363,-306.281293,4039.084549,-10183.852986
7273.005875,1493.121302,-421.136778,-9207.581365
7273.008387,593.420005,287.138712,-10336.993632
7273.010899,-191.425808,-2220.539373,-10509.276859
7273.013411,-133.998066,6853.043926,-8135.596840
7273.015923,2526.820666,669.990328,-10107.282662
7273.018435,-995.414202,421.136778,-9341.579430
7273.020947,-803.988394,-3081.955509,-10872.985894
7273.023459,1186.840010,-4517.649069,-10356.136213
7273.025970,976.271621,-2833.101958,-10547.562021
7273.028482,-1780.260014,6470.192310,-9399.007173
7273.030994,4862.215523,-784.845813,-9475.577496
7273.033506,-1320.838075,2967.100024,-8690.731683
7273.036018,401.994197,-2431.107762,-10872.985894
7273.038530,1052.841944,-2277.967115,-10298.708470
7273.041042,0.000000,2737.389054,-9934.999435
7273.043554,593.420005,-2947.957443,-10317.851051
7273.046066,153.140646,-650.847747,-9322.436850
7273.048578,1607.976787,1799.402595,-10107.282662
7273.051090,-957.129040,516.849682,-10470.991698
7273.053602,765.703232,746.560651,-9092.725880
7273.056114,1071.984525,344.566454,-9303.294269
7273.058626,267.996131,612.562586,-10317.851051
7273.061137,-172.283227,842.273555,-10088.140082
7273.063649,1531.406464,-19.142581,-9839.286531
7273.066161,1205.982590,-2220.539373,-9896.714274
7273.068673,-459.421939,-574.277424,-9552.147819
7273.071185,708.275490,-4192.225195,-10490.134278
7273.073697,153.140646,-1454.836141,-10107.282662
7273.076209,2239.681954,5168.496816,-9169.296203
7273.078721,-1435.693560,-2622.533570,-10758.130410
7273.081233,803.988394,1110.269686,-9322.436850
7273.083745,2507.678085,4919.643266,-8231.309744
7273.086257,-1359.123237,-7178.467800,-12538.390424
7273.088769,1052.841944,-306.281293,-9686.145885
7273.091281,4019.941968,3962.514226,-8135.596840
7273.093793,-593.420005,-4862.215523,-11160.124606
7273.096304,-172.283227,6929.614250,-8671.589102
7273.098816,1627.119368,-2411.965181,-10872.985894
7273.101344,95.712904,5149.354235,-9877.571693
7273.103871,-1129.412267,4039.084549,-9303.294269
7273.106398,2737.389054,2450.250342,-8518.448456
7273.108924,1301.695494,3828.516160,-8939.585234
7273.111451,-2258.824534,-7886.743290,-12212.966550
7273.113978,-95.712904,-1416.550979,-10624.132344
7273.116505,1110.269686,3330.809059,-8690.731683
7273.119032,1359.123237,2813.959378,-10298.708470
7273.121558,-287.138712,6106.483275,-8824.729749
7273.124085,172.283227,38.285162,-9781.858789
7273.126612,1167.697429,535.992262,-9801.001370
7273.129139,382.851616,-535.992262,-10164.710405
7273.131666,172.283227,650.847747,-10164.710405
7273.134192,861.416136,2182.254211,-9188.438784
7273.136719,516.849682,3101.098090,-9418.149754
7273.139246,76.570323,-306.281293,-9896.714274
7273.141773,957.129040,1895.115499,-9226.723946
7273.144300,440.279358,1569.691626,-10202.995566
7273.146826,612.562586,306.281293,-10202.995566
7273.149353,287.138712,3847.658741,-9016.155557
7273.151880,421.136778,1225.125171,-9513.862658
7273.154407,-306.281293,937.986459,-9724.431046
7273.156934,3311.666478,880.558717,-10164.710405
7273.159460,-784.845813,5647.061336,-9571.290400
7273.161987,-1646.261949,5819.344563,-9533.005238
7273.164514,2947.957443,-555.134843,-9341.579430
7273.167041,-1244.267752,5015.356170,-8154.739421
7273.169568,1665.404530,-5283.352301,-11964.113000
7273.172094,57.427742,-2450.250342,-10738.987829
7273.174621,-937.986459,9667.003304,-7733.602643
7273.177148,2029.113565,-3005.385186,-10432.706536
7273.179675,-650.847747,4747.360038,-8767.302006
7273.182213,-1091.127106,-4900.500685,-11734.402030
7273.184752,-937.986459,-3579.662610,-11083.554283
7273.187291,1780.260014,401.994197,-9628.718142
7273.189829,2239.681954,-3694.518094,-10030.712339
7273.192368,-2143.969050,6010.770371,-7829.315547
7273.194907,1818.545176,-3522.234867,-10815.558152
7273.197446,-478.564520,-2143.969050,-11370.692995
7273.199984,-153.140646,2029.113565,-9437.292334
7273.202523,2794.816797,1033.699363,-8997.012976
7273.205062,-1282.552914,2220.539373,-9781.858789
7273.207600,593.420005,248.853550,-9552.147819
7273.210139,1454.836141,-1952.543242,-10088.140082
7273.212678,114.855485,-2718.246474,-10585.847182
7273.215216,57.427742,-650.847747,-9379.864592
7273.217755,1512.263883,1339.980656,-9934.999435
7273.220294,-210.568389,1741.974853,-10049.854920
7273.222832,19.142581,344.566454,-9456.434915
7273.225371,1129.412267,57.427742,-9533.005238
7273.227910,689.132909,459.421939,-10298.708470
7273.230448,-516.849682,-861.416136,-10375.278794
7273.232987,287.138712,-114.855485,-9437.292334
7273.235526,765.703232,-3598.805190,-9762.716208
7273.238064,344.566454,-3177.668413,-10068.997501
7273.240603,-401.994197,1052.841944,-9820.143950
7273.243142,937.986459,478.564520,-10815.558152
7273.245680,1550.549045,3349.951640,-9360.722011
7273.248219,-1148.554848,-2335.394858,-9762.716208
7273.250758,2086.541307,5972.485210,-8690.731683
7273.253296,57.427742,-6068.198114,-11102.696864
7273.255835,344.566454,-3771.088418,-11006.983960
7273.258374,-2354.537438,-3656.232933,-10738.987829
7273.260912,3311.666478,3215.953574,-8327.022648
7273.263451,248.853550,2316.252277,-10068.997501
7273.265990,516.849682,5934.200048,-9169.296203
7273.268528,1780.260014,2928.814862,-9820.143950
7273.271067,-669.990328,-2297.109696,-11179.267187
7273.273606,-2220.539373,-1225.125171,-9628.718142
7273.276144,2813.959378,1531.406464,-9667.003304
7273.278683,1875.972918,2775.674216,-9513.862658
7273.281222,-1091.127106,-1435.693560,-10241.280728
7273.283770,-267.996131,3828.516160,-9226.723946
7273.286318,1588.834206,861.416136,-10662.417506
7273.288867,574.277424,3598.805190,-9360.722011
7273.291415,-1454.836141,3139.383251,-8786.444587
7273.293963,1990.828403,-842.273555,-10470.991698
7273.296512,669.990328,1531.406464,-9724.431046
7273.299060,382.851616,593.420005,-10164.710405
7273.301609,-689.132909,-114.855485,-10088.140082
7273.304157,746.560651,4785.645200,-8671.589102
7273.306705,1473.978722,-2277.967115,-10681.560086
7273.309254,-1071.984525,2813.959378,-9322.436850
7273.311802,1186.840010,1244.267752,-9839.286531
7273.314350,344.566454,1263.410333,-10317.851051
7273.316899,-210.568389,3694.518094,-8805.587168
7273.319447,2928.814862,-19.142581,-9590.432981
7273.321996,-1818.545176,2507.678085,-10107.282662
7273.324544,1837.687757,5302.494882,-10088.140082
7273.327092,765.703232,5111.069074,-9571.290400
7273.329641,2277.967115,-2794.816797,-9590.432981
7273.332189,-2335.394858,5781.059402,-7542.176835
7273.334737,842.273555,-1148.554848,-11236.694930
7273.337286,2431.107762,-6489.334891,-11676.974288
7273.339834,-1971.685822,7389.036189,-8920.442653
7273.342383,2737.389054,-1665.404530,-10336.993632
7273.344931,-612.562586,7810.172966,-7216.752962
7273.347479,2852.244539,-210.568389,-10490.134278
7273.350028,-1703.689691,880.558717,-9762.716208
7273.352576,267.996131,-5225.924558,-11274.980091
7273.355124,2852.244539,-8231.309744,-11121.839445
7273.357673,-1990.828403,6470.192310,-7427.321350
7273.360221,1033.699363,2775.674216,-9456.434915
7273.362770,2277.967115,-2450.250342,-11332.407834
7273.365318,-2354.537438,3637.090352,-9073.583299
7273.367866,1627.119368,-4402.793584,-10738.987829
7273.370415,-248.853550,57.427742,-9628.718142
7273.372963,593.420005,1665.404530,-9418.149754
7273.375511,1493.121302,-1722.832272,-10241.280728
7273.378060,689.132909,-153.140646,-9877.571693
7273.380608,-229.710970,-2029.113565,-10145.567824
7273.383157,650.847747,2411.965181,-9456.434915
7273.385711,823.130974,727.418070,-10107.282662
7273.388266,-612.562586,-401.994197,-9743.573627
7273.390821,325.423874,516.849682,-9456.434915
7273.393376,976.271621,-114.855485,-10394.421374
7273.395930,612.562586,-1875.972918,-10202.995566
7273.398485,382.851616,-2967.100024,-9801.001370
7273.401040,19.142581,-1780.260014,-9628.718142
7273.403594,2277.967115,2565.105827,-9456.434915
7273.406149,-1416.550979,-2507.678085,-11313.265253
7273.408704,899.701298,2163.111630,-9533.005238
7273.411259,-1148.554848,-191.425808,-9073.583299
7273.413813,-191.425808,-3445.664544,-11504.691061
7273.416368,2182.254211,3120.240670,-8690.731683
7273.418923,1454.836141,708.275490,-9399.007173
7273.421477,-2699.103893,-8920.442653,-12442.677520
7273.424032,2469.392923,5283.352301,-7963.313613
7273.426587,1014.556782,-1071.984525,-10509.276859
7273.429142,-1665.404530,8020.741355,-8652.446522
7273.431696,3675.375514,6068.198114,-9016.155557
7273.434251,-1071.984525,-1722.832272,-10853.843314
7273.436806,-2354.537438,-1588.834206,-10145.567824
7273.439360,-478.564520,-2871.387120,-10930.413637
7273.441915,3043.670347,3962.514226,-8863.014910
7273.444470,-248.853550,-593.420005,-9762.716208
7273.447025,-1052.841944,4268.795518,-9418.149754
7273.449579,1895.115499,1148.554848,-10241.280728
7273.452134,1225.125171,1531.406464,-10088.140082
7273.454689,-2354.537438,2756.531635,-9131.011042
7273.457244,2392.822600,803.988394,-9667.003304
7273.459798,631.705166,-306.281293,-10107.282662
7273.462353,612.562586,-1110.269686,-10336.993632
7273.464908,-612.562586,3790.230998,-9073.583299
7273.467462,1320.838075,976.271621,-9724.431046
7273.470017,516.849682,708.275490,-9705.288466
7273.472572,210.568389,1837.687757,-9609.575562
7273.475127,593.420005,1607.976787,-10260.423309
7273.477681,133.998066,1531.406464,-9667.003304
7273.480236,2373.680019,191.425808,-9245.866526
7273.482791,-2163.111630,2871.387120,-9552.147819
7273.485345,2105.683888,4019.941968,-10356.136213
7273.487906,1071.984525,5532.205851,-9820.143950
7273.490466,2316.252277,-2277.967115,-9801.001370
7273.493026,-2335.394858,4230.510357,-8039.883936
7273.495587,-631.705166,248.853550,-10470.991698
7273.498147,3158.525832,-6297.909083,-11198.409768
7273.500707,-1780.260014,6317.051664,-9226.723946
7273.503267,1627.119368,-1550.549045,-10834.700733
7273.505828,-555.134843,9820.143950,-6853.043926
7273.508388,3330.809059,-133.998066,-9915.856854
7273.510948,-1129.412267,1875.972918,-9360.722011
7273.513509,-516.849682,-4709.074877,-11466.405899
7273.516069,2871.387120,-8901.300072,-11351.550414
7273.518629,-1837.687757,5379.065205,-7752.745224
7273.521189,382.851616,3694.518094,-9188.438784
7273.523750,2277.967115,-2163.111630,-11179.267187
7273.526310,-1990.828403,842.273555,-9858.429112
7273.528870,2526.820666,-1895.115499,-10107.282662
7273.531430,-363.709035,1895.115499,-9858.429112
7273.533991,612.562586,1837.687757,-9265.009107
7273.536551,1167.697429,-1186.840010,-10068.997501
7273.539111,593.420005,-957.129040,-10068.997501
7273.541672,-76.570323,-229.710970,-9934.999435
7273.544232,880.558717,803.988394,-9896.714274
7273.546792,1186.840010,918.843878,-9839.286531
7273.549352,-382.851616,-191.425808,-9820.143950
7273.551913,1244.267752,612.562586,-9494.720077
7273.554473,899.701298,-2201.396792,-10432.706536
7273.557033,133.998066,-1378.265818,-9973.284597
7273.559593,38.285162,-1914.258080,-9513.862658
7273.562154,2105.683888,1014.556782,-9418.149754
7273.564714,-1703.689691,-1914.258080,-11026.126541
7273.567274,1799.402595,2316.252277,-9437.292334
7273.569835,-1282.552914,-899.701298,-9686.145885
7273.572395,1990.828403,4019.941968,-9284.151688
7273.574955,344.566454,-3943.371645,-10183.852986
7273.577515,-957.129040,-3101.098090,-10643.274925
7273.580076,344.566454,631.705166,-11734.402030
7273.582636,2699.103893,4441.078746,-8116.454259
7273.585196,1033.699363,535.992262,-10451.849117
7273.587757,-229.710970,6833.901346,-8556.733618
7273.590321,2526.820666,4039.084549,-9379.864592
7273.592886,-2239.681954,-1914.258080,-11083.554283
7273.595451,-1091.127106,172.283227,-9801.001370
7273.598016,4249.652938,7714.460062,-8059.026517
7273.600581,-1205.982590,-1914.258080,-10470.991698
7273.603146,-631.705166,-2679.961312,-10662.417506
7273.605711,-210.568389,2813.959378,-9188.438784
7273.608276,3751.945837,1531.406464,-10451.849117
7273.610841,-2526.820666,3522.234867,-9839.286531
7273.613406,-765.703232,3771.088418,-8633.303941
7273.615971,3254.238736,-708.275490,-9839.286531
7273.618535,-1129.412267,-363.709035,-10107.282662
7273.621100,497.707101,2813.959378,-9705.288466
7273.623665,1378.265818,-210.568389,-10413.563955
7273.626230,-210.568389,1646.261949,-9245.866526
7273.628795,669.990328,1091.127106,-9475.577496
7273.631360,1512.263883,746.560651,-9954.142016
7273.633925,-555.134843,4096.512291,-9915.856854
7273.636490,1895.115499,-918.843878,-10279.565890
7273.639055,-995.414202,1646.261949,-8977.870395
7273.641620,1512.263883,3713.660675,-9341.579430
7273.644185,-325.423874,5991.627790,-9934.999435
7273.646749,765.703232,2373.680019,-10528.419440
7273.649314,-497.707101,4498.506488,-8441.878133
7273.651879,2469.392923,-3541.377448,-10068.997501
7273.654444,2086.541307,-5627.918755,-11006.983960
7273.657009,-2277.967115,9801.001370,-7925.028451
7273.659574,2297.109696,-3043.670347,-11523.833642
7273.662139,-287.138712,6202.196179,-8690.731683
7273.664704,-937.986459,-4115.654872,-10777.272990
7273.667269,918.843878,-3885.943902,-10088.140082
7273.669834,1914.258080,5340.780043,-8767.302006
7273.672399,95.712904,-957.129040,-10872.985894
7273.674964,-516.849682,-2488.535504,-8365.307810
7273.677528,2124.826469,-3503.092286,-10183.852986
7273.680093,-823.130974,-1646.261949,-10987.841379
7273.682658,1914.258080,-478.564520,-9934.999435
7273.685223,-823.130974,3024.527766,-8824.729749
7273.687788,-842.273555,2277.967115,-10222.138147
7273.690353,1531.406464,440.279358,-9131.011042
7273.692921,803.988394,-784.845813,-9647.860723
7273.695488,-229.710970,-1378.265818,-10604.989763
7273.698056,957.129040,229.710970,-9647.860723
7273.700623,535.992262,133.998066,-10394.421374
7273.703191,-995.414202,727.418070,-9877.571693
7273.705759,1646.261949,746.560651,-9399.007173
7273.708326,535.992262,-650.847747,-9954.142016
7273.710894,344.566454,-746.560651,-10049.854920
7273.713462,229.710970,-2526.820666,-10145.567824
7273.716029,-401.994197,-1722.832272,-10011.569758
7273.718597,2067.398726,1091.127106,-9475.577496
7273.721164,459.421939,-114.855485,-9705.288466
7273.723732,-1282.552914,-1895.115499,-10547.562021
7273.726300,1627.119368,4249.652938,-8882.157491
7273.728867,-593.420005,-4230.510357,-11581.261384
7273.731435,1607.976787,2545.963246,-8575.876198
7273.734003,2297.109696,5570.491013,-7905.885870
7273.736570,-382.851616,-6833.901346,-11887.542677
7273.739138,-210.568389,5551.348432,-8805.587168
7273.741705,1110.269686,-4058.227130,-11083.554283
7273.744273,-765.703232,5627.918755,-9456.434915
7273.746841,344.566454,7848.458128,-8422.735552
7273.749408,2450.250342,3043.670347,-9265.009107
7273.751976,-1397.408398,-516.849682,-10202.995566
7273.754544,-823.130974,-2909.672282,-11466.405899
7273.757111,2813.959378,2775.674216,-8882.157491
7273.759679,784.845813,210.568389,-9150.153622
7273.762246,-1627.119368,3866.801322,-9820.143950
7273.764814,2431.107762,4823.930362,-9743.573627
7273.767382,1799.402595,1550.549045,-10394.421374
7273.769949,-2431.107762,1588.834206,-9226.723946
7273.772517,1550.549045,478.564520,-9207.581365
7273.775085,1110.269686,-669.990328,-10566.704602
7273.777652,-880.558717,2565.105827,-10164.710405
7273.780220,1110.269686,1665.404530,-9494.720077
7273.782787,1665.404530,363.709035,-9188.438784
7273.785355,38.285162,593.420005,-9877.571693
7273.787923,-1416.550979,2909.672282,-9877.571693
7273.790490,4287.938099,-153.140646,-10413.563955
7273.793058,-1512.263883,2699.103893,-9494.720077
7273.795628,-478.564520,4479.363907,-9150.153622
7273.798198,1990.828403,5225.924558,-9054.440718
7273.800768,1952.543242,267.996131,-10643.274925
7273.803338,-2986.242605,7044.469734,-8461.020714
7273.805908,2622.533570,-3349.951640,-10643.274925
7273.808478,3943.371645,-7618.747158,-10853.843314
7273.811048,-2947.957443,8135.596840,-8116.454259
7273.813617,2852.244539,-2009.970984,-11083.554283
7273.816187,-363.709035,9399.007173,-8020.741355
7273.818757,287.138712,-3503.092286,-10949.556218
7273.821327,-497.707101,-4613.361973,-10547.562021
7273.823897,1512.263883,899.701298,-9322.436850
7273.826467,1856.830338,-1071.984525,-10107.282662
7273.829037,-1895.115499,2699.103893,-9265.009107
7273.831607,1550.549045,-593.420005,-9877.571693
7273.834177,153.140646,-1837.687757,-10834.700733
7273.836747,1052.841944,-1378.265818,-9973.284597
7273.839317,-57.427742,478.564520,-8958.727814
7273.841887,325.423874,1052.841944,-10528.419440
7273.844457,1416.550979,803.988394,-9571.290400
7273.847027,325.423874,-325.423874,-9647.860723
7273.849597,-76.570323,-1454.836141,-10183.852986
7273.852167,1052.841944,-995.414202,-9705.288466
7273.854737,248.853550,1512.263883,-10030.712339
7273.857307,-593.420005,823.130974,-10451.849117
7273.859877,861.416136,-1110.269686,-9647.860723
7273.862446,765.703232,382.851616,-9035.298138
7273.865016,669.990328,-2756.531635,-10375.278794
7273.867586,57.427742,-2545.963246,-10432.706536
7273.870156,1971.685822,2718.246474,-9360.722011
7273.872726,-937.986459,-3637.090352,-10528.419440
7273.875296,306.281293,-1014.556782,-9475.577496
7273.877866,-210.568389,3235.096155,-9111.868461
7273.880436,76.570323,-3215.953574,-11887.542677
7273.883006,2373.680019,3732.803256,-8748.159426
7273.885576,976.271621,2584.248408,-8327.022648
7273.888146,-1761.117434,-10260.423309,-12519.247843
7273.890716,1607.976787,4689.932296,-8001.598774
7273.893286,1397.408398,-1473.978722,-11102.696864
7273.895856,-995.414202,6795.616184,-8939.585234
7273.898428,3101.098090,7044.469734,-8307.880067
7273.901000,-1225.125171,-1684.547110,-10758.130410
7273.903572,-2775.674216,-1435.693560,-10298.708470
7273.906144,1512.263883,1607.976787,-10451.849117
7273.908716,2794.816797,1531.406464,-9801.001370
7273.911288,-1837.687757,-2163.111630,-9762.716208
7273.913860,287.138712,3426.521963,-8518.448456
7273.916432,3196.810994,1684.547110,-10356.136213
7273.919004,-2182.254211,3656.232933,-10451.849117
7273.921576,1378.265818,3713.660675,-8939.585234
7273.924148,1856.830338,-1856.830338,-9647.860723
7273.926720,-133.998066,382.851616,-10068.997501
7273.929292,-229.710970,2986.242605,-10126.425243
7273.931864,2277.967115,401.994197,-9973.284597
7273.934436,-555.134843,708.275490,-9188.438784
7273.937008,-516.849682,2545.963246,-9073.583299
7273.939580,2928.814862,-1435.693560,-10509.276859
7273.942152,-1761.117434,3656.232933,-9743.573627
7273.944724,1416.550979,3273.381317,-9781.858789
7273.947296,19.142581,4134.797453,-9092.725880
7273.949868,-133.998066,4000.799387,-9628.718142
7273.952440,823.130974,1263.410333,-9494.720077
7273.955012,1339.980656,114.855485,-10413.563955
7273.957584,-1703.689691,3292.523898,-9858.429112
7273.960156,1875.972918,19.142581,-9054.440718
7273.962728,2105.683888,-344.566454,-10547.562021
7273.965300,-861.416136,-2086.541307,-10566.704602
7273.967872,-1148.554848,7331.608446,-8173.882002
7273.970444,3637.090352,-650.847747,-10336.993632
7273.973016,-1607.976787,516.849682,-9092.725880
7273.975588,-2201.396792,-3043.670347,-10911.271056
7273.978160,3464.807125,-8461.020714,-11045.269122
7273.980732,-937.986459,2258.824534,-9265.009107
7273.983304,-248.853550,4441.078746,-9609.575562
7273.985876,1205.982590,459.421939,-9896.714274
7273.988449,631.705166,555.134843,-9150.153622
7273.991021,957.129040,-2411.965181,-10241.280728
7273.993593,-1110.269686,-1799.402595,-10949.556218
7273.996165,1110.269686,2488.535504,-9150.153622
7273.998737,937.986459,-114.855485,-9820.143950
7274.001310,612.562586,-421.136778,-9686.145885
7274.003883,248.853550,1512.263883,-9379.864592
7274.006456,1225.125171,114.855485,-10317.851051
7274.009029,612.562586,-306.281293,-10413.563955
7274.011602,-497.707101,1148.554848,-9265.009107
7274.014175,1225.125171,-3330.809059,-10183.852986
7274.016748,-363.709035,-1416.550979,-9705.288466
7274.019321,2182.254211,1301.695494,-9647.860723
7274.021894,1990.828403,-1588.834206,-10030.712339
7274.024467,-1282.552914,-2411.965181,-10068.997501
7274.027040,650.847747,2871.387120,-9131.011042
7274.029613,-248.853550,-2947.957443,-11485.548480
7274.032186,2239.681954,3790.230998,-8824.729749
7274.034759,1052.841944,3407.379382,-8422.735552
7274.037332,-1990.828403,-10643.274925,-12768.101394
7274.039905,1225.125171,3732.803256,-8154.739421
7274.042478,1320.838075,-1301.695494,-10585.847182
7274.045052,-555.134843,6853.043926,-8863.014910
7274.047625,1684.547110,9762.716208,-8116.454259
7274.050198,1454.836141,1875.972918,-9839.286531
7274.052771,-2718.246474,-1856.830338,-10298.708470
7274.055344,1875.972918,1761.117434,-10183.852986
7274.057917,2143.969050,1588.834206,-9609.575562
7274.060490,-1186.840010,-1550.549045,-9781.858789
7274.063063,957.129040,2756.531635,-8997.012976
7274.065636,1091.127106,746.560651,-10585.847182
7274.068209,-1225.125171,4000.799387,-10164.710405
7274.070782,76.570323,2622.533570,-9092.725880
7274.073355,2067.398726,-918.843878,-9150.153622
7274.075928,-574.277424,976.271621,-9934.999435
7274.078501,38.285162,3024.527766,-10317.851051
7274.081074,1703.689691,-593.420005,-10164.710405
7274.083647,-918.843878,1914.258080,-8499.305875
7274.086220,1646.261949,229.710970,-9437.292334
7274.088793,-172.283227,823.130974,-10528.419440
7274.091366,803.988394,5149.354235,-9877.571693
7274.093940,287.138712,3177.668413,-9762.716208
7274.096513,95.712904,3215.953574,-9399.007173
7274.099086,3158.525832,-516.849682,-9437.292334
7274.101659,-2373.680019,4843.072942,-9284.151688
7274.104233,-937.986459,1397.408398,-10624.132344
7274.106807,4575.076811,-1512.263883,-9341.579430
7274.109381,842.273555,1607.976787,-10126.425243
7274.111955,-823.130974,-2143.969050,-10566.704602
7274.114529,-995.414202,9150.153622,-7523.034254
7274.117103,3866.801322,-2182.254211,-11160.124606
7274.119677,-1952.543242,-1397.408398,-9858.429112
7274.122251,1646.261949,-3866.801322,-9934.999435
7274.124825,2986.242605,-5895.914886,-11083.554283
7274.127399,-2603.390989,7063.612315,-7829.315547
7274.129973,2297.109696,-861.416136,-10126.425243
7274.132547,1282.552914,153.140646,-10413.563955
7274.135121,1359.123237,-593.420005,-9360.722011
7274.137695,-1225.125171,-2450.250342,-9858.429112
7274.140269,306.281293,-1684.547110,-10700.702667
7274.142843,1569.691626,2679.961312,-9111.868461
7274.145417,325.423874,133.998066,-9973.284597
7274.147991,38.285162,363.709035,-9628.718142
7274.150565,803.988394,-38.285162,-9245.866526
7274.153140,535.992262,267.996131,-10279.565890
7274.155714,248.853550,401.994197,-10202.995566
7274.158288,574.277424,-344.566454,-9973.284597
7274.160862,650.847747,-2124.826469,-9762.716208
7274.163436,1684.547110,1052.841944,-8997.012976
7274.166010,-1722.832272,-3943.371645,-10777.272990
7274.168584,2392.822600,-1263.410333,-10164.710405
7274.171158,-344.566454,-2029.113565,-9858.429112
7274.173732,1493.121302,4555.934230,-9437.292334
7274.176306,-1607.976787,-4766.502619,-10968.698798
7274.178880,1761.117434,1397.408398,-9111.868461
7274.181454,2565.105827,3292.523898,-9437.292334
7274.184028,306.281293,-1607.976787,-10126.425243
7274.186602,440.279358,3905.086483,-9265.009107
7274.189176,-114.855485,-4421.936165,-10796.415571
7274.191750,803.988394,2660.818731,-10126.425243
7274.194324,-976.271621,5206.781978,-9150.153622
7274.196898,2220.539373,6757.331022,-8537.591037
7274.199472,248.853550,3349.951640,-9475.577496
7274.202046,-1799.402595,-4345.365842,-11466.405899
7274.204620,1588.834206,-612.562586,-9934.999435
7274.207162,727.418070,-1014.556782,-9437.292334
7274.209703,-995.414202,1167.697429,-10375.278794
7274.212245,1684.547110,8327.022648,-8882.157491
7274.214787,1684.547110,2641.676150,-10011.569758
7274.217329,-535.992262,-516.849682,-9513.862658
7274.219871,172.283227,2297.109696,-8633.303941
7274.222413,1741.974853,-612.562586,-10834.700733
7274.224955,478.564520,1091.127106,-10432.706536
7274.227497,382.851616,1895.115499,-9494.720077
7274.230038,1550.549045,-172.283227,-8882.157491
7274.232580,57.427742,1531.406464,-9571.290400
7274.235122,937.986459,3637.090352,-10375.278794
7274.237664,1416.550979,5015.356170,-9494.720077
7274.240206,-306.281293,3751.945837,-9954.142016
7274.242748,2603.390989,-1550.549045,-9456.434915
7274.245290,-2239.681954,6508.477472,-7714.460062
7274.247832,803.988394,248.853550,-10968.698798
7274.250374,3962.514226,-3158.525832,-10260.423309
7274.252915,-669.990328,4345.365842,-9513.862658
7274.255457,957.129040,-2239.681954,-10413.563955
7274.257999,-76.570323,9016.155557,-6833.901346
7274.260541,2909.672282,-3158.525832,-11179.267187
7274.263083,-1761.117434,-3407.379382,-11045.269122
7274.265625,1473.978722,-1933.400661,-9992.427178
7274.268167,2067.398726,-2718.246474,-10298.708470
7274.270709,-2507.678085,4326.223261,-8097.311678
7274.273251,2641.676150,-2852.244539,-10183.852986
7274.275792,1435.693560,440.279358,-10853.843314
7274.278334,-133.998066,-2201.396792,-10202.995566
7274.280876,-708.275490,-2373.680019,-9322.436850
7274.283418,2526.820666,191.425808,-9877.571693
7274.285960,401.994197,1416.550979,-9341.579430
7274.288502,191.425808,-612.562586,-10528.419440
7274.291044,516.849682,1473.978722,-9781.858789
7274.293586,1263.410333,-650.847747,-9379.864592
7274.296127,-267.996131,-325.423874,-9858.429112
7274.298669,210.568389,1091.127106,-9762.716208
7274.301211,899.701298,-1052.841944,-10681.560086
7274.303753,-344.566454,-172.283227,-9801.001370
7274.306295,478.564520,-1359.123237,-9571.290400
7274.308843,1301.695494,-3656.232933,-9839.286531
7274.311391,-746.560651,-2718.246474,-10336.993632
7274.313939,-440.279358,-344.566454,-10298.708470
7274.316487,1646.261949,2833.101958,-10183.852986
7274.319035,1359.123237,1493.121302,-9418.149754
7274.321583,-574.277424,-784.845813,-8154.739421
7274.324131,-1703.689691,-9475.577496,-12576.675586
7274.326679,1550.549045,3885.943902,-8709.874264
7274.329226,1071.984525,-1569.691626,-10968.698798
7274.331774,-229.710970,5513.063270,-8863.014910
7274.334322,1990.828403,6527.620053,-8154.739421
7274.336870,-1033.699363,-1627.119368,-11274.980091
7274.339418,-1914.258080,1627.119368,-10126.425243
7274.341966,4058.227130,8748.159426,-8135.596840
7274.344514,-1205.982590,-3196.810994,-10892.128475
7274.347062,-1359.123237,-1282.552914,-9111.868461
7274.349610,1091.127106,1818.545176,-9054.440718
7274.352158,1244.267752,-823.130974,-11274.980091
7274.354706,-535.992262,7006.184573,-9552.147819
7274.357254,593.420005,4843.072942,-8939.585234
7274.359802,1225.125171,-1818.545176,-9705.288466
7274.362350,-631.705166,593.420005,-8977.870395
7274.364898,1225.125171,669.990328,-10700.702667
7274.367446,210.568389,1454.836141,-11006.983960
7274.369993,1359.123237,191.425808,-9092.725880
7274.372541,-38.285162,3254.238736,-8193.024582
7274.375089,-76.570323,1225.125171,-10068.997501
7274.377637,765.703232,5187.639397,-10260.423309
7274.380185,19.142581,5723.631659,-10068.997501
7274.382733,3445.664544,-3426.521963,-10145.567824
7274.385281,-2660.818731,6297.909083,-7484.749093
7274.387829,191.425808,1129.412267,-9915.856854
7274.390382,4153.940034,-5666.203917,-11083.554283
7274.392936,76.570323,4728.217458,-10164.710405
7274.395489,650.847747,-1684.547110,-10547.562021
7274.398042,-918.843878,7752.745224,-6853.043926
7274.400595,3503.092286,-3158.525832,-10470.991698
7274.403148,-1971.685822,-3196.810994,-10834.700733
7274.405702,1091.127106,-2545.963246,-10700.702667
7274.408255,2507.678085,-2297.109696,-10432.706536
7274.410808,-2603.390989,4460.221326,-7714.460062
7274.413361,2852.244539,-3388.236802,-10088.140082
7274.415914,-708.275490,880.558717,-10547.562021
7274.418468,-133.998066,-1856.830338,-10758.130410
7274.421021,-401.994197,-2813.959378,-9896.714274
7274.423574,2335.394858,823.130974,-9265.009107
7274.426127,-823.130974,593.420005,-9418.149754
7274.428681,746.560651,-574.277424,-10451.849117
7274.431234,746.560651,765.703232,-10145.567824
7274.433787,574.277424,823.130974,-9552.147819
7274.436340,-19.142581,-516.849682,-9533.005238
7274.438893,708.275490,765.703232,-9571.290400
7274.441447,382.851616,-421.136778,-10490.134278
7274.444000,2852.244539,-842.273555,-9762.716208
7274.446553,-1435.693560,-2986.242605,-10030.712339
7274.449106,-669.990328,-2947.957443,-9571.290400
7274.451659,2086.541307,-2545.963246,-9781.858789
7274.454213,1741.974853,4613.361973,-10030.712339
7274.456766,-2584.248408,-4058.227130,-11255.837510
7274.459319,478.564520,1722.832272,-8786.444587
7274.461872,2909.672282,7006.184573,-7752.745224
7274.464426,-1359.123237,-497.707101,-9552.147819
7274.466979,-19.142581,3828.516160,-9647.860723
7274.469532,-76.570323,-3847.658741,-11236.694930
7274.472085,1167.697429,1378.265818,-10088.140082
7274.474638,-1512.263883,4077.369710,-8882.157491
7274.477192,2565.105827,7159.325219,-8231.309744
7274.479745,325.423874,4785.645200,-9552.147819
7274.482298,-1741.974853,-2737.389054,-11504.691061
7274.484851,3254.238736,57.427742,-9647.860723
7274.487404,76.570323,-2584.248408,-9533.005238
7274.489958,-823.130974,401.994197,-10432.706536
7274.492516,803.988394,6929.614250,-9226.723946
7274.495074,1780.260014,4728.217458,-10011.569758
7274.497632,-669.990328,229.710970,-9858.429112
7274.500189,1263.410333,401.994197,-8709.874264
7274.502747,1339.980656,-287.138712,-9954.142016
7274.505305,-631.705166,1646.261949,-10815.558152
7274.507863,1014.556782,1684.547110,-10509.276859
7274.510421,689.132909,2794.816797,-8403.592971
7274.512979,708.275490,612.562586,-9590.432981
7274.515537,133.998066,3790.230998,-10011.569758
7274.518095,-401.994197,6317.051664,-9820.143950
7274.520653,2871.387120,-1875.972918,-10738.987829
7274.523211,-1186.840010,-1052.841944,-9533.005238
7274.525769,-1971.685822,4058.227130,-9016.155557
7274.528327,1952.543242,-650.847747,-10088.140082
7274.530885,1684.547110,1722.832272,-10777.272990
7274.533443,19.142581,-1052.841944,-10758.130410
7274.536001,-2182.254211,6699.903280,-7408.178770
7274.538558,4096.512291,-3158.525832,-10011.569758
7274.541116,-1588.834206,-1454.836141,-9973.284597
7274.543674,1071.984525,-4000.799387,-11217.552349
7274.546232,2871.387120,-4153.940034,-11294.122672
7274.548790,-2297.109696,5819.344563,-7733.602643
7274.551348,1665.404530,842.273555,-9456.434915
7274.553906,1799.402595,1282.552914,-9934.999435
7274.556464,-382.851616,-861.416136,-10241.280728
7274.559022,-650.847747,-3866.801322,-10509.276859
7274.561580,1875.972918,1186.840010,-9475.577496
7274.564138,-459.421939,172.283227,-9456.434915
7274.566696,459.421939,497.707101,-10049.854920
7274.569254,1339.980656,-248.853550,-10126.425243
7274.571812,1186.840010,325.423874,-9934.999435
7274.574370,-593.420005,459.421939,-9781.858789
7274.576928,880.558717,-555.134843,-9877.571693
7274.579485,1665.404530,727.418070,-9877.571693
7274.582043,-1684.547110,-1895.115499,-9896.714274
7274.584601,2316.252277,-4211.367776,-10049.854920
7274.587159,-114.855485,-2794.816797,-9609.575562
7274.589717,1225.125171,440.279358,-10375.278794
7274.592275,-1071.984525,-2067.398726,-11198.409768
7274.594836,1971.685822,3866.801322,-8346.165229
7274.597397,2143.969050,7006.184573,-8020.741355
7274.599959,-1761.117434,-8250.452325,-11925.827838
7274.602520,1301.695494,3369.094221,-9322.436850
7274.605081,497.707101,-5493.920690,-11313.265253
7274.607642,-957.129040,5130.211654,-9188.438784
7274.610203,2220.539373,9839.286531,-7733.602643
7274.612764,1359.123237,1684.547110,-10241.280728
7274.615325,-2067.398726,-880.558717,-9954.142016
7274.617887,210.568389,-38.285162,-10853.843314
7274.620448,2450.250342,-995.414202,-9877.571693
7274.623009,-995.414202,-1148.554848,-9475.577496
7274.625570,421.136778,2718.246474,-9016.155557
7274.628131,1856.830338,-133.998066,-10604.989763
7274.630692,-1186.840010,5455.635528,-10049.854920
7274.633253,880.558717,3828.516160,-9399.007173
7274.635815,1033.699363,-1339.980656,-9667.003304
7274.638376,-1225.125171,1684.547110,-8499.305875
7274.640937,1110.269686,1071.984525,-10681.560086
7274.643498,76.570323,1263.410333,-10777.272990
7274.646059,-478.564520,3139.383251,-8556.733618
7274.648620,1091.127106,2603.390989,-8652.446522
7274.651181,497.707101,2775.674216,-10088.140082
7274.653743,-76.570323,4019.941968,-10222.138147
7274.656304,1244.267752,1761.117434,-9954.142016
7274.658865,1052.841944,229.710970,-9973.284597
7274.661426,-2488.535504,4651.647134,-8690.731683
7274.663987,-344.566454,4211.367776,-8901.300072
7274.666548,2603.390989,-2335.394858,-11619.546546
7274.669109,57.427742,-861.416136,-10719.845248
7274.671671,-1646.261949,4900.500685,-8346.165229
7274.674232,3617.947771,-2909.672282,-9801.001370
7274.676793,-1129.412267,2124.826469,-8422.735552
7274.679354,535.992262,-4957.928427,-11715.259450
7274.681915,2794.816797,-6738.188442,-11791.829773
7274.684476,-2277.967115,7771.887805,-7465.606512
7274.687037,2182.254211,-784.845813,-9628.718142
7274.689599,1761.117434,1148.554848,-9399.007173
7274.692160,210.568389,306.281293,-9743.573627
7274.694721,-1148.554848,-4555.934230,-10853.843314
7274.697285,1933.400661,-478.564520,-9628.718142
7274.699849,-248.853550,401.994197,-9877.571693
7274.702413,-612.562586,1052.841944,-9781.858789
7274.704977,1435.693560,1167.697429,-9379.864592
7274.707541,995.414202,153.140646,-9896.714274
7274.710105,-803.988394,382.851616,-9839.286531
7274.712669,1780.260014,1014.556782,-10183.852986
7274.715233,-210.568389,-899.701298,-9934.999435
7274.717797,1263.410333,-3790.230998,-9686.145885
7274.720361,-842.273555,-4421.936165,-10030.712339
7274.722925,-1033.699363,-2316.252277,-10241.280728
7274.725489,3311.666478,3617.947771,-10068.997501
7274.728053,1091.127106,708.275490,-10279.565890
7274.730617,-2392.822600,-516.849682,-9016.155557
7274.733181,2029.113565,574.277424,-9647.860723
7274.735745,1837.687757,-133.998066,-9896.714274
7274.738309,1454.836141,382.851616,-10604.989763
7274.740873,95.712904,3158.525832,-9801.001370
7274.743438,1761.117434,3771.088418,-8863.014910
7274.746002,-2105.683888,-1741.974853,-10566.704602
7274.748566,555.134843,4383.651003,-9399.007173
7274.751130,3617.947771,8805.587168,-8403.592971
7274.753694,-2947.957443,-2890.529701,-11217.552349
7274.756258,2354.537438,421.136778,-9571.290400
7274.758822,1722.832272,-937.986459,-8805.587168
7274.761386,-516.849682,-976.271621,-11160.124606
7274.763950,-267.996131,6183.053598,-9341.579430
7274.766514,1875.972918,4421.936165,-9533.005238
7274.769078,-995.414202,-421.136778,-10279.565890
7274.771642,421.136778,2258.824534,-8193.024582
7274.774206,3254.238736,-1454.836141,-10126.425243
7274.776770,-1569.691626,2488.535504,-10987.841379
7274.779334,1014.556782,2928.814862,-9839.286531
7274.781898,861.416136,2507.678085,-8824.729749
7274.784462,210.568389,3847.658741,-9073.583299
7274.787026,669.990328,2737.389054,-9973.284597
7274.789590,-19.142581,3215.953574,-10241.280728
7274.792154,1875.972918,-555.134843,-10470.991698
7274.794718,-2163.111630,3407.379382,-8920.442653
7274.797282,1665.404530,1091.127106,-8805.587168
7274.799821,2067.398726,689.132909,-10470.991698
7274.802359,-535.992262,-1627.119368,-11428.120738
7274.804898,-2258.824534,7618.747158,-7944.171032
7274.807436,2220.539373,-3541.377448,-9762.716208
7274.809975,363.709035,3598.805190,-7886.743290
7274.812513,-1014.556782,-3139.383251,-10930.413637
7274.815052,3617.947771,-8327.022648,-11983.255581
7274.817590,-2469.392923,7101.897477,-8327.022648
7274.820129,1741.974853,478.564520,-9609.575562
7274.822668,1799.402595,555.134843,-9628.718142
7274.825206,-1531.406464,267.996131,-9609.575562
7274.827745,2373.680019,-3694.518094,-10451.849117
7274.830283,976.271621,-1071.984525,-10432.706536
7274.832822,172.283227,2641.676150,-9647.860723
7274.835360,-459.421939,-669.990328,-10107.282662
7274.837899,1416.550979,995.414202,-9111.868461
7274.840437,478.564520,631.705166,-9724.431046
7274.842976,-325.423874,574.277424,-10107.282662
7274.845514,3349.951640,-937.986459,-10585.847182
7274.848053,-727.418070,-1416.550979,-9839.286531
7274.850591,-727.418070,-3464.807125,-9322.436850
7274.853130,1627.119368,-3847.658741,-9686.145885
7274.855668,2813.959378,4957.928427,-9513.862658
7274.858207,-1952.543242,-4651.647134,-12327.822035
7274.860746,842.273555,1875.972918,-8729.016845
7274.863284,2813.959378,7369.893608,-7121.040058
7274.865823,-1684.547110,-8882.157491,-11734.402030
7274.868361,957.129040,3790.230998,-9226.723946
7274.870900,1110.269686,-4575.076811,-11715.259450
7274.873438,-1091.127106,4977.071008,-9207.581365
7274.875977,2009.970984,10298.708470,-7350.751027
7274.878515,1378.265818,421.136778,-10298.708470
7274.881054,-1971.685822,516.849682,-10375.278794
7274.883592,1282.552914,2239.681954,-10777.272990
7274.886131,1684.547110,-1435.693560,-10222.138147
7274.888669,-1607.976787,-823.130974,-9265.009107
7274.891208,1493.121302,2258.824534,-8633.303941
7274.893746,1607.976787,-459.421939,-10815.558152
7274.896285,-631.705166,5130.211654,-10126.425243
7274.898824,631.705166,4173.082614,-9571.290400
7274.901368,2048.256146,-363.709035,-9131.011042
7274.903913,-842.273555,803.988394,-8920.442653
7274.906458,765.703232,1875.972918,-10509.276859
7274.909003,803.988394,2660.818731,-10566.704602
7274.911548,-133.998066,3713.660675,-8958.727814
7274.914093,803.988394,2679.961312,-8882.157491
7274.916638,-535.992262,2833.101958,-9456.434915
7274.919183,1378.265818,1531.406464,-10241.280728
7274.921728,861.416136,1818.545176,-10700.702667
7274.924273,-2947.957443,5455.635528,-9284.151688
7274.926818,899.701298,2507.678085,-8059.026517
7274.929363,2603.390989,-803.988394,-10413.563955
7274.931908,-555.134843,-1588.834206,-11255.837510
7274.934453,-2373.680019,6910.471669,-8575.876198
7274.936998,4077.369710,-3790.230998,-10777.272990
7274.939543,-1703.689691,-114.855485,-7523.034254
7274.942088,-1186.840010,-3005.385186,-10719.845248
7274.944633,3713.660675,-8212.167163,-11734.402030
7274.947178,-2316.252277,6910.471669,-8518.448456
7274.949723,1378.265818,631.705166,-9781.858789
7274.952268,1780.260014,421.136778,-9456.434915
7274.954813,-1263.410333,535.992262,-9322.436850
7274.957358,1895.115499,-4019.941968,-10528.419440
7274.959903,1359.123237,-2450.250342,-10681.560086
7274.962448,114.855485,2641.676150,-9934.999435
7274.964993,-1071.984525,1167.697429,-9533.005238
7274.967538,2182.254211,555.134843,-8920.442653
7274.970083,401.994197,-459.421939,-9647.860723
7274.972628,-344.566454,1761.117434,-10126.425243
7274.975173,1512.263883,-2201.396792,-11121.839445
7274.977718,1091.127106,-2431.107762,-9973.284597
7274.980263,-612.562586,-3694.518094,-9073.583299
7274.982808,-363.709035,-3905.086483,-9973.284597
7274.985352,2852.244539,5072.783912,-9705.288466
7274.987897,2335.394858,2316.252277,-10068.997501
7274.990442,-1359.123237,-1033.699363,-9877.571693
7274.992987,-325.423874,-1569.691626,-9839.286531
7274.995532,2756.531635,899.701298,-8690.731683
7274.998077,325.423874,2354.537438,-10241.280728
7275.000622,382.851616,-612.562586,-10892.128475
7275.003173,1684.547110,2201.396792,-10145.567824
7275.005724,-1971.685822,1244.267752,-9284.151688
7275.008274,2163.111630,6833.901346,-7733.602643
7275.010825,4096.512291,8039.883936,-8422.735552
7275.013376,-2756.531635,-2986.242605,-11983.255581
7275.015926,2258.824534,1875.972918,-9341.579430
7275.018477,957.129040,-2507.678085,-9245.866526
7275.021028,-784.845813,421.136778,-10164.710405
7275.023578,746.560651,4192.225195,-9322.436850
7275.026129,1473.978722,4632.504554,-10068.997501
7275.028680,-153.140646,1282.552914,-9858.429112
7275.031230,2105.683888,-1071.984525,-9303.294269
7275.033781,-803.988394,2163.111630,-8997.012976
7275.036332,-650.847747,2067.398726,-10796.415571
7275.038882,1301.695494,2718.246474,-9973.284597
7275.041433,574.277424,3924.229064,-9092.725880
7275.043984,-574.277424,2641.676150,-9418.149754
7275.046534,1818.545176,459.421939,-9590.432981
7275.049085,842.273555,3215.953574,-10202.995566
7275.051636,-2373.680019,4938.785846,-10164.710405
7275.054186,4039.084549,-3541.377448,-9303.294269
7275.056737,-1033.699363,6565.905214,-8250.452325
7275.059288,-306.281293,-2373.680019,-11026.126541
7275.061838,-2335.394858,7503.891674,-7944.171032
7275.064389,3924.229064,-3885.943902,-11332.407834
7275.066940,-1550.549045,-1550.549045,-9762.716208
7275.069490,708.275490,-3177.668413,-9724.431046
7275.072041,2029.113565,-2775.674216,-10796.415571
7275.074591,-2105.683888,4766.502619,-8824.729749
7275.077142,3349.951640,-2928.814862,-10624.132344
7275.079693,-535.992262,1282.552914,-10643.274925
7275.082243,95.712904,-899.701298,-9475.577496
7275.084794,2450.250342,-4287.938099,-10164.710405
7275.087345,976.271621,-842.273555,-10126.425243
7275.089895,-1416.550979,248.853550,-9954.142016
7275.092446,593.420005,2009.970984,-10222.138147
7275.094997,1263.410333,459.421939,-9667.003304
7275.097547,-287.138712,325.423874,-8709.874264
7275.100098,1722.832272,95.712904,-10011.569758
7275.102649,-344.566454,-1703.689691,-11064.411702
7275.105204,-287.138712,-2411.965181,-10336.993632
7275.107759,401.994197,-4115.654872,-9456.434915
7275.110315,-95.712904,-172.283227,-9073.583299
7275.112871,-76.570323,-708.275490,-11140.982026
7275.115426,2737.389054,3177.668413,-9667.003304
7275.117982,-229.710970,593.420005,-9934.999435
7275.120537,-1933.400661,-4402.793584,-10949.556218
7275.123093,2431.107762,2182.254211,-7848.458128
7275.125649,1435.693560,382.851616,-10107.282662
7275.128204,-38.285162,1378.265818,-10777.272990
7275.130760,1837.687757,8307.880067,-8461.020714
7275.133315,-995.414202,-2488.535504,-11083.554283
7275.135871,-1359.123237,1244.267752,-9265.009107
7275.138427,4153.940034,7867.600709,-7867.600709
7275.140982,-2182.254211,-2909.672282,-11925.827838
7275.143538,1531.406464,2603.390989,-9533.005238
7275.146094,765.703232,-1722.832272,-9111.868461
7275.148649,-229.710970,-593.420005,-10547.562021
7275.151205,-325.423874,4957.928427,-9054.440718
7275.153760,1607.976787,3522.234867,-10107.282662
7275.156316,-325.423874,-650.847747,-10700.702667
7275.158872,-401.994197,2029.113565,-8346.165229
7275.161427,1914.258080,1071.984525,-9743.573627
7275.163983,19.142581,1110.269686,-10796.415571
7275.166538,133.998066,4307.080680,-9399.007173
7275.169094,459.421939,3541.377448,-9379.864592
7275.171650,2890.529701,-823.130974,-10107.282662
7275.174205,-2928.814862,7580.461997,-8327.022648
7275.176761,1569.691626,995.414202,-10394.421374
7275.179316,4249.652938,-4804.787781,-10260.423309
7275.181872,-2718.246474,9418.149754,-7618.747158
7275.184428,38.285162,-3330.809059,-11294.122672
7275.186983,1397.408398,1684.547110,-9399.007173
7275.189539,-669.990328,-880.558717,-10509.276859
7275.192095,574.277424,-4594.219392,-10490.134278
7275.194650,1722.832272,4613.361973,-8116.454259
7275.197206,-1550.549045,363.709035,-10107.282662
7275.199761,3541.377448,-7618.747158,-11006.983960
7275.202317,1569.691626,-1627.119368,-10375.278794
7275.204873,-1301.695494,2163.111630,-10241.280728
7275.207432,899.701298,-440.279358,-9590.432981
7275.209991,306.281293,2431.107762,-8824.729749
7275.212550,248.853550,-3388.236802,-10260.423309
7275.215109,937.986459,-2354.537438,-10317.851051
7275.217669,344.566454,2928.814862,-9877.571693
7275.220228,-133.998066,708.275490,-10011.569758
7275.222787,1378.265818,650.847747,-9150.153622
7275.225346,1186.840010,-535.992262,-9571.290400
7275.227905,593.420005,-2335.394858,-10624.132344
7275.230465,401.994197,-2335.394858,-10566.704602
7275.233024,287.138712,-2775.674216,-9724.431046
7275.235583,-248.853550,-1914.258080,-9456.434915
7275.238142,803.988394,1033.699363,-10336.993632
7275.240701,2029.113565,1990.828403,-9590.432981
7275.243261,-669.990328,-803.988394,-10394.421374
7275.245820,-344.566454,-1665.404530,-10796.415571
7275.248379,689.132909,2852.244539,-7733.602643
7275.250938,2220.539373,-631.705166,-10432.706536
7275.253497,-306.281293,4996.213589,-9686.145885
7275.256057,2124.826469,5513.063270,-9245.866526
7275.258616,-2373.680019,-1933.400661,-11160.124606
7275.261175,306.281293,3388.236802,-8920.442653
7275.263734,3273.381317,6585.047795,-7848.458128
7275.266294,-2450.250342,-1799.402595,-11351.550414
7275.268853,2469.392923,1301.695494,-9781.858789
7275.271412,363.709035,-2297.109696,-8977.870395
7275.273971,-57.427742,-1435.693560,-10949.556218
7275.276530,-516.849682,4364.508422,-8920.442653
7275.279090,1971.685822,5627.918755,-9341.579430
7275.281649,-133.998066,-2009.970984,-10853.843314
7275.284208,823.130974,612.562586,-8863.014910
7275.286767,631.705166,3349.951640,-9322.436850
7275.289326,784.845813,-478.564520,-11332.407834
7275.291886,57.427742,5493.920690,-9016.155557
7275.294445,-631.705166,3637.090352,-8997.012976
7275.297004,708.275490,1703.689691,-9743.573627
7275.299563,1799.402595,2909.672282,-10068.997501
7275.302122,-2947.957443,5895.914886,-9781.858789
7275.304682,3637.090352,-3981.656806,-9877.571693
7275.307241,229.710970,5225.924558,-8480.163294
7275.309803,1244.267752,-2392.822600,-11389.835576
7275.312366,-631.705166,6240.481341,-8135.596840
7275.314929,2220.539373,-3751.945837,-11026.126541
7275.317491,-1378.265818,-4173.082614,-10777.272990
7275.320054,1397.408398,-4019.941968,-10049.854920
7275.322616,2373.680019,-2565.105827,-10643.274925
7275.325179,-2143.969050,4938.785846,-8824.729749
7275.327742,3369.094221,-3598.805190,-10719.845248
7275.330304,-746.560651,2029.113565,-10164.710405
7275.332867,287.138712,-1454.836141,-9820.143950
7275.335429,1531.406464,-823.130974,-9341.579430
7275.337992,650.847747,-823.130974,-10164.710405
7275.340555,-574.277424,-727.418070,-10011.569758
7275.343117,2048.256146,1799.402595,-10049.854920
7275.345680,1550.549045,593.420005,-9628.718142
7275.348242,210.568389,-401.994197,-9035.298138
7275.350805,363.709035,-1531.406464,-10030.712339
7275.353368,823.130974,-1416.550979,-10643.274925
7275.355930,669.990328,-3483.949706,-10202.995566
7275.358493,-555.134843,-2928.814862,-9667.003304
7275.361056,1627.119368,1703.689691,-9781.858789
7275.363618,1933.400661,1148.554848,-9705.288466
7275.366181,-1588.834206,-1282.552914,-10547.562021
7275.368743,478.564520,1033.699363,-10336.993632
7275.371306,2871.387120,-76.570323,-8805.587168
7275.373869,57.427742,1990.828403,-9360.722011
7275.376431,-995.414202,-2852.244539,-10681.560086
7275.378994,1397.408398,3254.238736,-10394.421374
7275.381556,-1952.543242,-1320.838075,-11121.839445
7275.384119,1244.267752,5206.781978,-8595.018779
7275.386682,2029.113565,5551.348432,-8059.026517
7275.389244,-1761.117434,-1799.402595,-11140.982026
7275.391807,2699.103893,842.273555,-10049.854920
7275.394369,-76.570323,-2239.681954,-10011.569758
7275.396932,-976.271621,2545.963246,-9571.290400
7275.399495,1741.974853,1856.830338,-9705.288466
7275.402057,574.277424,3962.514226,-9590.432981
7275.404620,114.855485,2392.822600,-9801.001370
7275.407182,1301.695494,-76.570323,-9877.571693
7275.409745,-153.140646,3177.668413,-9207.581365
7275.412310,497.707101,1531.406464,-10356.136213
7275.414875,210.568389,2431.107762,-9743.573627
7275.417440,708.275490,2813.959378,-9245.866526
7275.420005,-76.570323,4460.221326,-9360.722011
7275.422570,2584.248408,1186.840010,-10624.132344
7275.425135,-2794.816797,6336.194245,-9245.866526
7275.427700,2967.100024,-3215.953574,-9858.429112
7275.430265,2565.105827,-3177.668413,-10490.134278
7275.432830,-76.570323,-1435.693560,-10604.989763
7275.435395,-1741.974853,5857.629725,-8575.876198
7275.437960,3369.094221,-2947.957443,-10681.560086
7275.440525,-1416.550979,1225.125171,-9073.583299
7275.443090,1550.549045,-4670.789715,-10432.706536
7275.445655,1971.685822,-3426.521963,-10872.985894
7275.448220,-2143.969050,5761.916821,-8518.448456
7275.450785,3349.951640,-3445.664544,-10681.560086
7275.453350,612.562586,2182.254211,-9341.579430
7275.455915,-401.994197,-57.427742,-9724.431046
7275.458480,708.275490,-3254.238736,-10432.706536
7275.461045,1416.550979,593.420005,-9781.858789
7275.463610,-229.710970,-306.281293,-9954.142016
7275.466175,1110.269686,918.843878,-10298.708470
7275.468740,1091.127106,1148.554848,-9705.288466
7275.471305,-612.562586,-1435.693560,-9303.294269
7275.473870,765.703232,-650.847747,-9705.288466
7275.476435,1550.549045,-1301.695494,-10202.995566
7275.479000,-133.998066,-4996.213589,-10681.560086
7275.481565,2277.967115,3407.379382,-8595.018779
7275.484130,-880.558717,-4594.219392,-10853.843314
7275.486695,1627.119368,2679.961312,-9111.868461
7275.489260,2354.537438,6029.912952,-8595.018779
7275.491825,-2411.965181,-10317.851051,-12806.386555
7275.494390,784.845813,4498.506488,-7599.604578
7275.496955,2316.252277,-1722.832272,-10470.991698
7275.499520,-727.418070,5168.496816,-9303.294269
7275.502085,1550.549045,11351.550414,-8020.741355
7275.504650,1512.263883,957.129040,-10681.560086
7275.507215,-1607.976787,-1856.830338,-10011.569758
7275.509780,2526.820666,6451.049730,-8327.022648
7275.512345,-1378.265818,-2928.814862,-11274.980091
7275.514912,1186.840010,2239.681954,-9207.581365
7275.517479,1799.402595,669.990328,-8939.585234
7275.520046,-19.142581,-1607.976787,-11102.696864
7275.522614,-765.703232,4307.080680,-9054.440718
7275.525181,1244.267752,3369.094221,-9418.149754
7275.527748,306.281293,-803.988394,-10260.423309
7275.530315,-535.992262,3120.240670,-8729.016845
7275.532882,1607.976787,1684.547110,-10241.280728
7275.535449,-57.427742,2450.250342,-10222.138147
7275.538017,-995.414202,3445.664544,-8977.870395
7275.540584,2201.396792,1703.689691,-9628.718142
7275.543151,1129.412267,3962.514226,-10030.712339
7275.545718,-2048.256146,7293.323285,-9494.720077
7275.548285,2239.681954,-2297.109696,-9705.288466
7275.550852,574.277424,1761.117434,-9303.294269
7275.553419,1167.697429,-1665.404530,-10853.843314
7275.555987,-1359.123237,6431.907149,-7925.028451
7275.558554,2679.961312,-4785.645200,-11504.691061
7275.561121,-1244.267752,-2756.531635,-10528.419440
7275.563688,803.988394,-1244.267752,-9418.149754
7275.566255,-459.421939,1799.402595,-9762.716208
7275.568822,478.564520,-19.142581,-9801.001370
7275.571390,2316.252277,-2947.957443,-10470.991698
7275.573957,-497.707101,918.843878,-10490.134278
7275.576524,-57.427742,-842.273555,-9590.432981
7275.579091,1933.400661,-765.703232,-9571.290400
7275.581658,593.420005,-784.845813,-10317.851051
7275.584225,-574.277424,133.998066,-9628.718142
7275.586792,2622.533570,1033.699363,-10145.567824
7275.589360,325.423874,-918.843878,-10681.560086
7275.591927,-172.283227,-191.425808,-8901.300072
7275.594494,478.564520,-1186.840010,-9590.432981
7275.597063,631.705166,-3637.090352,-10911.271056
7275.599631,210.568389,-2258.824534,-9915.856854
7275.602200,2220.539373,3254.238736,-9131.011042
7275.604768,-1416.550979,-5072.783912,-10949.556218
7275.607337,344.566454,1186.840010,-8958.727814
7275.609905,3215.953574,8039.883936,-8212.167163
7275.612474,-1665.404530,-10011.569758,-12921.242040
7275.615043,708.275490,3235.096155,-8441.878133
7275.617611,1129.412267,-2852.244539,-10528.419440
7275.620180,172.283227,3751.945837,-9667.003304
7275.622748,1320.838075,10547.562021,-8250.452325
7275.625317,1875.972918,3522.234867,-9781.858789
7275.627885,-1416.550979,-1416.550979,-10260.423309
7275.630454,2526.820666,4345.365842,-9073.583299
7275.633023,-1052.841944,-2813.959378,-10892.128475
7275.635591,937.986459,1684.547110,-9245.866526
7275.638160,1684.547110,2182.254211,-8882.157491
7275.640728,-57.427742,-1148.554848,-11064.411702
7275.643297,-459.421939,6719.045861,-9092.725880
7275.645865,1588.834206,-918.843878,-9973.284597
7275.648434,133.998066,-19.142581,-9533.005238
7275.651003,-421.136778,3751.945837,-9150.153622
7275.653571,2411.965181,-918.843878,-11102.696864
7275.656140,-497.707101,4460.221326,-9379.864592
7275.658708,2220.539373,2124.826469,-8786.444587
7275.661277,-1416.550979,4517.649069,-9379.864592
7275.663845,1473.978722,3407.379382,-10356.136213
7275.666414,516.849682,3388.236802,-9858.429112
7275.668983,-2967.100024,7082.754896,-8001.598774
7275.671551,765.703232,-3139.383251,-10604.989763
7275.674120,2928.814862,-3675.375514,-10356.136213
7275.676688,-1454.836141,2411.965181,-9973.284597
7275.679257,1914.258080,-3062.812928,-10394.421374
7275.681825,478.564520,5608.776174,-7848.458128
7275.684394,-765.703232,-2373.680019,-10604.989763
7275.686963,3139.383251,-7982.456194,-11255.837510
7275.689531,-3005.385186,6585.047795,-8116.454259
7275.692100,363.709035,38.285162,-10700.702667
7275.694668,2009.970984,-76.570323,-9609.575562
7275.697237,-248.853550,3215.953574,-8709.874264
7275.699806,76.570323,-3828.516160,-10451.849117
7275.702376,1186.840010,191.425808,-9801.001370
7275.704946,-229.710970,248.853550,-10049.854920
7275.707515,210.568389,976.271621,-10183.852986
7275.710085,1665.404530,-248.853550,-9762.716208
7275.712654,-76.570323,-899.701298,-9322.436850
7275.715224,421.136778,-2029.113565,-9724.431046
7275.717793,1091.127106,-2565.105827,-10317.851051
7275.720363,2009.970984,2105.683888,-9609.575562
7275.722933,-1627.119368,-5474.778109,-11255.837510
7275.725502,2258.824534,1933.400661,-8671.589102
7275.728072,1588.834206,5245.067139,-8250.452325
7275.730641,-2526.820666,-8250.452325,-12748.958813
7275.733211,210.568389,4211.367776,-8231.309744
7275.735781,2737.389054,-95.712904,-10222.138147
7275.738350,19.142581,3177.668413,-9724.431046
7275.740920,1837.687757,10930.413637,-7503.891674
7275.743489,421.136778,-669.990328,-11236.694930
7275.746059,-1990.828403,-689.132909,-10356.136213
7275.748628,2316.252277,6585.047795,-8346.165229
7275.751198,-1531.406464,-1780.260014,-10872.985894
7275.753768,1588.834206,2469.392923,-8939.585234
7275.756337,842.273555,-153.140646,-9418.149754
7275.758907,-287.138712,-746.560651,-11006.983960
7275.761476,-114.855485,3407.379382,-9456.434915
7275.764046,1550.549045,4019.941968,-9073.583299
7275.766616,593.420005,-1435.693560,-10222.138147
7275.769185,-516.849682,3120.240670,-9073.583299
7275.771755,1359.123237,2354.537438,-9973.284597
7275.774324,-421.136778,1129.412267,-10356.136213
7275.776894,2143.969050,2373.680019,-9016.155557
7275.779464,516.849682,6221.338760,-9073.583299
7275.782033,-1627.119368,4957.928427,-10222.138147
7275.784603,3598.805190,-1282.552914,-9858.429112
7275.787172,-2277.967115,7944.171032,-7905.885870
7275.789742,76.570323,-5034.498750,-11485.548480
7275.792311,1703.689691,-1014.556782,-9513.862658
7275.794881,38.285162,-1052.841944,-10643.274925
7275.797451,382.851616,-4211.367776,-10451.849117
7275.800020,1799.402595,3388.236802,-8709.874264
7275.802591,-803.988394,3617.947771,-9552.147819
7275.805161,3330.809059,-5647.061336,-10490.134278
7275.807732,-708.275490,899.701298,-9533.005238
7275.810303,-516.849682,-267.996131,-10738.987829
7275.812873,1416.550979,-344.566454,-9781.858789
7275.815444,325.423874,3311.666478,-8882.157491
7275.818015,-344.566454,-2794.816797,-10317.851051
7275.820585,1033.699363,-976.271621,-9877.571693
7275.823156,2029.113565,1799.402595,-9705.288466
7275.825726,-382.851616,-1397.408398,-11006.983960
7275.828297,478.564520,421.136778,-9265.009107
7275.830868,1205.982590,-2124.826469,-9456.434915
7275.833438,19.142581,-3790.230998,-10719.845248
7275.836009,-631.705166,-2871.387120,-10107.282662
7275.838579,2699.103893,2239.681954,-9571.290400
7275.841150,765.703232,-1741.974853,-10279.565890
7275.843721,-3101.098090,-2105.683888,-9801.001370
7275.846291,114.855485,-1148.554848,-11006.983960
7275.848862,2775.674216,2488.535504,-9073.583299
7275.851433,555.134843,3196.810994,-9494.720077
7275.854003,-995.414202,-3043.670347,-10872.985894
7275.856574,1397.408398,1971.685822,-9992.427178
7275.859144,-1091.127106,3541.377448,-9284.151688
7275.861715,1799.402595,6929.614250,-8537.591037
7275.864286,-401.994197,1569.691626,-9762.716208
7275.866856,1914.258080,2009.970984,-9839.286531
7275.869427,-1588.834206,-133.998066,-10011.569758
7275.871997,-478.564520,-1512.263883,-9743.573627
7275.874568,421.136778,2277.967115,-9456.434915
7275.877139,1244.267752,689.132909,-10413.563955
7275.879709,38.285162,5072.783912,-9322.436850
7275.882280,421.136778,-823.130974,-9628.718142
7275.884851,1033.699363,1225.125171,-9494.720077
7275.887421,-669.990328,2335.394858,-9533.005238
7275.889992,421.136778,2220.539373,-10490.134278
7275.892562,2718.246474,401.994197,-9877.571693
7275.895133,-1703.689691,6546.762634,-8843.872330
7275.897704,-459.421939,3905.086483,-10317.851051
7275.900274,2526.820666,1110.269686,-9647.860723
7275.902845,-2086.541307,6929.614250,-8384.450390
7275.905417,2009.970984,-5149.354235,-11313.265253
7275.907988,1320.838075,-3790.230998,-10145.567824
7275.910560,-1052.841944,5781.059402,-8671.589102
7275.913132,3407.379382,-5091.926493,-10968.698798
7275.915703,-1205.982590,4689.932296,-8231.309744
7275.918275,-1129.412267,248.853550,-10490.134278
7275.920847,3694.518094,-8709.874264,-11179.267187
7275.923418,-3445.664544,5934.200048,-8250.452325
7275.925990,2009.970984,-1914.258080,-10451.849117
7275.928562,1071.984525,306.281293,-9705.288466
7275.931134,-957.129040,2622.533570,-9131.011042
7275.933705,1225.125171,-3924.229064,-10585.847182
7275.936277,861.416136,1895.115499,-9456.434915
7275.938849,-421.136778,-631.705166,-10030.712339
7275.941420,1205.982590,689.132909,-10202.995566
7275.943992,1129.412267,803.988394,-9609.575562
7275.946564,727.418070,-1990.828403,-9801.001370
7275.949135,210.568389,-3885.943902,-10030.712339
7275.951707,-708.275490,-1473.978722,-9954.142016
7275.954279,2029.113565,382.851616,-10317.851051
7275.956851,1914.258080,-555.134843,-9877.571693
7275.959422,-2469.392923,-2526.820666,-10202.995566
7275.961994,2507.678085,4268.795518,-9016.155557
7275.964566,1607.976787,-1225.125171,-9896.714274
7275.967137,1722.832272,3426.521963,-9705.288466
7275.969709,-1148.554848,-1148.554848,-10796.415571
7275.972281,1741.974853,2182.254211,-9820.143950
7275.974852,-1416.550979,1052.841944,-9992.427178
7275.977424,1531.406464,6833.901346,-8250.452325
7275.979996,95.712904,2641.676150,-9475.577496
7275.982568,1952.543242,1722.832272,-10202.995566
7275.985139,-957.129040,-1071.984525,-10470.991698
7275.987711,-38.285162,-574.277424,-9647.860723
7275.990283,631.705166,880.558717,-9686.145885
7275.992854,708.275490,3388.236802,-9801.001370
7275.995426,669.990328,1722.832272,-9973.284597
7275.997998,593.420005,1320.838075,-9475.577496
7276.000570,306.281293,1244.267752,-9667.003304
7276.003141,382.851616,995.414202,-9399.007173
7276.005713,-899.701298,3311.666478,-9877.571693
7276.008285,2622.533570,1339.980656,-9954.142016
7276.010857,267.996131,5206.781978,-9379.864592
7276.013429,-1914.258080,6987.041992,-9399.007173
7276.016002,2909.672282,-3043.670347,-9839.286531
7276.018574,-1588.834206,7599.604578,-7771.887805
7276.021146,1646.261949,-2277.967115,-11504.691061
7276.023718,-382.851616,-267.996131,-9437.292334
7276.026290,344.566454,-3407.379382,-10700.702667
7276.028862,-38.285162,-5340.780043,-10528.419440
7276.031435,1378.265818,5111.069074,-8154.739421
7276.034007,-880.558717,3388.236802,-9858.429112
7276.036579,4115.654872,-7752.745224,-11274.980091
7276.039151,382.851616,-957.129040,-9762.716208
7276.041723,-1435.693560,-267.996131,-10566.704602
7276.044295,1186.840010,-1569.691626,-9877.571693
7276.046868,1225.125171,3101.098090,-8805.587168
7276.049440,-153.140646,-2392.822600,-10681.560086
7276.052012,191.425808,631.705166,-9437.292334
7276.054584,1684.547110,1378.265818,-9801.001370
7276.057156,-650.847747,-1512.263883,-10585.847182
7276.059728,937.986459,1473.978722,-8977.870395
7276.062300,1186.840010,-3905.086483,-10279.565890
7276.064873,-363.709035,-4536.791650,-10834.700733
7276.067445,1990.828403,4632.504554,-8575.876198
7276.070017,-1167.697429,-5513.063270,-11198.409768
7276.072589,-421.136778,-1895.115499,-10088.140082
7276.075161,2909.672282,8365.307810,-7657.032320
7276.077733,-1359.123237,-8977.870395,-12538.390424
7276.080306,325.423874,4441.078746,-8595.018779
7276.082878,803.988394,-803.988394,-10298.708470
7276.085450,114.855485,5493.920690,-9054.440718
7276.088022,1244.267752,9609.575562,-8173.882002
7276.090594,2220.539373,2067.398726,-9934.999435
7276.093166,-1339.980656,-2086.541307,-10394.421374
7276.095739,1473.978722,4785.645200,-9073.583299
7276.098311,-306.281293,-995.414202,-11006.983960
7276.100883,1378.265818,2986.242605,-8977.870395
7276.103455,708.275490,1071.984525,-8920.442653
7276.106027,287.138712,-1091.127106,-10777.272990
7276.108599,172.283227,5187.639397,-8958.727814
7276.111173,2335.394858,-746.560651,-10145.567824
7276.113745,-708.275490,1397.408398,-9418.149754
7276.116318,38.285162,2699.103893,-9245.866526
7276.118890,325.423874,861.416136,-10356.136213
7276.121463,1627.119368,2316.252277,-9552.147819
7276.124035,957.129040,6317.051664,-9073.583299
7276.126608,-1454.836141,5111.069074,-10145.567824
7276.129180,3062.812928,114.855485,-9686.145885
7276.131753,-1990.828403,7599.604578,-7752.745224
7276.134325,1550.549045,-3426.521963,-11485.548480
7276.136898,-229.710970,-133.998066,-9513.862658
7276.139470,803.988394,-3541.377448,-10949.556218
7276.142043,-267.996131,-4115.654872,-10279.565890
7276.144615,1378.265818,5493.920690,-7829.315547
7276.147188,-765.703232,1473.978722,-10222.138147
7276.149760,3254.238736,-7886.743290,-11408.978157
7276.152333,-2756.531635,4498.506488,-8633.303941
7276.154905,1875.972918,-1473.978722,-10241.280728
7276.157478,1416.550979,-631.705166,-9667.003304
7276.160050,535.992262,3120.240670,-8786.444587
7276.162623,-57.427742,-3503.092286,-10719.845248
7276.165195,516.849682,248.853550,-9934.999435
7276.167768,555.134843,1167.697429,-9762.716208
7276.170340,-440.279358,-708.275490,-9934.999435
7276.172913,1550.549045,497.707101,-9609.575562
7276.175485,-57.427742,-2163.111630,-9915.856854
7276.178058,-440.279358,-5015.356170,-10356.136213
7276.180630,2469.392923,4039.084549,-9054.440718
7276.183203,1741.974853,-248.853550,-9781.858789
7276.185775,-2718.246474,-3713.660675,-10528.419440
7276.188348,2392.822600,6604.190376,-8595.018779
7276.190920,497.707101,-3732.803256,-10547.562021
7276.193493,880.558717,3024.527766,-9667.003304
7276.196065,-1550.549045,-2316.252277,-10796.415571
7276.198637,1550.549045,2603.390989,-9954.142016
7276.201210,-976.271621,3694.518094,-9552.147819
7276.203782,1741.974853,6049.055533,-8384.450390
7276.206355,-421.136778,650.847747,-9781.858789
7276.208927,1301.695494,2297.109696,-10068.997501
7276.211500,-937.986459,-957.129040,-10968.698798
7276.214050,1799.402595,1454.836141,-9265.009107
7276.216601,957.129040,880.558717,-9265.009107
7276.219151,267.996131,2354.537438,-10126.425243
7276.221701,478.564520,3694.518094,-9322.436850
7276.224252,1761.117434,-899.701298,-9934.999435
7276.226802,-459.421939,3330.809059,-9686.145885
7276.229353,593.420005,344.566454,-9533.005238
7276.231903,2373.680019,153.140646,-9915.856854
7276.234453,-2967.100024,7810.172966,-9016.155557
7276.237004,2411.965181,2679.961312,-10356.136213
7276.239554,-574.277424,5627.918755,-9781.858789
7276.242104,-555.134843,4211.367776,-8537.591037
7276.244655,1684.547110,-3598.805190,-10547.562021
7276.247205,1205.982590,-3043.670347,-10566.704602
7276.249755,-1971.685822,6393.621987,-8499.305875
7276.252306,2775.674216,-4766.502619,-10834.700733
7276.254856,-516.849682,248.853550,-9265.009107
7276.257407,823.130974,-4345.365842,-10643.274925
7276.259957,363.709035,401.994197,-10356.136213
7276.262507,0.000000,3579.662610,-8997.012976
7276.265058,3005.385186,-3464.807125,-10356.136213
7276.267608,76.570323,1627.119368,-9475.577496
7276.270158,38.285162,-784.845813,-9781.858789
7276.272709,1167.697429,-1225.125171,-10068.997501
7276.275259,880.558717,-1129.412267,-10394.421374
7276.277809,-880.558717,2507.678085,-9360.722011
7276.280360,880.558717,-95.712904,-10375.278794
7276.282910,976.271621,-1167.697429,-9781.858789
7276.285461,401.994197,-1722.832272,-9494.720077
7276.288011,-995.414202,-2143.969050,-10260.423309
7276.290561,2718.246474,2316.252277,-9303.294269
7276.293112,-191.425808,-4383.651003,-10585.847182
7276.295662,-1033.699363,-3254.238736,-10356.136213
7276.298212,2297.109696,8327.022648,-7925.028451
7276.300763,-880.558717,-6738.188442,-11868.400096
7276.303313,631.705166,3215.953574,-9418.149754
7276.305863,172.283227,-1665.404530,-10451.849117
7276.308414,976.271621,6202.196179,-8690.731683
7276.310964,1205.982590,9475.577496,-7982.456194
7276.313515,1301.695494,3732.803256,-9379.864592
7276.316068,-650.847747,-2239.681954,-10394.421374
7276.318622,535.992262,3905.086483,-9399.007173
7276.321176,-421.136778,-440.279358,-10968.698798
7276.323729,1473.978722,2813.959378,-9188.438784
7276.326283,210.568389,2239.681954,-8843.872330
7276.328837,631.705166,-2105.683888,-10758.130410
7276.331390,-287.138712,4134.797453,-9265.009107
7276.333944,1359.123237,57.427742,-10394.421374
7276.336498,-325.423874,1722.832272,-9533.005238
7276.339051,-574.277424,2871.387120,-9379.864592
7276.341605,3503.092286,133.998066,-10049.854920
7276.344159,-2450.250342,5704.489078,-9073.583299
7276.346712,957.129040,4766.502619,-10145.567824
7276.349266,382.851616,5034.498750,-9513.862658
7276.351820,995.414202,382.851616,-9341.579430
7276.354373,593.420005,1416.550979,-9571.290400
7276.356927,1722.832272,-1914.258080,-10509.276859
7276.359480,-1454.836141,6183.053598,-8824.729749
7276.362034,2890.529701,-5551.348432,-10987.841379
7276.364588,-1339.980656,1856.830338,-8748.159426
7276.367141,1225.125171,-3732.803256,-10547.562021
7276.369695,650.847747,-1837.687757,-10815.558152
7276.372249,-535.992262,4096.512291,-8633.303941
7276.374802,2986.242605,-2986.242605,-10164.710405
7276.377356,-593.420005,210.568389,-10432.706536
7276.379910,-133.998066,-899.701298,-9475.577496
7276.382463,631.705166,-2947.957443,-10432.706536
7276.385017,918.843878,574.277424,-10145.567824
7276.387571,-555.134843,746.560651,-9686.145885
7276.390124,1320.838075,-133.998066,-10030.712339
7276.392678,248.853550,-535.992262,-9877.571693
7276.395232,267.996131,-2354.537438,-9762.716208
7276.397785,-440.279358,-2909.672282,-10011.569758
7276.400339,2411.965181,1129.412267,-9762.716208
7276.402893,593.420005,-2488.535504,-10145.567824
7276.405446,-2163.111630,-3522.234867,-10375.278794
7276.408000,880.558717,1952.543242,-10241.280728
7276.410554,1818.545176,1397.408398,-8997.012976
7276.413107,689.132909,3579.662610,-9513.862658
7276.415661,-1914.258080,-3656.232933,-11160.124606
7276.418218,1301.695494,3579.662610,-9628.718142
7276.420774,172.283227,6240.481341,-9111.868461
7276.423331,1665.404530,4555.934230,-8958.727814
7276.425888,-38.285162,-1225.125171,-9934.999435
7276.428445,459.421939,2871.387120,-9724.431046
7276.431001,-1225.125171,-287.138712,-11026.126541
7276.433558,1952.543242,1225.125171,-9399.007173
7276.436115,-248.853550,1033.699363,-9016.155557
7276.438672,76.570323,-57.427742,-10585.847182
7276.441228,401.994197,4441.078746,-8805.587168
7276.443785,2507.678085,-937.986459,-10413.563955
7276.446342,-1741.974853,2737.389054,-9820.143950
7276.448899,325.423874,1378.265818,-9035.298138
7276.451455,1875.972918,574.277424,-9992.427178
7276.454012,612.562586,6221.338760,-10164.710405
7276.456569,-1875.972918,8595.018779,-9092.725880
7276.459125,2967.100024,-1933.400661,-10298.708470
7276.461682,-1875.972918,8269.594906,-7293.323285
7276.464239,823.130974,-3407.379382,-11121.839445
7276.466796,995.414202,-2488.535504,-10279.565890
7276.469352,95.712904,-2488.535504,-10949.556218
7276.471909,803.988394,-3962.514226,-10202.995566
7276.474466,1205.982590,5876.772306,-7599.604578
7276.477023,-669.990328,95.712904,-10490.134278
7276.479579,4115.654872,-4881.358104,-10681.560086
7276.482136,-2239.681954,1837.687757,-9322.436850
7276.484693,306.281293,-2411.965181,-10987.841379
7276.487250,2029.113565,-1129.412267,-9437.292334
7276.489806,133.998066,3292.523898,-8920.442653
7276.492363,669.990328,-4651.647134,-10911.271056
7276.494920,133.998066,3254.238736,-9303.294269
7276.497476,765.703232,669.990328,-10202.995566
7276.500033,382.851616,-2603.390989,-10126.425243
7276.502590,325.423874,-535.992262,-9169.296203
7276.505147,-382.851616,-2297.109696,-10241.280728
7276.507703,2316.252277,-1435.693560,-10126.425243
7276.510260,-1110.269686,-2143.969050,-10068.997501
7276.512817,-440.279358,-3771.088418,-10336.993632
7276.515374,2890.529701,7350.751027,-7982.456194
7276.517930,-1282.552914,-6585.047795,-11791.829773
7276.520490,114.855485,2699.103893,-9284.151688
7276.523050,880.558717,1244.267752,-9934.999435
7276.525609,1167.697429,5225.924558,-9054.440718
7276.528169,1722.832272,8997.012976,-8346.165229
7276.530729,1282.552914,1971.685822,-9801.001370
7276.533288,-765.703232,-2603.390989,-10394.421374
7276.535848,-267.996131,3407.379382,-9360.722011
7276.538408,1416.550979,1071.984525,-10700.702667
7276.540967,861.416136,2699.103893,-9226.723946
7276.543527,-918.843878,3062.812928,-8767.302006
7276.546087,1493.121302,-1359.123237,-10222.138147
7276.548646,248.853550,2182.254211,-10049.854920
7276.551206,612.562586,746.560651,-10222.138147
7276.553765,-803.988394,1761.117434,-9552.147819
7276.556325,995.414202,1473.978722,-9437.292334
7276.558885,-650.847747,2660.818731,-9647.860723
7276.561444,1971.685822,4268.795518,-9533.005238
7276.564004,-1129.412267,7503.891674,-9647.860723
7276.566564,3139.383251,363.709035,-10202.995566
7276.569123,-2163.111630,7006.184573,-7657.032320
7276.571683,861.416136,-3215.953574,-10815.558152
7276.574243,-401.994197,-401.994197,-9858.429112
7276.576802,344.566454,-4211.367776,-11332.407834
7276.579362,401.994197,-4249.652938,-10298.708470
7276.581922,1129.412267,4153.940034,-8020.741355
7276.584481,-555.134843,1665.404530,-10088.140082
7276.587041,3292.523898,-6795.616184,-11064.411702
7276.589601,-3292.523898,3885.943902,-8843.872330
7276.592160,2029.113565,-2565.105827,-10758.130410
7276.594720,746.560651,899.701298,-9322.436850
7276.597280,76.570323,2182.254211,-8939.585234
7276.599839,401.994197,-861.416136,-10183.852986
7276.602399,669.990328,612.562586,-9877.571693
7276.604959,1359.123237,172.283227,-10030.712339
7276.607518,-574.277424,-1512.263883,-10451.849117
7276.610078,842.273555,-1129.412267,-9303.294269
7276.612638,-210.568389,-1397.408398,-9915.856854
7276.615197,-344.566454,-3885.943902,-11294.122672
7276.617757,3292.523898,708.275490,-9226.723946
7276.620316,-1359.123237,-3101.098090,-10260.423309
7276.622878,1244.267752,1895.115499,-10375.278794
7276.625440,1607.976787,1205.982590,-8977.870395
7276.628002,210.568389,3885.943902,-9245.866526
7276.630564,-1722.832272,-4460.221326,-11389.835576
7276.633126,631.705166,4345.365842,-9322.436850
7276.635688,-937.986459,382.851616,-10356.136213
7276.638250,1416.550979,5436.492947,-8327.022648
7276.640812,287.138712,2009.970984,-8997.012976
7276.643374,229.710970,2545.963246,-10088.140082
7276.645936,-669.990328,-478.564520,-11313.265253
7276.648498,1244.267752,1607.976787,-9571.290400
7276.651060,-593.420005,2775.674216,-8614.161360
7276.653622,1186.840010,-1971.685822,-10643.274925
7276.656184,95.712904,4498.506488,-9265.009107
7276.658746,1186.840010,593.420005,-10260.423309
7276.661308,-612.562586,267.996131,-10030.712339
7276.663870,1933.400661,3483.949706,-8499.305875
7276.666432,803.988394,4077.369710,-9781.858789
7276.668994,-957.129040,5130.211654,-10126.425243
7276.671556,248.853550,5934.200048,-9303.294269
7276.674118,1282.552914,880.558717,-9743.573627
7276.676679,765.703232,727.418070,-9533.005238
7276.679241,861.416136,-1933.400661,-9839.286531
7276.681803,-1014.556782,3962.514226,-9686.145885
7276.684365,2431.107762,-3885.943902,-10758.130410
7276.686927,-440.279358,2622.533570,-8327.022648
7276.689489,842.273555,-4900.500685,-11006.983960
7276.692051,95.712904,-2277.967115,-10681.560086
7276.694613,172.283227,4230.510357,-8575.876198
7276.697175,2794.816797,-1990.828403,-10088.140082
7276.699737,-1473.978722,459.421939,-10528.419440
7276.702299,421.136778,-2182.254211,-9934.999435
7276.704861,765.703232,-3809.373579,-10336.993632
7276.707423,325.423874,2163.111630,-9743.573627
7276.709985,38.285162,1703.689691,-9858.429112
7276.712547,899.701298,-2143.969050,-10451.849117
7276.715109,401.994197,555.134843,-8997.012976
7276.717671,-229.710970,-4441.078746,-10011.569758
7276.720233,2679.961312,-153.140646,-10126.425243
7276.722795,-1397.408398,-2603.390989,-10126.425243
7276.725358,248.853550,-3330.809059,-10088.140082
7276.727922,2852.244539,6795.616184,-8805.587168
7276.730486,-210.568389,-3158.525832,-10470.991698
7276.733050,287.138712,2354.537438,-9762.716208
7276.735613,-593.420005,-1895.115499,-10432.706536
7276.738177,1397.408398,5513.063270,-9131.011042
7276.740741,1397.408398,10662.417506,-7810.172966
7276.743304,937.986459,-957.129040,-10566.704602
7276.745868,-1052.841944,-3292.523898,-10490.134278
7276.748432,516.849682,4019.941968,-8843.872330
7276.750996,3005.385186,1818.545176,-10758.130410
7276.753559,918.843878,2737.389054,-9322.436850
7276.756123,-1148.554848,2392.822600,-8633.303941
7276.758687,1378.265818,401.994197,-9896.714274
7276.761250,363.709035,1186.840010,-9915.856854
7276.763814,497.707101,459.421939,-10317.851051
7276.766378,-842.273555,1378.265818,-9820.143950
7276.768942,3349.951640,2163.111630,-9016.155557
7276.771505,-1550.549045,4077.369710,-9131.011042
7276.774069,-114.855485,4900.500685,-9934.999435
7276.776633,842.273555,5359.922624,-9590.432981
7276.779197,803.988394,2220.539373,-9456.434915
7276.781760,1014.556782,-803.988394,-10107.282662
7276.784324,669.990328,-2967.100024,-9762.716208
7276.786888,-1301.695494,5895.914886,-8537.591037
7276.789451,2067.398726,-4977.071008,-11542.976222
7276.792015,-650.847747,-2124.826469,-9877.571693
7276.794579,516.849682,-3330.809059,-10011.569758
7276.797143,-1167.697429,1550.549045,-10030.712339
7276.799706,2947.957443,593.420005,-9303.294269
7276.802270,3024.527766,-1569.691626,-10011.569758
7276.804834,-1110.269686,1627.119368,-10241.280728
7276.807378,459.421939,-1837.687757,-9896.714274
7276.809922,1091.127106,612.562586,-9360.722011
7276.812467,957.129040,-1895.115499,-10796.415571
7276.815011,-306.281293,2392.822600,-9188.438784
7276.817555,1225.125171,-306.281293,-10356.136213
7276.820100,497.707101,-2947.957443,-10298.708470
7276.822644,-401.994197,-1875.972918,-9226.723946
7276.825188,267.996131,-2584.248408,-10662.417506
7276.827733,2794.816797,-918.843878,-9743.573627
7276.830277,-1914.258080,-3771.088418,-10356.136213
7276.832821,2009.970984,4632.504554,-9667.003304
7276.835366,593.420005,-2277.967115,-10011.569758
7276.837910,382.851616,4230.510357,-9054.440718
7276.840454,-1071.984525,-3388.236802,-11045.269122
7276.842999,1244.267752,5053.641331,-9494.720077
7276.845543,1818.545176,10432.706536,-7886.743290
7276.848087,1550.549045,5187.639397,-8614.161360
7276.850632,-497.707101,-842.273555,-9858.429112
7276.853176,-708.275490,2239.681954,-9686.145885
7276.855720,1378.265818,-631.705166,-11351.550414
7276.858265,267.996131,3101.098090,-9590.432981
7276.860809,-1454.836141,2928.814862,-8518.448456
7276.863353,1952.543242,-899.701298,-9954.142016
7276.865897,-191.425808,1799.402595,-10049.854920
7276.868442,-153.140646,1473.978722,-10222.138147
7276.870986,1282.552914,287.138712,-9954.142016
7276.873530,-937.986459,2488.535504,-9111.868461
7276.876075,1607.976787,4785.645200,-9513.862658
7276.878619,-1110.269686,7178.467800,-9513.862658
7276.881163,2660.818731,842.273555,-10662.417506
7276.883708,-2086.541307,7925.028451,-7886.743290
7276.886252,1531.406464,-3617.947771,-10796.415571
7276.888796,1473.978722,-4498.506488,-10030.712339
7276.891341,-727.418070,1933.400661,-9743.573627
7276.893885,2660.818731,-3177.668413,-10892.128475
7276.896429,1244.267752,5819.344563,-7657.032320
7276.898974,-267.996131,861.416136,-10202.995566
7276.901518,2411.965181,-7178.467800,-11121.839445
7276.904062,-2852.244539,3809.373579,-8671.589102
7276.906607,2775.674216,-2909.672282,-10834.700733
7276.909155,-287.138712,2105.683888,-9456.434915
7276.911704,612.562586,1799.402595,-9245.866526
7276.914253,1167.697429,-1971.685822,-9839.286531
7276.916802,535.992262,-727.418070,-10336.993632
7276.919350,57.427742,1588.834206,-9934.999435
7276.921899,516.849682,-1799.402595,-9973.284597
7276.924448,976.271621,-3847.658741,-10145.567824
7276.926997,1818.545176,2928.814862,-8805.587168
7276.929545,-1684.547110,-7140.182638,-11026.126541
7276.932094,1339.980656,-1971.685822,-10049.854920
7276.934643,2354.537438,3656.232933,-8748.159426
7276.937191,-2124.826469,-8078.169098,-12806.386555
7276.939740,-880.558717,7197.610381,-7389.036189
7276.942289,3905.086483,2947.957443,-9265.009107
7276.944838,1914.258080,4364.508422,-9667.003304
7276.947386,-325.423874,9552.147819,-8097.311678
7276.949935,-497.707101,-4689.932296,-11715.259450
7276.952484,-842.273555,-574.277424,-9743.573627
7276.955033,1378.265818,4689.932296,-8059.026517
7276.957581,1531.406464,3617.947771,-10088.140082
7276.960130,-1741.974853,3617.947771,-10241.280728
7276.962679,2124.826469,76.570323,-9724.431046
7276.965228,229.710970,1186.840010,-9188.438784
7276.967776,-574.277424,574.277424,-9992.427178
7276.970325,899.701298,593.420005,-10490.134278
7276.972874,478.564520,1473.978722,-10030.712339
7276.975423,-842.273555,3177.668413,-9092.725880
7276.977971,1684.547110,2775.674216,-9131.011042
7276.980520,-631.705166,6010.770371,-9667.003304
7276.983069,172.283227,4938.785846,-9954.142016
7276.985618,1014.556782,3292.523898,-9533.005238
7276.988166,1550.549045,-19.142581,-10164.710405
7276.990715,1014.556782,-4709.074877,-10107.282662
7276.993264,-689.132909,2603.390989,-9341.579430
7276.995812,2890.529701,-3043.670347,-10796.415571
7276.998361,-535.992262,2526.820666,-8652.446522
7277.000910,1033.699363,-3866.801322,-11006.983960
7277.003459,-210.568389,-3828.516160,-10834.700733
7277.006007,248.853550,3177.668413,-8461.020714
7277.008556,2641.676150,-478.564520,-9628.718142
7277.011109,-1627.119368,1550.549045,-10528.419440
7277.013662,76.570323,1148.554848,-9322.436850
7277.016214,1186.840010,-4000.799387,-10183.852986
7277.018767,-191.425808,2316.252277,-9686.145885
7277.021320,229.710970,401.994197,-10011.569758
7277.023873,1205.982590,-1301.695494,-10432.706536
7277.026425,-421.136778,-995.414202,-9456.434915
7277.028978,2163.111630,-746.560651,-9552.147819
7277.031531,-344.566454,-5647.061336,-10604.989763
7277.034084,-497.707101,-2679.961312,-10049.854920
7277.036636,2660.818731,7101.897477,-8403.592971
7277.039189,-976.271621,-8173.882002,-12595.818166
7277.041742,-689.132909,5034.498750,-8250.452325
7277.044295,1301.695494,3464.807125,-9016.155557
7277.046847,1875.972918,4192.225195,-9762.716208
7277.049400,1359.123237,10892.128475,-8020.741355
7277.051953,555.134843,-1588.834206,-10853.843314
7277.054506,-1205.982590,-3101.098090,-10375.278794
7277.057058,784.845813,2947.957443,-8480.163294
7277.059611,2603.390989,3139.383251,-10375.278794
7277.062164,-2143.969050,5934.200048,-9552.147819
7277.064716,2584.248408,708.275490,-9418.149754
7277.067269,1990.828403,-210.568389,-9284.151688
7277.069822,-957.129040,382.851616,-9858.429112
7277.072375,-1033.699363,1225.125171,-10490.134278
7277.074927,3139.383251,1818.545176,-9724.431046
7277.077480,-1799.402595,2699.103893,-9513.862658
7277.080033,1435.693560,3790.230998,-9437.292334
7277.082586,1225.125171,7006.184573,-8977.870395
7277.085138,2660.818731,172.283227,-10911.271056
7277.087691,-3062.812928,7810.172966,-8212.167163
7277.090244,1339.980656,-2067.398726,-10356.136213
7277.092797,1990.828403,-3483.949706,-10068.997501
7277.095349,267.996131,-6604.190376,-11313.265253
7277.097902,38.285162,-5034.498750,-11160.124606
7277.100455,1110.269686,3637.090352,-8575.876198
7277.103008,172.283227,3139.383251,-9418.149754
7277.105560,2431.107762,-5742.774240,-10624.132344
7277.108113,-3081.955509,1856.830338,-8958.727814
7277.110666,2584.248408,-2641.676150,-10758.130410
7277.113221,133.998066,899.701298,-9781.858789
7277.115777,210.568389,1091.127106,-9456.434915
7277.118332,727.418070,-1627.119368,-9743.573627
7277.120888,267.996131,3158.525832,-8997.012976
7277.123444,1397.408398,-593.420005,-10279.565890
7277.125999,0.000000,-2794.816797,-10566.704602
7277.128555,574.277424,1588.834206,-9073.583299
7277.131111,-976.271621,-4881.358104,-10643.274925
7277.133666,3273.381317,-4134.797453,-10011.569758
7277.136222,-1339.980656,-2641.676150,-9954.142016
7277.138778,2086.541307,3656.232933,-10030.712339
7277.141333,937.986459,191.425808,-10011.569758
7277.143889,2469.392923,6278.766502,-8231.309744
7277.146445,-1665.404530,-3158.525832,-11255.837510
7277.149001,478.564520,2679.961312,-10164.710405
7277.151556,-114.855485,3445.664544,-9992.427178
7277.154112,1225.125171,5493.920690,-8441.878133
7277.156668,440.279358,-746.560651,-9590.432981
7277.159223,-765.703232,535.992262,-9667.003304
7277.161779,2641.676150,363.709035,-10892.128475
7277.164335,-937.986459,4766.502619,-9915.856854
7277.166890,-1703.689691,1148.554848,-9150.153622
7277.169446,995.414202,1895.115499,-8939.585234
7277.172002,1818.545176,306.281293,-10260.423309
7277.174558,-191.425808,2660.818731,-10145.567824
7277.177113,-95.712904,1875.972918,-9513.862658
7277.179669,1722.832272,2852.244539,-9150.153622
7277.182225,-765.703232,7389.036189,-8958.727814
7277.184780,76.570323,3885.943902,-10107.282662
7277.187336,1052.841944,3177.668413,-9628.718142
7277.189892,1627.119368,325.423874,-10260.423309
7277.192447,995.414202,-5742.774240,-10164.710405
7277.195003,-1359.123237,4115.654872,-8863.014910
7277.197559,3139.383251,-3254.238736,-10700.702667
7277.200114,-689.132909,1454.836141,-9016.155557
7277.202670,995.414202,-4307.080680,-11026.126541
7277.205226,-497.707101,-2469.392923,-10681.560086
7277.207782,1320.838075,2794.816797,-8499.305875
7277.210337,2086.541307,-191.425808,-9571.290400
7277.212893,-1684.547110,555.134843,-10853.843314
7277.215451,95.712904,765.703232,-9571.290400
7277.218010,1990.828403,-2718.246474,-9992.427178
7277.220568,689.132909,1646.261949,-9609.575562
7277.223127,-593.420005,363.709035,-9858.429112
7277.225685,1378.265818,-995.414202,-10222.138147
7277.228244,-114.855485,-2086.541307,-9858.429112
7277.230803,382.851616,-2277.967115,-10145.567824
7277.233361,1818.545176,-4039.084549,-9973.284597
7277.235920,-1033.699363,-4287.938099,-10068.997501
7277.238478,1167.697429,3120.240670,-10451.849117
7277.241037,1148.554848,1110.269686,-9667.003304
7277.243595,344.566454,3751.945837,-9245.866526
7277.246154,-2067.398726,-2871.387120,-10604.989763
7277.248712,1473.978722,4287.938099,-9418.149754
7277.251271,1837.687757,9533.005238,-8365.307810
7277.253829,1110.269686,1703.689691,-9992.427178
7277.256388,-631.705166,-3905.086483,-10604.989763
7277.258946,-76.570323,1071.984525,-9322.436850
7277.261505,2124.826469,689.132909,-10643.274925
7277.264063,-1454.836141,5551.348432,-9590.432981
7277.266622,-1052.841944,267.996131,-9360.722011
7277.269180,2316.252277,-631.705166,-9494.720077
7277.271739,-574.277424,1971.685822,-9896.714274
7277.274297,899.701298,1052.841944,-10604.989763
7277.276856,267.996131,2316.252277,-9667.003304
7277.279414,689.132909,4517.649069,-8939.585234
7277.281973,-1416.550979,6144.768437,-9111.868461
7277.284531,363.709035,3311.666478,-10145.567824
7277.287090,-1799.402595,6814.758765,-8748.159426
7277.289648,2297.109696,-2411.965181,-10604.989763
7277.292207,746.560651,-5091.926493,-10260.423309
7277.294765,-1359.123237,4670.789715,-8403.592971
7277.297324,2852.244539,-4134.797453,-11026.126541
7277.299882,-880.558717,1397.408398,-9207.581365
7277.302441,1339.980656,-4039.084549,-10911.271056
7277.304999,-708.275490,-2584.248408,-10738.987829
7277.307558,2009.970984,2890.529701,-8250.452325
7277.310116,3311.666478,-803.988394,-9705.288466
7277.312675,-803.988394,1435.693560,-10451.849117
7277.315233,401.994197,1493.121302,-9322.436850
7277.317794,1473.978722,-3215.953574,-10317.851051
7277.320355,-210.568389,1091.127106,-9801.001370
7277.322916,-76.570323,76.570323,-9571.290400
7277.325477,1225.125171,-1339.980656,-10566.704602
7277.328038,172.283227,1071.984525,-9399.007173
7277.330599,-803.988394,-5015.356170,-10547.562021
7277.333160,3043.670347,-3522.234867,-9705.288466
7277.335721,-76.570323,-2048.256146,-9437.292334
7277.338282,-669.990328,-1244.267752,-11772.687192
7277.340843,1799.402595,5283.352301,-8614.161360
7277.343404,1569.691626,5895.914886,-8441.878133
7277.345965,-1837.687757,-3311.666478,-11045.269122
7277.348526,-19.142581,3005.385186,-9934.999435
7277.351087,842.273555,4785.645200,-9724.431046
7277.353648,1550.549045,5513.063270,-8633.303941
7277.356209,76.570323,-2258.824534,-10241.280728
7277.358770,-823.130974,1435.693560,-9590.432981
7277.361331,2718.246474,842.273555,-10719.845248
7277.363892,19.142581,4268.795518,-9896.714274
7277.366453,-746.560651,-650.847747,-9686.145885
7277.369014,1397.408398,1799.402595,-8843.872330
7277.371575,306.281293,1588.834206,-10088.140082
7277.374136,1397.408398,708.275490,-10509.276859
7277.376697,-210.568389,3751.945837,-9437.292334
7277.379258,-478.564520,4249.652938,-9245.866526
7277.381819,1071.984525,5800.201982,-9284.151688
7277.384380,2277.967115,-1110.269686,-10490.134278
7277.386941,-2316.252277,7829.315547,-8748.159426
7277.389502,440.279358,-516.849682,-10336.993632
7277.392063,1665.404530,401.994197,-9016.155557
7277.394624,153.140646,-6604.190376,-11351.550414
7277.397185,95.712904,-4249.652938,-10566.704602
7277.399746,957.129040,5302.494882,-8097.311678
7277.402307,-19.142581,976.271621,-10241.280728
7277.404868,3024.527766,-3292.523898,-9877.571693
7277.407429,-2622.533570,880.558717,-8997.012976
7277.409990,1646.261949,-3560.520029,-11332.407834
7277.412551,267.996131,918.843878,-9877.571693
7277.415112,861.416136,3024.527766,-9092.725880
7277.417673,535.992262,-3809.373579,-10681.560086
7277.420237,363.709035,2756.531635,-8997.012976
7277.422800,727.418070,-1378.265818,-10107.282662
7277.425363,-823.130974,-2316.252277,-10662.417506
7277.427926,3311.666478,2813.959378,-8997.012976
7277.430490,1856.830338,-4287.938099,-9686.145885
7277.433053,-1244.267752,-6948.756830,-10662.417506
7277.435616,1703.689691,7599.604578,-8422.735552
7277.438179,57.427742,-7197.610381,-12078.968485
7277.440743,593.420005,3522.234867,-9609.575562
7277.443306,-2392.822600,-842.273555,-9724.431046
7277.445869,1722.832272,4651.647134,-9265.009107
7277.448432,2507.678085,9858.429112,-8556.733618
7277.450996,344.566454,612.562586,-10279.565890
7277.453559,-842.273555,-3828.516160,-10585.847182
7277.456122,708.275490,861.416136,-9265.009107
7277.458685,1761.117434,3215.953574,-9801.001370
7277.461249,-650.847747,5972.485210,-9245.866526
7277.463812,1550.549045,1263.410333,-9724.431046
7277.466375,1684.547110,1052.841944,-8882.157491
7277.468938,-306.281293,497.707101,-9839.286531
7277.471502,1205.982590,1014.556782,-10700.702667
7277.474065,363.709035,4555.934230,-9552.147819
7277.476628,-784.845813,4096.512291,-9322.436850
7277.479191,976.271621,6202.196179,-8920.442653
7277.481755,2411.965181,899.701298,-10413.563955
7277.484318,-2622.533570,7484.749093,-8671.589102
7277.486881,1110.269686,-2143.969050,-10681.560086
7277.489444,1818.545176,-306.281293,-9207.581365
7277.492008,95.712904,-5895.914886,-11064.411702
7277.494571,172.283227,-4039.084549,-10451.849117
7277.497134,689.132909,4957.928427,-8461.020714
7277.499697,-191.425808,1263.410333,-10336.993632
7277.502261,1148.554848,-6183.053598,-11102.696864
7277.504824,-1990.828403,1110.269686,-8729.016845
7277.507387,2890.529701,-1263.410333,-9915.856854
7277.509950,-114.855485,823.130974,-10375.278794
7277.512514,-57.427742,746.560651,-9724.431046
7277.515077,421.136778,-210.568389,-9724.431046
7277.517640,1186.840010,1799.402595,-9667.003304
7277.520203,172.283227,-1512.263883,-9820.143950
7277.522768,-516.849682,-1167.697429,-10011.569758
7277.525333,1741.974853,-401.994197,-10298.708470
7277.527897,1301.695494,-5130.211654,-10030.712339
7277.530462,-1359.123237,-5417.350366,-10068.997501
7277.533026,1856.830338,5130.211654,-8729.016845
7277.535591,-880.558717,-7063.612315,-12098.111066
7277.538156,1110.269686,4039.084549,-9896.714274
7277.540720,-1990.828403,-133.998066,-9839.286531
7277.543285,1933.400661,5876.772306,-8767.302006
7277.545850,2411.965181,9667.003304,-8250.452325
7277.548414,-191.425808,-1818.545176,-10949.556218
7277.550979,-1091.127106,-2852.244539,-10470.991698
7277.553543,1320.838075,1741.974853,-9150.153622
7277.556108,669.990328,3081.955509,-9915.856854
7277.558673,-325.423874,5742.774240,-9226.723946
7277.561237,-133.998066,0.000000,-9667.003304
7277.563802,1703.689691,-574.277424,-9571.290400
7277.566367,-516.849682,1282.552914,-9552.147819
7277.568931,918.843878,976.271621,-10738.987829
7277.571496,1799.402595,3924.229064,-9628.718142
7277.574060,-1397.408398,4670.789715,-8939.585234
7277.576625,1397.408398,6489.334891,-9016.155557
7277.579190,3062.812928,-363.709035,-10509.276859
7277.581754,-2871.387120,7676.174901,-8690.731683
7277.584319,76.570323,-861.416136,-10566.704602
7277.586883,401.994197,2009.970984,-8595.018779
7277.589448,784.845813,-6891.329088,-11255.837510
7277.592013,-133.998066,-4977.071008,-10662.417506
7277.594577,937.986459,3617.947771,-8748.159426
7277.597142,172.283227,2737.389054,-9877.571693
7277.599707,2163.111630,-5513.063270,-10815.558152
7277.602271,-2507.678085,689.132909,-8939.585234
7277.604836,2124.826469,-1818.545176,-10317.851051
7277.607400,172.283227,-593.420005,-10279.565890
7277.609965,459.421939,2048.256146,-9513.862658
7277.612530,0.000000,-382.851616,-9552.147819
7277.615094,1703.689691,-459.421939,-9762.716208
7277.617659,-287.138712,172.283227,-9724.431046
7277.620223,1531.406464,-172.283227,-9954.142016
7277.622788,-880.558717,-4919.643266,-11026.126541
7277.625354,1875.972918,-2967.100024,-9399.007173
7277.627920,-976.271621,-5627.918755,-10145.567824
7277.630486,1875.972918,3809.373579,-9858.429112
7277.633052,880.558717,6240.481341,-8575.876198
7277.635618,2239.681954,5934.200048,-8767.302006
7277.638184,-1952.543242,-1703.689691,-10662.417506
7277.640750,-689.132909,3215.953574,-9494.720077
7277.643316,1244.267752,3866.801322,-9954.142016
7277.645882,1110.269686,5168.496816,-8786.444587
7277.648448,-133.998066,-1952.543242,-10202.995566
7277.651014,-784.845813,-440.279358,-9915.856854
7277.653580,2239.681954,1703.689691,-10145.567824
7277.656146,784.845813,4287.938099,-9437.292334
7277.658712,-1454.836141,-746.560651,-10260.423309
7277.661278,1359.123237,1588.834206,-8901.300072
7277.663844,2469.392923,1320.838075,-9686.145885
7277.666410,-1454.836141,1378.265818,-10815.558152
7277.668976,1320.838075,3981.656806,-9667.003304
7277.671542,440.279358,7006.184573,-8327.022648
7277.674108,-689.132909,3924.229064,-9858.429112
7277.676674,803.988394,1665.404530,-9877.571693
7277.679240,1569.691626,2526.820666,-9781.858789
7277.681806,1110.269686,-6508.477472,-11160.124606
7277.684372,-2354.537438,6489.334891,-7829.315547
7277.686938,3215.953574,-4555.934230,-10719.845248
7277.689504,-708.275490,-1205.982590,-9877.571693
7277.692070,440.279358,-3713.660675,-10853.843314
7277.694636,-1110.269686,-325.423874,-10643.274925
7277.697202,3254.238736,861.416136,-8920.442653
7277.699768,-1320.838075,555.134843,-8690.731683
7277.702334,229.710970,-2067.398726,-11121.839445
7277.704900,1378.265818,76.570323,-9762.716208
7277.707466,1110.269686,-650.847747,-10068.997501
7277.710032,-229.710970,-114.855485,-10068.997501
7277.712598,325.423874,-823.130974,-9399.007173
7277.715164,210.568389,172.283227,-10126.425243
7277.717730,574.277424,-593.420005,-10126.425243
7277.720296,1627.119368,-5225.924558,-9992.427178
7277.722862,-1416.550979,-6125.625856,-10183.852986
7277.725428,2201.396792,4268.795518,-8824.729749
7277.727995,-344.566454,-3043.670347,-10911.271056
7277.730562,1512.263883,4287.938099,-10030.712339
7277.733129,-1722.832272,631.705166,-9820.143950
7277.735696,1818.545176,6546.762634,-8346.165229
7277.738262,1627.119368,10068.997501,-8365.307810
7277.740829,-57.427742,-3254.238736,-11389.835576
7277.743396,-1473.978722,-2182.254211,-10260.423309
7277.745963,1646.261949,1225.125171,-9111.868461
7277.748530,-1014.556782,2354.537438,-10145.567824
7277.751097,1186.840010,5245.067139,-9590.432981
7277.753664,497.707101,1531.406464,-9552.147819
7277.756231,1320.838075,19.142581,-9399.007173
7277.758797,229.710970,650.847747,-9571.290400
7277.761364,-593.420005,1244.267752,-10413.563955
7277.763931,1435.693560,4689.932296,-9781.858789
7277.766498,-650.847747,6317.051664,-8843.872330
7277.769065,-114.855485,4957.928427,-9399.007173
7277.771632,2239.681954,-593.420005,-10107.282662
7277.774199,-344.566454,5857.629725,-9322.436850
7277.776766,803.988394,-4134.797453,-10834.700733
7277.779333,-1244.267752,7331.608446,-7561.319416
7277.781899,2163.111630,-6776.473603,-11179.267187
7277.784466,-593.420005,-4651.647134,-10566.704602
7277.787033,-114.855485,-1990.828403,-10394.421374
7277.789600,248.853550,2660.818731,-9896.714274
7277.792167,3081.955509,-765.703232,-9609.575562
7277.794734,-2143.969050,0.000000,-8997.012976
7277.797301,1646.261949,-2641.676150,-10834.700733
7277.799868,1167.697429,-19.142581,-10011.569758
7277.802434,1033.699363,1225.125171,-9762.716208
7277.805001,-497.707101,-133.998066,-10183.852986
7277.807568,76.570323,-746.560651,-9590.432981
7277.810135,-95.712904,995.414202,-9322.436850
7277.812702,593.420005,-2163.111630,-10394.421374
7277.815269,1990.828403,-5053.641331,-10662.417506
7277.817836,-1856.830338,-5417.350366,-9877.571693
7277.820403,2584.248408,3177.668413,-8767.302006
7277.822969,-1186.840010,-7121.040058,-12040.683323
7277.825536,1359.123237,4364.508422,-9858.429112
7277.828103,-1703.689691,593.420005,-10222.138147
7277.830671,1684.547110,7006.184573,-8288.737486
7277.833239,1512.263883,10126.425243,-8039.883936
7277.835807,133.998066,-3962.514226,-11466.405899
7277.838375,-1512.263883,-2182.254211,-10241.280728
7277.840942,1837.687757,1837.687757,-8920.442653
7277.843510,-440.279358,1895.115499,-10566.704602
7277.846078,976.271621,6106.483275,-8901.300072
7277.848646,899.701298,1933.400661,-9245.866526
7277.851214,1205.982590,-1339.980656,-9743.573627
7277.853782,191.425808,1588.834206,-9533.005238
7277.856350,38.285162,1493.121302,-10719.845248
7277.858917,133.998066,3598.805190,-9858.429112
7277.861485,306.281293,6872.186507,-8575.876198
7277.864053,2507.678085,1703.689691,-10030.712339
7277.866621,-2163.111630,6297.909083,-9092.725880
7277.869189,2201.396792,-899.701298,-10451.849117
7277.871757,1320.838075,-5149.354235,-10796.415571
7277.874325,-2469.392923,5053.641331,-8346.165229
7277.876892,3043.670347,-4689.932296,-10432.706536
7277.879460,-133.998066,-957.129040,-9533.005238
7277.882028,325.423874,-4077.369710,-11140.982026
7277.884596,19.142581,-4000.799387,-11179.267187
7277.887164,1646.261949,1684.547110,-8518.448456
7277.889732,478.564520,-421.136778,-9054.440718
7277.892300,-727.418070,-823.130974,-10719.845248
7277.894867,1359.123237,1359.123237,-9762.716208
7277.897435,1339.980656,-229.710970,-10011.569758
7277.900003,-19.142581,57.427742,-10049.854920
7277.902571,382.851616,440.279358,-9207.581365
7277.905139,2909.672282,-727.418070,-10011.569758
7277.907707,-2124.826469,-5072.783912,-10872.985894
7277.910275,842.273555,-4307.080680,-9820.143950
7277.912842,1052.841944,-3637.090352,-9533.005238
7277.915410,287.138712,-1875.972918,-11255.837510
7277.917978,401.994197,5359.922624,-8729.016845
7277.920546,2679.961312,6527.620053,-8882.157491
7277.923114,-1761.117434,-1703.689691,-11332.407834
7277.925682,-995.414202,4364.508422,-9245.866526
7277.928250,1914.258080,4938.785846,-9437.292334
7277.930817,1435.693560,3081.955509,-9111.868461
7277.933366,267.996131,1014.556782,-9150.153622
7277.935916,-325.423874,382.851616,-10202.995566
7277.938465,2239.681954,1665.404530,-10317.851051
7277.941014,306.281293,2909.672282,-9801.001370
7277.943563,-1033.699363,1722.832272,-9341.579430
7277.946112,2201.396792,823.130974,-9265.009107
7277.948661,0.000000,746.560651,-9992.427178
7277.951210,38.285162,4000.799387,-10107.282662
7277.953759,535.992262,5953.342629,-8977.870395
7277.956308,153.140646,5513.063270,-9035.298138
7277.958857,2813.959378,-440.279358,-9820.143950
7277.961406,-1531.406464,6891.329088,-8997.012976
7277.963955,497.707101,210.568389,-10700.702667
7277.966504,937.986459,1071.984525,-9284.151688
7277.969053,497.707101,-6795.616184,-10968.698798
7277.971602,-191.425808,-5398.207786,-10011.569758
7277.974151,1569.691626,3349.951640,-8652.446522
7277.976700,57.427742,2143.969050,-10298.708470
7277.979249,2105.683888,-1684.547110,-10126.425243
7277.981798,-1741.974853,-574.277424,-8882.157491
7277.984347,2316.252277,-2277.967115,-10336.993632
7277.986896,-421.136778,-535.992262,-10317.851051
7277.989445,325.423874,2794.816797,-9801.001370
7277.991994,995.414202,-937.986459,-9839.286531
7277.994543,784.845813,-210.568389,-9533.005238
7277.997092,-1320.838075,440.279358,-9399.007173
7277.999641,1014.556782,-2565.105827,-10643.274925
7278.002190,3158.525832,-3828.516160,-9858.429112
7278.004739,-1282.552914,-6470.192310,-10375.278794
7278.007288,1569.691626,3215.953574,-9456.434915
7278.009837,0.000000,-3292.523898,-10375.278794
7278.012386,1205.982590,4709.074877,-9877.571693
7278.014935,-1646.261949,631.705166,-10375.278794
7278.017484,1933.400661,7044.469734,-8441.878133
7278.020033,1703.689691,10470.991698,-8059.026517
7278.022582,-382.851616,-4115.654872,-11428.120738
7278.025131,-1359.123237,-1818.545176,-10126.425243
7278.027680,248.853550,555.134843,-9743.573627
7278.030229,669.990328,746.560651,-10413.563955
7278.032778,-191.425808,6508.477472,-9245.866526
7278.035331,1167.697429,1091.127106,-9475.577496
7278.037883,612.562586,459.421939,-9322.436850
7278.040436,363.709035,1416.550979,-9399.007173
7278.042988,593.420005,1359.123237,-10700.702667
7278.045540,-38.285162,4881.358104,-9992.427178
7278.048093,133.998066,6412.764568,-8633.303941
7278.050645,2986.242605,-1493.121302,-10107.282662
7278.053198,-2794.816797,8518.448456,-8403.592971
7278.055750,38.285162,344.566454,-10509.276859
7278.058303,3215.953574,-3330.809059,-10336.993632
7278.060855,-746.560651,-2947.957443,-10528.419440
7278.063408,1014.556782,-3905.086483,-9571.290400
7278.065960,287.138712,3579.662610,-8001.598774
7278.068512,555.134843,-899.701298,-11198.409768
7278.071065,248.853550,-3828.516160,-11332.407834
7278.073617,1416.550979,1454.836141,-8709.874264
7278.076170,2182.254211,-1473.978722,-9647.860723
7278.078722,-995.414202,-421.136778,-10222.138147
7278.081275,555.134843,1531.406464,-9801.001370
7278.083827,1531.406464,478.564520,-10145.567824
7278.086380,248.853550,-1339.980656,-10145.567824
7278.088932,-1301.695494,1818.545176,-8499.305875
7278.091484,1665.404530,-3771.088418,-10719.845248
7278.094037,1722.832272,-4517.649069,-10719.845248
7278.096589,-1359.123237,-4211.367776,-9724.431046
7278.099142,1895.115499,2354.537438,-9456.434915
7278.101694,-306.281293,-3771.088418,-10643.274925
7278.104247,1071.984525,4728.217458,-9552.147819
7278.106799,-1320.838075,842.273555,-10470.991698
7278.109352,1971.685822,7829.315547,-8461.020714
7278.111904,1531.406464,10451.849117,-7925.028451
7278.114456,-1129.412267,-4689.932296,-11332.407834
7278.117011,-1110.269686,-1875.972918,-10164.710405
7278.119566,2220.539373,1512.263883,-8863.014910
7278.122122,861.416136,-114.855485,-10911.271056
7278.124678,-344.566454,6240.481341,-9265.009107
7278.127233,765.703232,2411.965181,-8920.442653
7278.129789,689.132909,-976.271621,-9686.145885
7278.132344,-287.138712,2277.967115,-9111.868461
7278.134900,842.273555,1971.685822,-10738.987829
7278.137456,-344.566454,4632.504554,-10279.565890
7278.140011,191.425808,6317.051664,-8537.591037
7278.142567,2603.390989,727.418070,-9647.860723
7278.145122,-2009.970984,8039.883936,-8671.589102
7278.147678,133.998066,631.705166,-10547.562021
7278.150234,1512.263883,210.568389,-9743.573627
7278.152789,497.707101,-7312.465866,-11274.980091
7278.155345,-421.136778,-5187.639397,-9724.431046
7278.157900,1301.695494,4019.941968,-8173.882002
7278.160456,-172.283227,1531.406464,-10796.415571
7278.163012,440.279358,-3177.668413,-11006.983960
7278.165567,918.843878,382.851616,-9073.583299
7278.168123,1129.412267,-1186.840010,-9418.149754
7278.170678,-784.845813,306.281293,-10030.712339
7278.173234,669.990328,765.703232,-10222.138147
7278.175790,1244.267752,191.425808,-10183.852986
7278.178345,153.140646,-555.134843,-9915.856854
7278.180901,1359.123237,440.279358,-8882.157491
7278.183456,-1071.984525,-3579.662610,-10451.849117
7278.186012,2431.107762,-4938.785846,-10624.132344
7278.188568,-1033.699363,-4555.934230,-9820.143950
7278.191123,1627.119368,2143.969050,-9801.001370
7278.193679,803.988394,3005.385186,-8882.157491
7278.196234,1282.552914,6833.901346,-8403.592971
7278.198790,-1569.691626,-1684.547110,-11562.118803
7278.201346,-1148.554848,5436.492947,-9226.723946
7278.203901,3005.385186,7714.460062,-8786.444587
7278.206457,1052.841944,823.130974,-9533.005238
7278.209012,-995.414202,-2833.101958,-10011.569758
7278.211568,440.279358,1244.267752,-9456.434915
7278.214123,1148.554848,-459.421939,-11102.696864
7278.216679,-516.849682,5934.200048,-9896.714274
7278.219218,-880.558717,1914.258080,-9111.868461
7278.221757,2871.387120,1052.841944,-9016.155557
7278.224296,-957.129040,2182.254211,-9705.288466
7278.226835,-133.998066,3139.383251,-10566.704602
7278.229374,1071.984525,4843.072942,-9915.856854
7278.231913,-1014.556782,6738.188442,-8729.016845
7278.234452,1875.972918,-842.273555,-9647.860723
7278.236991,267.996131,4632.504554,-9399.007173
7278.239530,823.130974,-2507.678085,-10892.128475
7278.242069,-1588.834206,6010.770371,-8365.307810
7278.244608,2201.396792,-6719.045861,-10834.700733
7278.247147,-210.568389,-4039.084549,-9705.288466
7278.249686,574.277424,-3905.086483,-10681.560086
7278.252225,-287.138712,2450.250342,-10509.276859
7278.254764,2220.539373,574.277424,-9839.286531
7278.257303,-593.420005,-363.709035,-8824.729749
7278.259842,1378.265818,-1205.982590,-10030.712339
7278.262381,-478.564520,861.416136,-9647.860723
7278.264921,516.849682,-765.703232,-10777.272990
7278.267460,229.710970,-823.130974,-10183.852986
7278.269999,287.138712,1818.545176,-8901.300072
7278.272538,650.847747,-2163.111630,-10145.567824
7278.275077,1761.117434,-5245.067139,-10260.423309
7278.277616,-516.849682,-6221.338760,-10317.851051
7278.280155,1569.691626,3675.375514,-9475.577496
7278.282694,-344.566454,-6987.041992,-11351.550414
7278.285233,248.853550,5436.492947,-8997.012976
7278.287772,-287.138712,2852.244539,-9724.431046
7278.290311,1741.974853,7389.036189,-8958.727814
7278.292850,880.558717,10107.282662,-8059.026517
7278.295389,-880.558717,-6163.911018,-12098.111066
7278.297928,114.855485,708.275490,-9399.007173
7278.300467,1473.978722,918.843878,-8997.012976
7278.303006,153.140646,-880.558717,-11198.409768
7278.305545,-57.427742,8078.169098,-8901.300072
7278.308084,2335.394858,3081.955509,-9360.722011
7278.310623,191.425808,-1895.115499,-9896.714274
7278.313162,-1454.836141,3579.662610,-8729.016845
7278.315701,1895.115499,497.707101,-11026.126541
7278.318240,-535.992262,5570.491013,-9954.142016
7278.320784,-57.427742,5608.776174,-8958.727814
7278.323328,2622.533570,-784.845813,-9609.575562
7278.325872,248.853550,5034.498750,-9016.155557
7278.328415,976.271621,1033.699363,-10490.134278
7278.330959,-803.988394,4632.504554,-8805.587168
7278.333503,1225.125171,-9092.725880,-11830.114934
7278.336047,114.855485,-6508.477472,-10088.140082
7278.338591,957.129040,957.129040,-8614.161360
7278.341135,133.998066,3158.525832,-10298.708470
7278.343679,899.701298,-1512.263883,-10662.417506
7278.346223,-440.279358,-459.421939,-9073.583299
