#time,accel_x,accel_y,accel_z
874.628192,937.986459,459.421939,-9265.009107
874.631384,1225.125171,-401.994197,-10394.421374
874.634575,-19.142581,497.707101,-9399.007173
874.637767,-631.705166,727.418070,-9418.149754
874.640958,-937.986459,1971.685822,-9954.142016
874.644150,267.996131,363.709035,-9801.001370
874.647341,267.996131,1473.978722,-9188.438784
874.650533,1531.406464,-76.570323,-9705.288466
874.653725,1856.830338,478.564520,-9131.011042
874.656916,650.847747,631.705166,-9896.714274
874.660108,-669.990328,1110.269686,-9743.573627
874.663299,-1110.269686,76.570323,-9571.290400
874.666491,-555.134843,1684.547110,-9475.577496
874.669682,-727.418070,1110.269686,-9896.714274
874.672874,1052.841944,344.566454,-9628.718142
874.676066,1971.685822,1320.838075,-8997.012976
874.679257,1703.689691,-708.275490,-9954.142016
874.682449,1512.263883,650.847747,-9801.001370
874.685640,-421.136778,2067.398726,-9590.432981
874.688832,-937.986459,4230.510357,-8997.012976
874.692023,-976.271621,4192.225195,-9226.723946
874.695215,1282.552914,-3388.236802,-9513.862658
874.698407,1493.121302,-1033.699363,-9686.145885
874.701598,1454.836141,-3062.812928,-9973.284597
874.704790,842.273555,3617.947771,-8269.594906
874.707981,1129.412267,440.279358,-9801.001370
874.711173,516.849682,114.855485,-9686.145885
874.714390,57.427742,1493.121302,-9341.579430
874.717607,-784.845813,3120.240670,-9284.151688
874.720825,-689.132909,1952.543242,-9475.577496
874.724042,861.416136,1454.836141,-9494.720077
874.727259,1665.404530,555.134843,-8863.014910
874.730477,1875.972918,-95.712904,-9456.434915
874.733694,1397.408398,-918.843878,-9934.999435
874.736911,76.570323,612.562586,-9609.575562
874.740129,-440.279358,1225.125171,-9533.005238
874.743346,-669.990328,1014.556782,-9609.575562
874.746563,-306.281293,1091.127106,-9552.147819
874.749781,401.994197,1071.984525,-9743.573627
874.752998,1359.123237,765.703232,-9245.866526
874.756215,1397.408398,401.994197,-9418.149754
874.759433,535.992262,-38.285162,-9820.143950
874.762650,-516.849682,2239.681954,-9399.007173
874.765867,-727.418070,-38.285162,-9743.573627
874.769085,-267.996131,1110.269686,-9188.438784
874.772302,-593.420005,-287.138712,-10336.993632
874.775519,1205.982590,1186.840010,-9035.298138
874.778737,1607.976787,-4153.940034,-10202.995566
874.781954,1569.691626,-3503.092286,-10145.567824
874.785171,440.279358,-1167.697429,-9667.003304
874.788389,57.427742,2660.818731,-9418.149754
874.791606,-421.136778,957.129040,-9533.005238
874.794823,-287.138712,-2641.676150,-10509.276859
874.798041,0.000000,3024.527766,-9360.722011
874.801258,229.710970,6010.770371,-9456.434915
874.804475,1205.982590,5493.920690,-8231.309744
874.807692,1627.119368,-1339.980656,-9437.292334
874.810910,1339.980656,-937.986459,-10222.138147
874.814127,631.705166,1780.260014,-9379.864592
874.817380,-650.847747,1512.263883,-9303.294269
874.820616,-880.558717,3062.812928,-9188.438784
874.823852,-248.853550,823.130974,-10164.710405
874.827088,1091.127106,1416.550979,-9188.438784
874.830324,1071.984525,344.566454,-9360.722011
874.833560,1205.982590,957.129040,-9762.716208
874.836796,631.705166,210.568389,-9762.716208
874.840032,421.136778,784.845813,-9399.007173
874.843268,-478.564520,1033.699363,-9896.714274
874.846504,-459.421939,306.281293,-9552.147819
874.849740,-306.281293,1837.687757,-9418.149754
874.852976,784.845813,669.990328,-9992.427178
874.856212,1397.408398,440.279358,-9188.438784
874.859448,1550.549045,-421.136778,-9590.432981
874.862684,937.986459,1473.978722,-9628.718142
874.865920,76.570323,957.129040,-9590.432981
874.869156,-210.568389,1205.982590,-9399.007173
874.872392,-612.562586,784.845813,-9686.145885
874.875628,19.142581,172.283227,-10375.278794
874.878864,937.986459,3464.807125,-9494.720077
874.882100,899.701298,3541.377448,-9092.725880
874.885336,1378.265818,5608.776174,-8556.733618
874.888572,1435.693560,-1761.117434,-10413.563955
874.891808,1014.556782,-363.709035,-9724.431046
874.895044,-1397.408398,-1091.127106,-10030.712339
874.898280,-1378.265818,2679.961312,-8729.016845
874.901516,-803.988394,1799.402595,-9418.149754
874.904752,1627.119368,-191.425808,-9781.858789
874.907988,1435.693560,2258.824534,-8709.874264
874.911224,1416.550979,2201.396792,-9207.581365
874.914460,1435.693560,1971.685822,-9360.722011
874.917696,497.707101,937.986459,-9705.288466
874.920824,57.427742,-689.132909,-9494.720077
874.923952,-459.421939,-708.275490,-9896.714274
874.927080,229.710970,-325.423874,-10126.425243
874.930208,-172.283227,746.560651,-9475.577496
874.933336,1148.554848,708.275490,-9418.149754
874.936464,899.701298,555.134843,-9475.577496
874.939592,708.275490,95.712904,-9667.003304
874.942720,153.140646,2354.537438,-9513.862658
874.945848,57.427742,555.134843,-9571.290400
874.948976,-133.998066,1665.404530,-8863.014910
874.952105,210.568389,-535.992262,-10490.134278
874.955233,957.129040,2029.113565,-9188.438784
874.958361,1148.554848,-287.138712,-9571.290400
874.961489,1244.267752,-172.283227,-9341.579430
874.964617,823.130974,1205.982590,-9686.145885
874.967745,459.421939,-2660.818731,-10260.423309
874.970873,-401.994197,-2909.672282,-9609.575562
874.974001,-880.558717,-2220.539373,-10413.563955
874.977129,-937.986459,3713.660675,-9016.155557
874.980257,172.283227,4517.649069,-8920.442653
874.983385,2431.107762,95.712904,-9111.868461
874.986513,1569.691626,1933.400661,-9494.720077
874.989642,1129.412267,5340.780043,-9686.145885
874.992770,-631.705166,6833.901346,-8173.882002
874.995898,-459.421939,287.138712,-9667.003304
874.999026,-516.849682,-382.851616,-9628.718142
875.002154,153.140646,421.136778,-10088.140082
875.005282,899.701298,2182.254211,-8920.442653
875.008410,1320.838075,1397.408398,-9111.868461
875.011538,1741.974853,1607.976787,-9762.716208
875.014666,1052.841944,287.138712,-9647.860723
875.017794,38.285162,593.420005,-9418.149754
875.020965,-459.421939,727.418070,-10011.569758
875.024136,-401.994197,1014.556782,-9667.003304
875.027308,-765.703232,1052.841944,-9475.577496
875.030479,746.560651,478.564520,-9801.001370
875.033650,1569.691626,1378.265818,-9150.153622
875.036821,1091.127106,-287.138712,-9724.431046
875.039992,1071.984525,1531.406464,-9111.868461
875.043163,306.281293,133.998066,-10164.710405
875.046334,-267.996131,1225.125171,-9437.292334
875.049505,-306.281293,1167.697429,-9533.005238
875.052676,210.568389,976.271621,-9915.856854
875.055847,1186.840010,2641.676150,-9035.298138
875.059019,1091.127106,1091.127106,-9647.860723
875.062190,1627.119368,1569.691626,-9016.155557
875.065361,631.705166,2124.826469,-9877.571693
875.068532,-401.994197,7503.891674,-8327.022648
875.071703,-325.423874,1588.834206,-9418.149754
875.074874,114.855485,516.849682,-9705.288466
875.078045,-153.140646,-4153.940034,-10260.423309
875.081216,574.277424,210.568389,-9226.723946
875.084387,1397.408398,2660.818731,-8901.300072
875.087558,1378.265818,0.000000,-9667.003304
875.090730,1186.840010,1856.830338,-9131.011042
875.093901,650.847747,1684.547110,-9667.003304
875.097105,-363.709035,2450.250342,-9418.149754
875.100309,-535.992262,708.275490,-9494.720077
875.103513,535.992262,-57.427742,-9724.431046
875.106717,-421.136778,1282.552914,-9571.290400
875.109921,1205.982590,669.990328,-9322.436850
875.113125,1129.412267,727.418070,-9379.864592
875.116329,746.560651,-344.566454,-9896.714274
875.119533,-19.142581,1914.258080,-9226.723946
875.122737,-19.142581,803.988394,-9839.286531
875.125941,-440.279358,1837.687757,-9456.434915
875.129145,-172.283227,19.142581,-9628.718142
875.132349,1282.552914,1627.119368,-9322.436850
875.135553,1148.554848,-38.285162,-9820.143950
875.138757,1646.261949,497.707101,-8997.012976
875.141961,1244.267752,-210.568389,-9724.431046
875.145165,-38.285162,1818.545176,-9896.714274
875.148369,-440.279358,1186.840010,-8958.727814
875.151573,267.996131,-4077.369710,-10279.565890
875.154777,-153.140646,-2048.256146,-9934.999435
875.157981,-248.853550,-784.845813,-10183.852986
875.161185,1205.982590,4977.071008,-8346.165229
875.164389,1531.406464,2545.963246,-8671.589102
875.167593,1684.547110,1703.689691,-9934.999435
875.170797,-210.568389,4460.221326,-9475.577496
875.174001,-191.425808,3158.525832,-9092.725880
875.177205,-899.701298,2641.676150,-8977.870395
875.180409,-38.285162,-1359.123237,-10394.421374
875.183613,1780.260014,-210.568389,-9858.429112
875.186817,1110.269686,1435.693560,-9016.155557
875.190021,1722.832272,2316.252277,-8843.872330
875.193225,1205.982590,2297.109696,-9590.432981
875.196429,382.851616,210.568389,-10088.140082
875.199657,-803.988394,1588.834206,-8939.585234
875.202885,19.142581,153.140646,-10088.140082
875.206113,-708.275490,1856.830338,-9667.003304
875.209341,344.566454,-421.136778,-9552.147819
875.212569,1588.834206,2105.683888,-9035.298138
875.215797,1378.265818,-1148.554848,-10183.852986
875.219026,746.560651,1416.550979,-9111.868461
875.222254,-325.423874,-401.994197,-10068.997501
875.225482,-172.283227,1856.830338,-9475.577496
875.228710,-976.271621,880.558717,-9628.718142
875.231938,57.427742,133.998066,-9877.571693
875.235166,1550.549045,4307.080680,-8652.446522
875.238394,976.271621,2986.242605,-9686.145885
875.241622,1722.832272,2239.681954,-8786.444587
875.244851,1512.263883,-593.420005,-10049.854920
875.248079,-114.855485,6642.475538,-8882.157491
875.251307,-765.703232,4364.508422,-8920.442653
875.254535,-38.285162,-784.845813,-9858.429112
875.257763,-880.558717,-5168.496816,-10317.851051
875.260991,267.996131,-3196.810994,-10356.136213
875.264219,1665.404530,2316.252277,-9035.298138
875.267447,1569.691626,172.283227,-9628.718142
875.270675,1205.982590,306.281293,-9437.292334
875.273904,1301.695494,229.710970,-9896.714274
875.277132,38.285162,1875.972918,-9609.575562
875.280360,-899.701298,95.712904,-9609.575562
875.283588,-172.283227,-1014.556782,-9781.858789
875.286816,1071.984525,727.418070,-9533.005238
875.290044,842.273555,631.705166,-9686.145885
875.293272,1397.408398,765.703232,-9016.155557
875.296500,1359.123237,-287.138712,-9839.286531
875.299729,325.423874,1722.832272,-9571.290400
875.302975,-842.273555,-689.132909,-9954.142016
875.306221,-325.423874,2143.969050,-9245.866526
875.309468,-708.275490,325.423874,-10088.140082
875.312714,669.990328,1435.693560,-9226.723946
875.315961,1301.695494,153.140646,-9609.575562
875.319207,1780.260014,-363.709035,-9858.429112
875.322454,1033.699363,1378.265818,-9169.296203
875.325700,1129.412267,555.134843,-9533.005238
875.328947,267.996131,-1282.552914,-9533.005238
875.332193,-497.707101,-3388.236802,-10566.704602
875.335440,-248.853550,1952.543242,-9150.153622
875.338686,-823.130974,4019.941968,-9226.723946
875.341933,478.564520,4115.654872,-8997.012976
875.345179,2067.398726,2660.818731,-9016.155557
875.348426,1799.402595,842.273555,-10241.280728
875.351672,38.285162,6623.332957,-8039.883936
875.354919,306.281293,1014.556782,-9571.290400
875.358165,-153.140646,-669.990328,-10088.140082
875.361412,-861.416136,-1033.699363,-10413.563955
875.364658,210.568389,1550.549045,-9188.438784
875.367905,1378.265818,2009.970984,-9035.298138
875.371151,1339.980656,172.283227,-10317.851051
875.374398,1110.269686,172.283227,-9418.149754
875.377644,1225.125171,363.709035,-9379.864592
875.380891,-229.710970,1607.976787,-9839.286531
875.384137,-708.275490,-57.427742,-10011.569758
875.387383,-133.998066,2239.681954,-9035.298138
875.390630,-497.707101,191.425808,-10030.712339
875.393876,1263.410333,1703.689691,-8939.585234
875.397123,1359.123237,-478.564520,-9858.429112
875.400369,1665.404530,1263.410333,-9456.434915
875.403616,76.570323,478.564520,-9552.147819
875.406876,765.703232,535.992262,-9667.003304
875.410137,-401.994197,3771.088418,-9360.722011
875.413397,-287.138712,1512.263883,-9992.427178
875.416658,57.427742,2545.963246,-9054.440718
875.419918,842.273555,2584.248408,-9513.862658
875.423179,421.136778,7140.182638,-8365.307810
875.426439,1435.693560,3235.096155,-8939.585234
875.429700,1799.402595,-210.568389,-9456.434915
875.432960,191.425808,-2871.387120,-9973.284597
875.436221,-1167.697429,1856.830338,-9188.438784
875.439481,-842.273555,2871.387120,-9150.153622
875.442742,-478.564520,765.703232,-9820.143950
875.446002,459.421939,1531.406464,-9150.153622
875.449263,1359.123237,2105.683888,-9303.294269
875.452523,1761.117434,2316.252277,-9265.009107
875.455784,497.707101,401.994197,-9475.577496
875.459044,1416.550979,-478.564520,-9552.147819
875.462305,0.000000,229.710970,-9552.147819
875.465565,-516.849682,1301.695494,-10088.140082
875.468826,-306.281293,708.275490,-9360.722011
875.472086,1397.408398,459.421939,-9169.296203
875.475347,803.988394,1320.838075,-9839.286531
875.478607,1703.689691,-401.994197,-9475.577496
875.481868,1397.408398,1282.552914,-9150.153622
875.485128,-401.994197,191.425808,-10107.282662
875.488389,-593.420005,976.271621,-9322.436850
875.491649,-555.134843,-57.427742,-10011.569758
875.494910,-363.709035,2163.111630,-9609.575562
875.498170,344.566454,-2009.970984,-9743.573627
875.501431,1339.980656,-3847.658741,-10317.851051
875.504691,1129.412267,-842.273555,-9456.434915
875.507952,306.281293,1091.127106,-9647.860723
875.511224,1129.412267,3560.520029,-8499.305875
875.514496,306.281293,-1339.980656,-10011.569758
875.517768,-746.560651,2890.529701,-9724.431046
875.521040,-459.421939,7618.747158,-8920.442653
875.524312,-363.709035,6393.621987,-8441.878133
875.527584,1244.267752,-172.283227,-9226.723946
875.530856,1952.543242,-1052.841944,-9934.999435
875.534128,1282.552914,1741.974853,-9092.725880
875.537400,-229.710970,899.701298,-9552.147819
875.540672,-344.566454,133.998066,-9533.005238
875.543944,-287.138712,555.134843,-10202.995566
875.547216,-287.138712,995.414202,-10011.569758
875.550488,-133.998066,842.273555,-9092.725880
875.553760,1301.695494,555.134843,-9724.431046
875.557032,957.129040,555.134843,-9915.856854
875.560304,1627.119368,210.568389,-9111.868461
875.563576,784.845813,880.558717,-9609.575562
875.566848,95.712904,248.853550,-9954.142016
875.570120,-650.847747,2105.683888,-9188.438784
875.573392,-287.138712,229.710970,-9992.427178
875.576663,-363.709035,2086.541307,-9284.151688
875.579935,1033.699363,-976.271621,-9705.288466
875.583207,1665.404530,899.701298,-9437.292334
875.586479,1129.412267,3407.379382,-9418.149754
875.589751,133.998066,2545.963246,-9628.718142
875.593023,421.136778,593.420005,-9494.720077
875.596295,-248.853550,-3005.385186,-11045.269122
875.599567,-1110.269686,2029.113565,-9533.005238
875.602839,-344.566454,248.853550,-9667.003304
875.606111,2201.396792,-4900.500685,-9954.142016
875.609383,1569.691626,-6106.483275,-10758.130410
875.612655,1990.828403,-2871.387120,-10451.849117
875.615936,344.566454,2239.681954,-9035.298138
875.619217,-421.136778,344.566454,-10049.854920
875.622497,-803.988394,555.134843,-9628.718142
875.625778,-593.420005,-574.277424,-10279.565890
875.629059,-976.271621,746.560651,-9456.434915
875.632340,803.988394,-1167.697429,-9647.860723
875.635620,1914.258080,-191.425808,-9513.862658
875.638901,937.986459,650.847747,-9686.145885
875.642182,267.996131,325.423874,-9628.718142
875.645462,133.998066,1225.125171,-9379.864592
875.648743,-478.564520,306.281293,-10183.852986
875.652024,-689.132909,1473.978722,-9456.434915
875.655305,593.420005,210.568389,-9590.432981
875.658585,1799.402595,1550.549045,-9303.294269
875.661866,1167.697429,-344.566454,-9724.431046
875.665147,1454.836141,1588.834206,-8977.870395
875.668427,1167.697429,-401.994197,-9705.288466
875.671708,-114.855485,-2507.678085,-10202.995566
875.674989,-803.988394,-2679.961312,-9934.999435
875.678270,-497.707101,-76.570323,-9705.288466
875.681550,-1186.840010,6106.483275,-8556.733618
875.684831,1225.125171,1990.828403,-9379.864592
875.688112,2507.678085,2622.533570,-9073.583299
875.691392,1397.408398,5398.207786,-9284.151688
875.694673,1148.554848,5379.065205,-8269.594906
875.697954,880.558717,-38.285162,-9609.575562
875.701235,-344.566454,-401.994197,-10202.995566
875.704515,-574.277424,746.560651,-9533.005238
875.707796,574.277424,1320.838075,-9188.438784
875.711077,1397.408398,1703.689691,-9456.434915
875.714357,1071.984525,1569.691626,-9877.571693
875.717638,1301.695494,1435.693560,-9016.155557
875.720925,918.843878,-133.998066,-9628.718142
875.724213,-478.564520,1856.830338,-9762.716208
875.727500,-516.849682,-382.851616,-10011.569758
875.730787,-344.566454,2641.676150,-9073.583299
875.734075,-478.564520,-172.283227,-9954.142016
875.737362,1359.123237,1091.127106,-9207.581365
875.740649,1550.549045,382.851616,-9743.573627
875.743936,957.129040,401.994197,-9820.143950
875.747224,937.986459,-306.281293,-9188.438784
875.750511,172.283227,842.273555,-10183.852986
875.753798,-593.420005,4785.645200,-9092.725880
875.757085,-459.421939,2354.537438,-9724.431046
875.760373,1722.832272,-976.271621,-9667.003304
875.763660,842.273555,-2163.111630,-10911.271056
875.766947,1052.841944,1320.838075,-9571.290400
875.770234,1071.984525,937.986459,-8958.727814
875.773522,823.130974,-5627.918755,-10490.134278
875.776809,-650.847747,-4077.369710,-10451.849117
875.780096,-287.138712,-2431.107762,-10681.560086
875.783384,-708.275490,2852.244539,-9054.440718
875.786671,-803.988394,133.998066,-9934.999435
875.789958,1435.693560,344.566454,-9724.431046
875.793245,1512.263883,1339.980656,-9341.579430
875.796533,995.414202,1167.697429,-9667.003304
875.799820,918.843878,1378.265818,-8748.159426
875.803107,823.130974,-229.710970,-10030.712339
875.806394,-535.992262,2526.820666,-9667.003304
875.809682,57.427742,-957.129040,-9647.860723
875.812969,880.558717,3043.670347,-8614.161360
875.816256,803.988394,-459.421939,-10432.706536
875.819543,1512.263883,1665.404530,-8556.733618
875.822831,1416.550979,-1416.550979,-9992.427178
875.826117,803.988394,1550.549045,-9475.577496
875.829410,114.855485,957.129040,-9609.575562
875.832702,76.570323,-2469.392923,-10145.567824
875.835994,-899.701298,-1531.406464,-9705.288466
875.839287,-555.134843,-1320.838075,-10164.710405
875.842579,1665.404530,1110.269686,-8805.587168
875.845872,2182.254211,-5149.354235,-10777.272990
875.849164,1895.115499,-2354.537438,-9801.001370
875.852456,1071.984525,2545.963246,-9360.722011
875.855749,172.283227,6336.194245,-9379.864592
875.859041,-784.845813,2124.826469,-9571.290400
875.862333,-516.849682,-1933.400661,-10202.995566
875.865626,-669.990328,1952.543242,-9207.581365
875.868918,287.138712,957.129040,-9858.429112
875.872211,1378.265818,823.130974,-9016.155557
875.875503,1339.980656,-229.710970,-9475.577496
875.878795,957.129040,2029.113565,-9628.718142
875.882088,440.279358,2833.101958,-9303.294269
875.885380,-382.851616,421.136778,-9743.573627
875.888673,-861.416136,1665.404530,-9303.294269
875.891965,363.709035,421.136778,-9992.427178
875.895257,1473.978722,1627.119368,-9169.296203
875.898550,1971.685822,-880.558717,-9762.716208
875.901842,1512.263883,899.701298,-9341.579430
875.905134,574.277424,-363.709035,-9820.143950
875.908427,-76.570323,2411.965181,-9322.436850
875.911719,-497.707101,57.427742,-9934.999435
875.915012,0.000000,382.851616,-9571.290400
875.918304,-478.564520,2124.826469,-9820.143950
875.921596,555.134843,4287.938099,-9533.005238
875.924889,1129.412267,3369.094221,-8575.876198
875.928181,2009.970984,-4096.512291,-10892.128475
875.931417,669.990328,880.558717,-9513.862658
875.934654,191.425808,-1033.699363,-10183.852986
875.937890,-650.847747,2029.113565,-8671.589102
875.941127,-459.421939,-2469.392923,-10068.997501
875.944363,593.420005,-2450.250342,-10719.845248
875.947599,899.701298,2565.105827,-9341.579430
875.950836,1493.121302,2316.252277,-9322.436850
875.954072,1186.840010,1665.404530,-9016.155557
875.957308,1397.408398,-593.420005,-10222.138147
875.960545,38.285162,210.568389,-9322.436850
875.963781,-669.990328,-459.421939,-9781.858789
875.967018,-172.283227,784.845813,-9667.003304
875.970254,-478.564520,535.992262,-9896.714274
875.973490,861.416136,1033.699363,-9418.149754
875.976727,1531.406464,287.138712,-9341.579430
875.979963,1588.834206,57.427742,-9801.001370
875.983200,1033.699363,497.707101,-9647.860723
875.986436,669.990328,-363.709035,-9609.575562
875.989672,-497.707101,1493.121302,-9322.436850
875.992909,-650.847747,-2507.678085,-10758.130410
875.996145,-57.427742,382.851616,-9226.723946
875.999381,-535.992262,-1780.260014,-10222.138147
876.002618,1512.263883,1167.697429,-9150.153622
876.005854,2048.256146,-4077.369710,-10336.993632
876.009106,1837.687757,-3809.373579,-10643.274925
876.012357,-1320.838075,3637.090352,-8939.585234
876.015609,-459.421939,5608.776174,-9609.575562
876.018860,-727.418070,2105.683888,-9552.147819
876.022112,-784.845813,-1627.119368,-10241.280728
876.025363,650.847747,1933.400661,-9131.011042
876.028615,1550.549045,-133.998066,-9801.001370
876.031866,1761.117434,-1167.697429,-9265.009107
876.035118,1320.838075,823.130974,-9322.436850
876.038369,1359.123237,382.851616,-9820.143950
876.041621,-555.134843,1875.972918,-9533.005238
876.044872,-535.992262,57.427742,-10222.138147
876.048124,-287.138712,2124.826469,-9016.155557
876.051375,-133.998066,497.707101,-10202.995566
876.054627,1148.554848,2029.113565,-9303.294269
876.057878,1665.404530,-1129.412267,-9552.147819
876.061130,1588.834206,1359.123237,-9303.294269
876.064381,-382.851616,1282.552914,-9743.573627
876.067633,459.421939,421.136778,-9399.007173
876.070884,-746.560651,2239.681954,-9475.577496
876.074136,-95.712904,3043.670347,-9801.001370
876.077387,229.710970,3062.812928,-9092.725880
876.080639,1722.832272,-478.564520,-9915.856854
876.083890,1378.265818,2086.541307,-9456.434915
876.087142,1378.265818,3503.092286,-9322.436850
876.090393,918.843878,1282.552914,-9111.868461
876.093645,-57.427742,-5130.211654,-10317.851051
876.096896,-937.986459,-1722.832272,-9934.999435
876.100148,-1186.840010,516.849682,-9686.145885
876.103399,-650.847747,1148.554848,-9801.001370
876.106651,1186.840010,727.418070,-9379.864592
876.109902,1895.115499,459.421939,-9628.718142
876.113165,1225.125171,2258.824534,-9284.151688
876.116428,1091.127106,1588.834206,-9303.294269
876.119691,497.707101,-229.710970,-9609.575562
876.122954,-76.570323,-650.847747,-9647.860723
876.126217,-76.570323,1493.121302,-9781.858789
876.129479,-38.285162,880.558717,-9628.718142
876.132742,880.558717,1282.552914,-9207.581365
876.136005,1148.554848,1091.127106,-9686.145885
876.139268,1703.689691,-516.849682,-9590.432981
876.142531,765.703232,976.271621,-9131.011042
876.145794,-210.568389,650.847747,-10202.995566
876.149057,19.142581,-382.851616,-9513.862658
876.152319,-593.420005,-3483.949706,-10375.278794
876.155582,-708.275490,-995.414202,-9858.429112
876.158845,344.566454,2201.396792,-8997.012976
876.162108,2335.394858,-3598.805190,-10183.852986
876.165371,2297.109696,-1378.265818,-9552.147819
876.168634,1435.693560,957.129040,-10011.569758
876.171896,19.142581,7771.887805,-8575.876198
876.175159,-306.281293,2833.101958,-9724.431046
876.178422,-689.132909,-650.847747,-9934.999435
876.181685,306.281293,1110.269686,-9111.868461
876.184948,478.564520,842.273555,-9858.429112
876.188211,1091.127106,1378.265818,-8920.442653
876.191474,1703.689691,-1646.261949,-9820.143950
876.194736,1225.125171,1148.554848,-9552.147819
876.197999,-421.136778,2565.105827,-9494.720077
876.201262,-746.560651,210.568389,-9667.003304
876.204525,-497.707101,918.843878,-9533.005238
876.207788,-497.707101,1339.980656,-9992.427178
876.211051,937.986459,1014.556782,-9437.292334
876.214314,1761.117434,191.425808,-9341.579430
876.217534,1875.972918,-19.142581,-9973.284597
876.220754,1397.408398,95.712904,-9399.007173
876.223974,229.710970,2718.246474,-9150.153622
876.227195,-555.134843,1473.978722,-9877.571693
876.230415,-861.416136,2258.824534,-9399.007173
876.233635,-650.847747,1014.556782,-9877.571693
876.236856,-421.136778,7695.317482,-8346.165229
876.240076,1244.267752,3235.096155,-9284.151688
876.243296,2622.533570,-861.416136,-9494.720077
876.246516,1684.547110,-2029.113565,-9724.431046
876.249737,1397.408398,746.560651,-9131.011042
876.252957,57.427742,2009.970984,-9207.581365
876.256177,-459.421939,-669.990328,-9992.427178
876.259398,-803.988394,2124.826469,-9207.581365
876.262618,306.281293,2277.967115,-9284.151688
876.265838,1531.406464,1205.982590,-9284.151688
876.269058,1282.552914,38.285162,-9762.716208
876.272279,1263.410333,344.566454,-9265.009107
876.275499,861.416136,689.132909,-9150.153622
876.278719,19.142581,708.275490,-10126.425243
876.281940,-612.562586,593.420005,-9705.288466
876.285160,-344.566454,153.140646,-9456.434915
876.288380,-421.136778,1837.687757,-9839.286531
876.291600,842.273555,363.709035,-9705.288466
876.294821,1512.263883,382.851616,-9035.298138
876.298041,1282.552914,497.707101,-9801.001370
876.301261,1110.269686,1378.265818,-9092.725880
876.304482,765.703232,-2143.969050,-9934.999435
876.307702,-440.279358,-2718.246474,-10107.282662
876.310922,-1301.695494,2507.678085,-9073.583299
876.314142,287.138712,2699.103893,-9188.438784
876.317363,2469.392923,-19.142581,-9226.723946
876.320551,2258.824534,1780.260014,-9571.290400
876.323739,1225.125171,6393.621987,-8690.731683
876.326927,1167.697429,5838.487144,-8480.163294
876.330115,229.710970,-995.414202,-9934.999435
876.333303,19.142581,918.843878,-9571.290400
876.336491,-133.998066,-38.285162,-10145.567824
876.339679,-382.851616,1952.543242,-8824.729749
876.342866,708.275490,-19.142581,-9992.427178
876.346054,1282.552914,1914.258080,-9226.723946
876.349242,1512.263883,669.990328,-9475.577496
876.352430,803.988394,421.136778,-9513.862658
876.355618,114.855485,-248.853550,-9552.147819
876.358806,-153.140646,2392.822600,-9781.858789
876.361994,-689.132909,535.992262,-9992.427178
876.365182,497.707101,401.994197,-9111.868461
876.368370,-38.285162,325.423874,-10107.282662
876.371558,1741.974853,2392.822600,-9245.866526
876.374746,1454.836141,-153.140646,-9533.005238
876.377934,1033.699363,995.414202,-9533.005238
876.381122,-382.851616,4058.227130,-9322.436850
876.384310,-574.277424,5245.067139,-9111.868461
876.387498,-248.853550,0.000000,-9762.716208
876.390686,-421.136778,-535.992262,-10030.712339
876.393874,287.138712,1512.263883,-9360.722011
876.397062,1473.978722,-918.843878,-9188.438784
876.400250,2029.113565,-2143.969050,-9820.143950
876.403438,1493.121302,-2565.105827,-10088.140082
876.406626,287.138712,1301.695494,-9360.722011
876.409814,-172.283227,1761.117434,-9590.432981
876.413002,-574.277424,650.847747,-9877.571693
876.416190,133.998066,-689.132909,-9934.999435
876.419378,76.570323,-344.566454,-9724.431046
876.422541,1014.556782,-191.425808,-9686.145885
876.425705,899.701298,823.130974,-9379.864592
876.428869,1339.980656,-172.283227,-9781.858789
876.432032,708.275490,593.420005,-9360.722011
876.435196,-133.998066,574.277424,-9590.432981
876.438360,-478.564520,1397.408398,-9781.858789
876.441523,-76.570323,287.138712,-9934.999435
876.444687,440.279358,823.130974,-9207.581365
876.447851,459.421939,363.709035,-9647.860723
876.451014,1741.974853,-38.285162,-9456.434915
876.454178,1607.976787,-3101.098090,-9877.571693
876.457342,1167.697429,-4058.227130,-10107.282662
876.460505,-1052.841944,3541.377448,-8977.870395
876.463669,-727.418070,3522.234867,-9418.149754
876.466833,-803.988394,2756.531635,-9322.436850
876.469997,-401.994197,1473.978722,-10049.854920
876.473160,1282.552914,5225.924558,-8729.016845
876.476324,1435.693560,-267.996131,-9418.149754
876.479488,1780.260014,765.703232,-9686.145885
876.482651,1033.699363,-1416.550979,-10356.136213
876.485815,765.703232,1646.261949,-8729.016845
876.488979,-1148.554848,2163.111630,-9533.005238
876.492142,-708.275490,1703.689691,-10068.997501
876.495306,421.136778,727.418070,-9437.292334
876.498470,1129.412267,478.564520,-9226.723946
876.501633,1588.834206,899.701298,-9494.720077
876.504797,1205.982590,-114.855485,-10049.854920
876.507961,727.418070,1339.980656,-9150.153622
876.511124,-459.421939,459.421939,-9762.716208
876.514288,-19.142581,1148.554848,-9379.864592
876.517452,-382.851616,-344.566454,-10222.138147
876.520615,-421.136778,2967.100024,-9533.005238
876.523760,899.701298,3981.656806,-8977.870395
876.526904,1799.402595,-1512.263883,-9858.429112
876.530048,2335.394858,-1435.693560,-10241.280728
876.533193,1493.121302,401.994197,-10107.282662
876.536337,-363.709035,2182.254211,-8958.727814
876.539482,-727.418070,-3866.801322,-10011.569758
876.542626,-210.568389,-5111.069074,-11026.126541
876.545770,-306.281293,-363.709035,-9896.714274
876.548915,76.570323,1244.267752,-9265.009107
876.552059,1397.408398,937.986459,-9399.007173
876.555203,1512.263883,267.996131,-9781.858789
876.558348,823.130974,2507.678085,-9188.438784
876.561492,-95.712904,842.273555,-9437.292334
876.564636,0.000000,459.421939,-9437.292334
876.567781,-344.566454,-172.283227,-9934.999435
876.570925,459.421939,2354.537438,-9571.290400
876.599224,-957.129040,1665.404530,-9609.575562
876.602369,-421.136778,4134.797453,-8346.165229
876.605513,306.281293,-2947.957443,-10413.563955
876.608657,1550.549045,1780.260014,-9667.003304
876.611802,555.134843,3598.805190,-9188.438784
876.614946,1301.695494,210.568389,-10222.138147
876.618091,-727.418070,1244.267752,-9609.575562
876.621235,-555.134843,153.140646,-9399.007173
876.649408,-440.279358,803.988394,-10011.569758
876.652539,497.707101,1761.117434,-9341.579430
876.655669,1359.123237,-593.420005,-9571.290400
876.658799,1780.260014,1282.552914,-9245.866526
876.661930,823.130974,2316.252277,-9513.862658
876.665060,1282.552914,2718.246474,-9418.149754
876.668190,-191.425808,-38.285162,-9590.432981
876.671321,-1301.695494,3158.525832,-9399.007173
876.674451,-803.988394,6451.049730,-9111.868461
876.677582,1014.556782,937.986459,-9552.147819
876.680712,1837.687757,-4421.936165,-9781.858789
876.683842,1722.832272,-3215.953574,-10049.854920
876.686973,1493.121302,535.992262,-9686.145885
876.690103,287.138712,689.132909,-9169.296203
876.693234,-95.712904,-19.142581,-9896.714274
876.696364,-899.701298,1761.117434,-9628.718142
876.699494,-497.707101,516.849682,-9915.856854
876.702625,-306.281293,1110.269686,-9628.718142
876.705755,1378.265818,631.705166,-9418.149754
876.708885,1550.549045,57.427742,-9418.149754
876.712016,957.129040,-382.851616,-9533.005238
876.715146,803.988394,574.277424,-9992.427178
876.718277,-918.843878,803.988394,-9552.147819
876.721407,-95.712904,1244.267752,-9245.866526
876.724571,-344.566454,1397.408398,-10107.282662
876.727734,267.996131,-172.283227,-9667.003304
876.730896,880.558717,-1895.115499,-9647.860723
876.734059,1301.695494,-1205.982590,-9590.432981
876.737222,823.130974,1627.119368,-9169.296203
876.740385,957.129040,-3905.086483,-10528.419440
876.743548,-248.853550,-2909.672282,-9628.718142
876.746711,-1014.556782,1033.699363,-10088.140082
876.749873,-631.705166,5742.774240,-8997.012976
876.753036,267.996131,1971.685822,-9724.431046
876.756199,995.414202,0.000000,-9820.143950
876.759362,1129.412267,1091.127106,-8843.872330
876.762525,1493.121302,555.134843,-10011.569758
876.765688,842.273555,1052.841944,-9552.147819
876.768851,0.000000,746.560651,-8997.012976
876.772013,38.285162,153.140646,-9877.571693
876.775176,-287.138712,2048.256146,-9647.860723
876.778339,114.855485,363.709035,-9934.999435
876.781502,823.130974,535.992262,-9111.868461
876.784665,1282.552914,306.281293,-9705.288466
876.787828,1033.699363,1263.410333,-9762.716208
876.790990,421.136778,76.570323,-9628.718142
876.794153,191.425808,2297.109696,-9284.151688
876.797316,-478.564520,1186.840010,-9762.716208
876.800479,-95.712904,1875.972918,-9494.720077
876.803642,-555.134843,2507.678085,-9877.571693
876.806805,1071.984525,5321.637462,-8518.448456
876.809967,1473.978722,3177.668413,-9169.296203
876.813130,2316.252277,-1033.699363,-9934.999435
876.816293,1071.984525,0.000000,-9494.720077
876.819456,-153.140646,899.701298,-8997.012976
876.822619,-401.994197,-2239.681954,-9973.284597
876.825809,-593.420005,-1914.258080,-10451.849117
876.828998,-440.279358,1454.836141,-9399.007173
876.832188,746.560651,1263.410333,-9284.151688
876.835378,1569.691626,937.986459,-9456.434915
876.838568,1320.838075,-880.558717,-9954.142016
876.841758,1761.117434,-708.275490,-9590.432981
876.844948,421.136778,1473.978722,-9169.296203
876.848137,-478.564520,612.562586,-9973.284597
876.851327,-593.420005,899.701298,-9647.860723
876.854517,76.570323,535.992262,-9743.573627
876.857707,-287.138712,1856.830338,-9226.723946
876.860897,1129.412267,727.418070,-9724.431046
876.864087,2048.256146,19.142581,-9705.288466
876.867276,1129.412267,-2699.103893,-9896.714274
876.870466,-325.423874,-1148.554848,-9533.005238
876.873656,-803.988394,1646.261949,-9360.722011
876.876846,-555.134843,746.560651,-9839.286531
876.880036,-497.707101,-2182.254211,-9934.999435
876.883225,421.136778,440.279358,-9858.429112
876.886415,1435.693560,5570.491013,-8690.731683
876.889605,1665.404530,1301.695494,-9992.427178
876.892795,1780.260014,-287.138712,-9686.145885
876.895985,708.275490,497.707101,-8958.727814
876.899175,-497.707101,1895.115499,-9954.142016
876.902388,-401.994197,784.845813,-9992.427178
876.905601,38.285162,-689.132909,-9571.290400
876.908814,-555.134843,612.562586,-9686.145885
876.912027,842.273555,1875.972918,-9379.864592
876.915240,1378.265818,842.273555,-9571.290400
876.918453,937.986459,-248.853550,-9418.149754
876.921666,535.992262,746.560651,-9341.579430
876.924879,708.275490,746.560651,-10011.569758
876.928092,-421.136778,861.416136,-9647.860723
876.931305,-727.418070,459.421939,-9590.432981
876.934518,440.279358,2316.252277,-9360.722011
876.937731,1282.552914,3101.098090,-9284.151688
876.940944,1761.117434,-803.988394,-9743.573627
876.944157,1627.119368,516.849682,-9360.722011
876.947370,497.707101,4613.361973,-9207.581365
876.950583,-38.285162,2335.394858,-9360.722011
876.953796,-401.994197,-4211.367776,-10298.708470
876.957009,-535.992262,-4039.084549,-10470.991698
876.960222,-842.273555,114.855485,-9667.003304
876.963435,1148.554848,478.564520,-9609.575562
876.966648,1397.408398,708.275490,-9628.718142
876.969861,1091.127106,267.996131,-9533.005238
876.973074,708.275490,842.273555,-9169.296203
876.976287,823.130974,-38.285162,-10164.710405
876.979500,-248.853550,1186.840010,-9552.147819
876.982713,-440.279358,440.279358,-9360.722011
876.985926,497.707101,1952.543242,-9437.292334
876.989139,1091.127106,459.421939,-9896.714274
876.992352,1225.125171,-114.855485,-9207.581365
876.995565,1627.119368,1014.556782,-9341.579430
876.998778,1167.697429,-1359.123237,-10049.854920
877.001991,-172.283227,-133.998066,-9571.290400
877.005222,-918.843878,-1205.982590,-10011.569758
877.008453,-784.845813,1837.687757,-9207.581365
877.011684,-344.566454,-3751.945837,-10528.419440
877.014915,1435.693560,-3809.373579,-10394.421374
877.018146,995.414202,1646.261949,-9418.149754
877.021377,1397.408398,2737.389054,-9418.149754
877.024608,1473.978722,1914.258080,-9571.290400
877.027839,784.845813,803.988394,-10030.712339
877.031070,-689.132909,574.277424,-9188.438784
877.034301,-650.847747,1684.547110,-9647.860723
877.037532,153.140646,-210.568389,-10662.417506
877.040763,-746.560651,1339.980656,-9035.298138
877.043994,1569.691626,612.562586,-9418.149754
877.047225,1607.976787,1205.982590,-9552.147819
877.050456,1339.980656,-153.140646,-9992.427178
877.053687,-114.855485,823.130974,-9169.296203
877.108244,-861.416136,459.421939,-9571.290400
877.111453,-191.425808,1014.556782,-9169.296203
877.114662,-727.418070,1588.834206,-9973.284597
877.117871,76.570323,555.134843,-9590.432981
877.121080,1990.828403,229.710970,-9054.440718
877.124289,1588.834206,-344.566454,-9973.284597
877.127499,631.705166,803.988394,-9647.860723
877.130708,746.560651,421.136778,-9552.147819
877.133917,-133.998066,1320.838075,-9590.432981
877.137126,-823.130974,1454.836141,-9322.436850
877.140335,267.996131,-1665.404530,-10145.567824
877.143545,957.129040,-1186.840010,-9647.860723
877.146754,650.847747,267.996131,-9513.862658
877.149963,1186.840010,3598.805190,-8250.452325
877.153172,1780.260014,401.994197,-9399.007173
877.156381,1167.697429,172.283227,-10126.425243
877.159591,-689.132909,6029.912952,-8767.302006
877.162800,0.000000,5513.063270,-8977.870395
877.166009,-574.277424,1071.984525,-9686.145885
877.169218,248.853550,38.285162,-9418.149754
877.172427,1301.695494,1588.834206,-9762.716208
877.175636,1512.263883,382.851616,-9475.577496
877.178846,823.130974,708.275490,-9016.155557
877.182055,976.271621,-57.427742,-10222.138147
877.185264,325.423874,2143.969050,-9647.860723
877.188473,-593.420005,172.283227,-9647.860723
877.191682,114.855485,1493.121302,-9035.298138
877.194892,593.420005,708.275490,-9992.427178
877.198101,1110.269686,880.558717,-9475.577496
877.201310,1320.838075,-267.996131,-9647.860723
877.204519,1282.552914,1339.980656,-9494.720077
877.207728,478.564520,3062.812928,-9418.149754
877.210918,-210.568389,-325.423874,-10145.567824
877.214107,-38.285162,1282.552914,-9801.001370
877.217296,-1071.984525,4115.654872,-9590.432981
877.220486,-287.138712,1990.828403,-9265.009107
877.223675,1531.406464,-3292.523898,-10088.140082
877.226864,1607.976787,-1225.125171,-9667.003304
877.230053,1225.125171,-306.281293,-9265.009107
877.233243,1569.691626,-57.427742,-9647.860723
877.236432,287.138712,1320.838075,-9934.999435
877.239621,-1110.269686,-248.853550,-9628.718142
877.242811,-344.566454,3139.383251,-8805.587168
877.246000,-593.420005,574.277424,-10375.278794
877.249189,1014.556782,1244.267752,-9284.151688
877.252379,1397.408398,-574.277424,-9437.292334
877.255568,1684.547110,1186.840010,-9475.577496
877.258757,-191.425808,765.703232,-9858.429112
877.261946,-421.136778,631.705166,-9475.577496
877.265136,-497.707101,-555.134843,-9801.001370
877.268325,-1033.699363,401.994197,-9801.001370
877.271514,-344.566454,784.845813,-9418.149754
877.274704,1627.119368,-1856.830338,-9762.716208
877.277893,1454.836141,-3885.943902,-10279.565890
877.281082,1282.552914,-1780.260014,-9705.288466
877.284272,1129.412267,2450.250342,-9111.868461
877.287461,-172.283227,2048.256146,-9590.432981
877.290650,-669.990328,3541.377448,-9724.431046
877.293840,-555.134843,5551.348432,-8977.870395
877.297029,-344.566454,191.425808,-9552.147819
877.300218,918.843878,1933.400661,-9092.725880
877.303407,1531.406464,-1282.552914,-10853.843314
877.306597,1761.117434,1722.832272,-8786.444587
877.309786,-133.998066,57.427742,-9169.296203
877.312961,497.707101,2067.398726,-9858.429112
877.316136,-593.420005,650.847747,-10107.282662
877.319310,-325.423874,650.847747,-8997.012976
877.322485,153.140646,842.273555,-9533.005238
877.325660,976.271621,114.855485,-10068.997501
877.328835,1091.127106,1875.972918,-9322.436850
877.332010,1301.695494,1071.984525,-9284.151688
877.335184,1550.549045,1091.127106,-9322.436850
877.338359,-382.851616,1339.980656,-10260.423309
877.341534,-899.701298,6355.336826,-8518.448456
877.344709,-650.847747,5072.783912,-8901.300072
877.347884,-555.134843,421.136778,-9954.142016
877.351058,516.849682,-708.275490,-9820.143950
877.354233,1473.978722,191.425808,-9207.581365
877.357408,1722.832272,-1895.115499,-9399.007173
877.360583,995.414202,-2794.816797,-10183.852986
877.363758,1091.127106,1454.836141,-9762.716208
877.366932,-421.136778,593.420005,-9552.147819
877.370107,-516.849682,899.701298,-9150.153622
877.373282,-401.994197,248.853550,-10183.852986
877.376457,1263.410333,1071.984525,-9705.288466
877.379632,1225.125171,727.418070,-9111.868461
877.382806,1684.547110,-535.992262,-9533.005238
877.385981,823.130974,1378.265818,-9801.001370
877.389156,-133.998066,191.425808,-9954.142016
877.392331,-708.275490,306.281293,-9111.868461
877.395506,-689.132909,-1052.841944,-10451.849117
877.398680,-516.849682,823.130974,-9590.432981
877.401855,306.281293,-535.992262,-9456.434915
877.405030,1627.119368,-5053.641331,-10528.419440
877.408205,880.558717,1416.550979,-9016.155557
877.411380,133.998066,2450.250342,-9437.292334
877.414543,937.986459,2450.250342,-9188.438784
877.417707,-574.277424,3330.809059,-9877.571693
877.420871,-497.707101,5302.494882,-9111.868461
877.424035,421.136778,229.710970,-9245.866526
877.427198,287.138712,2297.109696,-9379.864592
877.430362,1110.269686,-1071.984525,-10777.272990
877.433526,1531.406464,1435.693560,-8499.305875
877.436689,650.847747,344.566454,-9475.577496
877.439853,-593.420005,669.990328,-10356.136213
877.443017,248.853550,574.277424,-9571.290400
877.446181,-555.134843,842.273555,-9609.575562
877.449344,-593.420005,1722.832272,-9513.862658
877.452508,918.843878,133.998066,-9667.003304
877.455672,2048.256146,76.570323,-9743.573627
877.458835,746.560651,2048.256146,-9245.866526
877.461999,1531.406464,1971.685822,-9207.581365
877.465163,516.849682,229.710970,-9839.286531
877.468327,-555.134843,1665.404530,-10049.854920
877.471490,-823.130974,4996.213589,-9073.583299
877.474654,-133.998066,1186.840010,-9322.436850
877.477818,-210.568389,-3062.812928,-10298.708470
877.480982,957.129040,-2335.394858,-9992.427178
877.484145,1837.687757,-708.275490,-9188.438784
877.487309,1033.699363,248.853550,-9399.007173
877.490473,38.285162,631.705166,-10088.140082
877.493636,-172.283227,1301.695494,-9265.009107
877.496800,-516.849682,765.703232,-9686.145885
877.499964,-784.845813,1435.693560,-9877.571693
877.503128,1205.982590,-114.855485,-9437.292334
877.506291,1914.258080,1244.267752,-9131.011042
877.509455,1110.269686,-459.421939,-9820.143950
877.512619,1493.121302,1205.982590,-9111.868461
877.515808,133.998066,0.000000,-10126.425243
877.518996,-746.560651,2067.398726,-9188.438784
877.522185,-401.994197,-689.132909,-9667.003304
877.525374,-57.427742,-1895.115499,-10183.852986
877.528563,-421.136778,669.990328,-9667.003304
877.531751,1110.269686,2890.529701,-8824.729749
877.534940,2029.113565,516.849682,-8843.872330
877.538129,1014.556782,-631.705166,-10375.278794
877.592338,-516.849682,1263.410333,-10068.997501
877.595527,-95.712904,5685.346498,-8997.012976
877.598716,1914.258080,1359.123237,-9360.722011
877.601904,2048.256146,-937.986459,-9896.714274
877.605093,57.427742,1952.543242,-9111.868461
877.608282,-229.710970,-1703.689691,-9915.856854
877.611471,306.281293,-2775.674216,-10068.997501
877.614659,-918.843878,-2373.680019,-10356.136213
877.643241,-746.560651,784.845813,-10011.569758
877.646417,918.843878,1933.400661,-9016.155557
877.649593,2086.541307,-2258.824534,-9858.429112
877.652768,1818.545176,-1856.830338,-9781.858789
877.655944,76.570323,2641.676150,-9150.153622
877.659120,-344.566454,-3024.527766,-10279.565890
877.662296,153.140646,-1856.830338,-9724.431046
877.665471,-803.988394,-612.562586,-10490.134278
877.668647,-516.849682,4766.502619,-9016.155557
877.671823,1052.841944,2871.387120,-9494.720077
877.674999,1607.976787,2641.676150,-9399.007173
877.678174,1091.127106,-1627.119368,-9322.436850
877.681350,1473.978722,2431.107762,-9418.149754
877.684526,57.427742,267.996131,-10394.421374
877.687702,-593.420005,1014.556782,-8633.303941
877.690877,-306.281293,823.130974,-9667.003304
877.694053,-133.998066,1607.976787,-10088.140082
877.697229,478.564520,1052.841944,-9054.440718
877.700405,1588.834206,-38.285162,-9379.864592
877.703580,1703.689691,957.129040,-9379.864592
877.706756,248.853550,-363.709035,-10107.282662
877.709932,899.701298,1569.691626,-9284.151688
877.713108,-344.566454,3196.810994,-9284.151688
877.716283,-363.709035,19.142581,-10011.569758
877.719449,-287.138712,1493.121302,-9877.571693
877.722615,784.845813,4441.078746,-9092.725880
877.725781,133.998066,2699.103893,-9073.583299
877.728946,1665.404530,-3292.523898,-9743.573627
877.732112,1473.978722,-2603.390989,-9915.856854
877.735278,306.281293,-440.279358,-9686.145885
877.738443,-401.994197,478.564520,-9571.290400
877.741609,-172.283227,976.271621,-10088.140082
877.744775,-516.849682,325.423874,-9341.579430
877.747941,363.709035,1741.974853,-9341.579430
877.751106,1531.406464,306.281293,-9973.284597
877.754272,1550.549045,363.709035,-9169.296203
877.757438,172.283227,-593.420005,-9628.718142
877.760604,765.703232,1378.265818,-9609.575562
877.763769,-727.418070,1148.554848,-10030.712339
877.766935,-382.851616,1110.269686,-9360.722011
877.770101,-114.855485,-1397.408398,-9781.858789
877.773266,1397.408398,-1167.697429,-9724.431046
877.776432,650.847747,2392.822600,-9379.864592
877.779598,1971.685822,-1990.828403,-9552.147819
877.782764,1359.123237,-4153.940034,-10068.997501
877.785929,-191.425808,382.851616,-10068.997501
877.789095,-1110.269686,3464.807125,-9360.722011
877.792261,-957.129040,3369.094221,-9686.145885
877.795427,-880.558717,3426.521963,-9494.720077
877.798592,-191.425808,-1071.984525,-9437.292334
877.801758,1722.832272,3158.525832,-9226.723946
877.804924,1531.406464,-1167.697429,-10872.985894
877.808089,1971.685822,191.425808,-8212.167163
877.811255,727.418070,287.138712,-9839.286531
877.814421,-727.418070,1665.404530,-10336.993632
877.817587,-1014.556782,1110.269686,-9437.292334
877.820747,-210.568389,516.849682,-9399.007173
877.823905,-401.994197,2641.676150,-9456.434915
877.827063,1129.412267,669.990328,-9781.858789
877.830222,1895.115499,689.132909,-9379.864592
877.833380,1378.265818,2297.109696,-9265.009107
877.836538,421.136778,1033.699363,-9552.147819
877.839696,823.130974,-19.142581,-10298.708470
877.842854,-535.992262,1301.695494,-9877.571693
877.846013,-937.986459,2584.248408,-9226.723946
877.849171,-421.136778,-2526.820666,-9954.142016
877.852329,1512.263883,-2699.103893,-9820.143950
877.855487,1110.269686,-2124.826469,-10049.854920
877.858646,1588.834206,1971.685822,-8920.442653
877.861804,1263.410333,-1014.556782,-10107.282662
877.864962,-401.994197,842.273555,-9245.866526
877.868120,-727.418070,1339.980656,-9915.856854
877.871279,-421.136778,1052.841944,-9762.716208
877.874437,-784.845813,842.273555,-9207.581365
877.877595,306.281293,0.000000,-9762.716208
877.880753,1914.258080,1148.554848,-9379.864592
877.883912,1397.408398,-957.129040,-10145.567824
877.887070,363.709035,1263.410333,-9169.296203
877.890228,516.849682,-229.710970,-9590.432981
877.893386,-172.283227,-1454.836141,-9877.571693
877.896544,-1225.125171,-1205.982590,-10126.425243
877.899703,-478.564520,2871.387120,-8977.870395
877.902861,1780.260014,1435.693560,-8767.302006
877.906019,1339.980656,555.134843,-9915.856854
877.909177,2009.970984,4115.654872,-9092.725880
877.912336,1665.404530,3215.953574,-9341.579430
877.915494,421.136778,1282.552914,-9456.434915
877.918652,-1110.269686,-133.998066,-9379.864592
877.921838,-708.275490,1244.267752,-10892.128475
877.925024,-1014.556782,1799.402595,-9169.296203
877.928209,823.130974,-382.851616,-8748.159426
877.931395,1971.685822,631.705166,-10183.852986
877.934581,1473.978722,172.283227,-10183.852986
877.937767,1301.695494,803.988394,-8748.159426
877.940953,803.988394,133.998066,-9628.718142
877.944138,-57.427742,1416.550979,-9724.431046
877.947324,-880.558717,1339.980656,-9934.999435
877.950510,-153.140646,2871.387120,-9284.151688
877.953696,-708.275490,478.564520,-9743.573627
877.956882,1071.984525,1091.127106,-10049.854920
877.960067,1129.412267,4498.506488,-9092.725880
877.963253,1378.265818,880.558717,-9360.722011
877.966439,669.990328,-1933.400661,-9628.718142
877.969625,-976.271621,-459.421939,-9801.001370
877.972811,-306.281293,-631.705166,-9820.143950
877.975996,-574.277424,1205.982590,-9475.577496
877.979182,363.709035,401.994197,-10011.569758
877.982368,1359.123237,803.988394,-8786.444587
877.985554,1856.830338,708.275490,-9609.575562
877.988740,1378.265818,210.568389,-9839.286531
877.991926,1359.123237,-421.136778,-9092.725880
877.995111,-153.140646,899.701298,-9839.286531
877.998297,-1033.699363,1091.127106,-10030.712339
878.001483,-344.566454,669.990328,-9379.864592
878.004669,-842.273555,325.423874,-10030.712339
878.007855,918.843878,746.560651,-9360.722011
878.011040,1799.402595,-2009.970984,-9781.858789
878.014226,1703.689691,-1971.685822,-10068.997501
878.017412,-57.427742,3675.375514,-8480.163294
878.020598,-325.423874,363.709035,-9399.007173
878.023774,57.427742,995.414202,-9724.431046
878.026950,-650.847747,4019.941968,-9705.288466
878.030126,-172.283227,3828.516160,-9303.294269
878.033302,861.416136,1339.980656,-9265.009107
878.036478,1052.841944,1167.697429,-9073.583299
878.039654,1014.556782,918.843878,-10566.704602
878.042829,1473.978722,38.285162,-9207.581365
878.046005,95.712904,1167.697429,-8575.876198
878.049181,-555.134843,899.701298,-10356.136213
878.052357,-267.996131,1684.547110,-9571.290400
878.055533,-440.279358,306.281293,-9571.290400
878.058709,210.568389,2105.683888,-9054.440718
878.061885,1607.976787,440.279358,-9590.432981
878.065061,1971.685822,727.418070,-9743.573627
878.068237,1244.267752,1550.549045,-9475.577496
878.071413,1148.554848,2163.111630,-9035.298138
878.074589,229.710970,-344.566454,-10336.993632
878.077765,-1129.412267,2105.683888,-10260.423309
878.080941,-516.849682,2450.250342,-9131.011042
878.084117,-306.281293,-1780.260014,-9552.147819
878.087293,861.416136,-3043.670347,-10145.567824
878.090469,1186.840010,-1761.117434,-10068.997501
878.093645,1569.691626,1914.258080,-9150.153622
878.096821,172.283227,516.849682,-9877.571693
878.125405,2297.109696,267.996131,-8997.012976
878.128581,1263.410333,-2526.820666,-10164.710405
878.131757,-1244.267752,1971.685822,-9877.571693
878.134933,1320.838075,-4498.506488,-10604.989763
878.138109,1454.836141,-2890.529701,-9571.290400
878.141285,1244.267752,669.990328,-9360.722011
878.144460,1493.121302,2297.109696,-9705.288466
878.147636,1148.554848,4460.221326,-9513.862658
878.150836,-880.558717,4345.365842,-9245.866526
878.154036,-38.285162,-2392.822600,-9533.005238
878.157236,-440.279358,3751.945837,-9226.723946
878.160436,19.142581,-401.994197,-11447.263318
878.163636,1148.554848,2029.113565,-7925.028451
878.166836,1952.543242,-1799.402595,-9341.579430
878.170035,1607.976787,2220.539373,-10030.712339
878.173235,1052.841944,-1473.978722,-9973.284597
878.176435,172.283227,2297.109696,-8518.448456
878.179635,-727.418070,-401.994197,-10241.280728
878.182835,-689.132909,2488.535504,-9475.577496
878.186035,-823.130974,2163.111630,-9973.284597
878.189234,1033.699363,153.140646,-9399.007173
878.192434,976.271621,3081.955509,-8843.872330
878.195634,1531.406464,4173.082614,-9571.290400
878.198834,1282.552914,2277.967115,-9379.864592
878.227546,459.421939,1895.115499,-8690.731683
878.230736,-344.566454,-1033.699363,-9839.286531
878.233926,-631.705166,2947.957443,-9379.864592
878.237116,-516.849682,267.996131,-10413.563955
878.240306,689.132909,-210.568389,-9494.720077
878.243497,957.129040,-823.130974,-9092.725880
878.246687,1914.258080,-57.427742,-9437.292334
878.249877,1378.265818,-3905.086483,-10662.417506
878.253067,-287.138712,-2775.674216,-10394.421374
878.256257,-114.855485,478.564520,-9303.294269
878.259447,-1091.127106,2565.105827,-9552.147819
878.262638,-995.414202,5283.352301,-9820.143950
878.265828,-172.283227,3866.801322,-9513.862658
878.269018,1933.400661,-2143.969050,-9245.866526
878.272208,1416.550979,3503.092286,-9016.155557
878.275398,1818.545176,-1282.552914,-11083.554283
878.278589,861.416136,2029.113565,-8193.024582
878.281779,-172.283227,-746.560651,-9418.149754
878.284969,-784.845813,2699.103893,-10068.997501
878.288159,-784.845813,19.142581,-10011.569758
878.291349,-689.132909,2967.100024,-9092.725880
878.294540,727.418070,-76.570323,-9513.862658
878.297730,1952.543242,1091.127106,-9150.153622
878.300920,1416.550979,2067.398726,-10107.282662
878.304102,1741.974853,1722.832272,-8958.727814
878.307284,1225.125171,-957.129040,-9762.716208
878.310465,-708.275490,2603.390989,-9915.856854
878.313647,-1244.267752,3330.809059,-9571.290400
878.316829,-823.130974,-2603.390989,-10126.425243
878.320011,1225.125171,-995.414202,-8901.300072
878.323193,803.988394,-1473.978722,-10088.140082
878.326375,1875.972918,1741.974853,-9360.722011
878.329556,1914.258080,-918.843878,-10126.425243
878.332738,-153.140646,516.849682,-8671.589102
878.335920,-306.281293,382.851616,-10183.852986
878.339102,-1282.552914,1856.830338,-10126.425243
878.342284,-937.986459,1512.263883,-9226.723946
878.345466,421.136778,-287.138712,-9360.722011
878.348647,1703.689691,899.701298,-9207.581365
878.351829,1473.978722,248.853550,-10394.421374
878.355011,1416.550979,574.277424,-8901.300072
878.358193,1339.980656,-1933.400661,-9207.581365
878.361375,172.283227,-325.423874,-10088.140082
878.364557,-1244.267752,3196.810994,-9245.866526
878.367739,-593.420005,-114.855485,-9456.434915
878.370920,-631.705166,631.705166,-9341.579430
878.374102,306.281293,3617.947771,-9820.143950
878.377284,2067.398726,3598.805190,-9628.718142
878.380466,1473.978722,2009.970984,-9092.725880
878.383648,880.558717,-1703.689691,-8939.585234
878.386830,535.992262,937.986459,-10853.843314
878.390011,-95.712904,689.132909,-10126.425243
878.393193,-746.560651,1320.838075,-8422.735552
878.396375,-631.705166,267.996131,-10011.569758
878.399557,1665.404530,2239.681954,-9858.429112
878.402739,1990.828403,-248.853550,-9475.577496
878.405914,2067.398726,-306.281293,-9245.866526
878.409090,1512.263883,287.138712,-9418.149754
878.412265,765.703232,3273.381317,-9628.718142
878.415441,-1014.556782,1129.412267,-10107.282662
878.418616,-1033.699363,3924.229064,-8671.589102
878.421791,-937.986459,4096.512291,-9399.007173
878.424967,-478.564520,3024.527766,-9590.432981
878.428142,1263.410333,-1052.841944,-9858.429112
878.431318,1933.400661,-1971.685822,-9245.866526
878.434493,2048.256146,-2143.969050,-9456.434915
878.437669,1569.691626,-363.709035,-9934.999435
878.440844,0.000000,1646.261949,-10068.997501
878.444020,-918.843878,153.140646,-9111.868461
878.447195,153.140646,1837.687757,-8901.300072
878.450370,172.283227,325.423874,-10987.841379
878.453546,555.134843,1454.836141,-9111.868461
878.456721,1359.123237,248.853550,-8767.302006
878.459897,1914.258080,-306.281293,-9743.573627
878.463072,650.847747,1301.695494,-9820.143950
878.466248,-344.566454,-382.851616,-9973.284597
878.469423,172.283227,-765.703232,-8977.870395
878.472599,-861.416136,-1071.984525,-10394.421374
878.475774,-650.847747,4096.512291,-9092.725880
878.478949,344.566454,210.568389,-9245.866526
878.482125,1971.685822,-1091.127106,-9628.718142
878.485300,1454.836141,4096.512291,-9035.298138
878.488476,1933.400661,2813.959378,-9896.714274
878.491651,803.988394,3369.094221,-8958.727814
878.494827,-401.994197,-1837.687757,-9284.151688
878.498002,-727.418070,4211.367776,-9341.579430
878.501178,-38.285162,-1186.840010,-11313.265253
878.504353,-363.709035,1971.685822,-8020.741355
878.507523,1091.127106,-1282.552914,-10202.995566
878.510693,1665.404530,2411.965181,-9628.718142
878.513863,1110.269686,440.279358,-9743.573627
878.517032,593.420005,-133.998066,-9303.294269
878.520202,669.990328,669.990328,-9475.577496
878.523372,-593.420005,2622.533570,-10088.140082
878.526542,-708.275490,1301.695494,-9552.147819
878.529712,-210.568389,401.994197,-9992.427178
878.532882,-497.707101,3081.955509,-9399.007173
878.536052,0.000000,2316.252277,-9705.288466
878.539221,1914.258080,-2105.683888,-9801.001370
878.542391,1435.693560,-1761.117434,-9303.294269
878.545561,1071.984525,-2297.109696,-9858.429112
878.548731,-631.705166,1473.978722,-9552.147819
878.551901,-133.998066,-172.283227,-10432.706536
878.555071,-1091.127106,2105.683888,-8403.592971
878.558241,-38.285162,-38.285162,-10011.569758
878.561410,1550.549045,1837.687757,-10126.425243
878.564580,1435.693560,-689.132909,-9265.009107
878.567750,1799.402595,1205.982590,-8671.589102
878.570920,1684.547110,401.994197,-9915.856854
878.574090,459.421939,-267.996131,-10183.852986
878.577260,-784.845813,-1052.841944,-9858.429112
878.580430,-765.703232,-210.568389,-9150.153622
878.634252,325.423874,3043.670347,-9379.864592
878.637418,-937.986459,1473.978722,-10241.280728
878.640585,-1282.552914,4460.221326,-8863.014910
878.643751,-459.421939,4575.076811,-8729.016845
878.646917,-689.132909,2067.398726,-9858.429112
878.650083,1837.687757,-248.853550,-9647.860723
878.653249,2048.256146,-2622.533570,-9513.862658
878.656415,2124.826469,-3656.232933,-9647.860723
878.659581,-76.570323,650.847747,-9762.716208
878.662747,497.707101,1263.410333,-10260.423309
878.665913,-937.986459,-114.855485,-9035.298138
878.669079,-497.707101,1627.119368,-8977.870395
878.672245,0.000000,1014.556782,-10700.702667
878.675411,1703.689691,689.132909,-9437.292334
878.678577,1818.545176,708.275490,-8767.302006
878.681743,2316.252277,-440.279358,-9781.858789
878.684909,1837.687757,-267.996131,-9820.143950
878.688075,-689.132909,-229.710970,-9992.427178
878.691241,-1033.699363,95.712904,-8920.442653
878.694407,-727.418070,-3981.656806,-10547.562021
878.697573,-784.845813,-2297.109696,-10585.847182
878.700739,-957.129040,1990.828403,-9284.151688
878.703906,1550.549045,842.273555,-9360.722011
878.707072,2163.111630,4058.227130,-8882.157491
878.710242,1301.695494,1875.972918,-10490.134278
878.713406,1914.258080,-1167.697429,-9303.294269
878.716569,-363.709035,957.129040,-8863.014910
878.719732,-746.560651,2335.394858,-10777.272990
878.722895,-689.132909,-191.425808,-9781.858789
878.726058,1186.840010,899.701298,-8461.020714
878.729221,-401.994197,57.427742,-10490.134278
878.732384,1531.406464,1627.119368,-9188.438784
878.735547,1703.689691,114.855485,-9628.718142
878.738711,631.705166,708.275490,-9571.290400
878.741874,114.855485,3043.670347,-8958.727814
878.745037,535.992262,-287.138712,-10413.563955
878.748200,-1033.699363,3885.943902,-9016.155557
878.751363,-957.129040,4019.941968,-9360.722011
878.754526,765.703232,1282.552914,-9399.007173
878.757689,1933.400661,-114.855485,-9513.862658
878.760852,1550.549045,-2316.252277,-9801.001370
878.764016,2526.820666,-3369.094221,-9399.007173
878.767179,1091.127106,114.855485,-10145.567824
878.770342,-401.994197,1263.410333,-10068.997501
878.773505,-957.129040,-516.849682,-9418.149754
878.776668,-172.283227,2373.680019,-9092.725880
878.779831,-842.273555,-669.990328,-10719.845248
878.782994,1186.840010,2105.683888,-8786.444587
878.786158,1780.260014,229.710970,-9762.716208
878.789321,1914.258080,823.130974,-9131.011042
878.792484,1110.269686,-803.988394,-9896.714274
878.795647,1263.410333,-2220.539373,-10298.708470
878.798810,-650.847747,2641.676150,-8595.018779
878.801973,-746.560651,-3369.094221,-10662.417506
878.805136,-95.712904,-2986.242605,-10183.852986
878.808299,19.142581,287.138712,-10030.712339
878.811490,803.988394,2813.959378,-9131.011042
878.814680,1780.260014,5953.342629,-8671.589102
878.817870,1550.549045,3330.809059,-9839.286531
878.821060,823.130974,-2163.111630,-9399.007173
878.824250,-669.990328,2143.969050,-8882.157491
878.827441,-478.564520,727.418070,-11140.982026
878.830631,-1033.699363,842.273555,-8748.159426
878.833821,229.710970,1627.119368,-8805.587168
878.837011,1148.554848,746.560651,-10624.132344
878.840201,1875.972918,1646.261949,-8843.872330
878.843391,1741.974853,210.568389,-9552.147819
878.846582,1895.115499,1627.119368,-9379.864592
878.849772,19.142581,2335.394858,-9552.147819
878.852962,-899.701298,1454.836141,-9954.142016
878.856152,-459.421939,459.421939,-9590.432981
878.859342,-631.705166,-306.281293,-10432.706536
878.862532,-19.142581,2584.248408,-9016.155557
878.865723,803.988394,-1646.261949,-9877.571693
878.868913,1531.406464,-1780.260014,-9456.434915
878.872103,1435.693560,-1646.261949,-9513.862658
878.875293,1818.545176,2277.967115,-9801.001370
878.878483,344.566454,248.853550,-9360.722011
878.881674,-631.705166,478.564520,-8939.585234
878.884864,-516.849682,1741.974853,-10222.138147
878.888054,-325.423874,459.421939,-10375.278794
878.891244,1780.260014,1971.685822,-8480.163294
878.894434,1378.265818,-344.566454,-10030.712339
878.897624,2009.970984,95.712904,-9590.432981
878.900815,1148.554848,-899.701298,-9877.571693
878.904005,516.849682,-440.279358,-9207.581365
878.907195,-861.416136,-2029.113565,-10068.997501
878.910385,-1167.697429,-1397.408398,-10413.563955
878.913570,-918.843878,2392.822600,-8997.012976
878.916756,-382.851616,172.283227,-9858.429112
878.919941,2316.252277,3503.092286,-9150.153622
878.923126,1818.545176,2182.254211,-10202.995566
878.926312,1914.258080,344.566454,-9169.296203
878.929497,899.701298,153.140646,-8633.303941
878.932682,631.705166,937.986459,-10796.415571
878.935868,-1091.127106,957.129040,-10126.425243
878.939053,-708.275490,803.988394,-8537.591037
878.942238,-1033.699363,1952.543242,-9801.001370
878.945423,-19.142581,842.273555,-10566.704602
878.948609,1952.543242,1875.972918,-8786.444587
878.951794,2048.256146,-555.134843,-9533.005238
878.954979,1512.263883,2277.967115,-9360.722011
878.958165,1301.695494,1244.267752,-9954.142016
878.961350,765.703232,-267.996131,-9973.284597
878.964535,-1607.976787,2163.111630,-9456.434915
878.967721,-1071.984525,1971.685822,-9743.573627
878.970906,95.712904,-497.707101,-9571.290400
878.974091,-57.427742,-2163.111630,-9934.999435
878.977276,2239.681954,-1588.834206,-9418.149754
878.980462,1665.404530,1244.267752,-9647.860723
878.983647,1607.976787,-1110.269686,-10279.565890
878.986832,-727.418070,1646.261949,-8480.163294
878.990018,-1167.697429,421.136778,-10088.140082
878.993203,-1473.978722,1761.117434,-9934.999435
878.996388,-746.560651,689.132909,-9265.009107
878.999574,823.130974,1186.840010,-9265.009107
879.002759,1818.545176,-1186.840010,-9877.571693
879.005944,1818.545176,421.136778,-9360.722011
879.009130,1971.685822,-344.566454,-9609.575562
879.012315,1531.406464,-3885.943902,-9973.284597
879.015523,-689.132909,-363.709035,-9667.003304
879.018731,-1263.410333,1607.976787,-9781.858789
879.021939,-1799.402595,1454.836141,-9399.007173
879.025147,-535.992262,3388.236802,-9609.575562
879.028355,-76.570323,3254.238736,-9896.714274
879.031562,1780.260014,708.275490,-9379.864592
879.034770,1875.972918,-95.712904,-8441.878133
879.037978,784.845813,823.130974,-10892.128475
879.041186,631.705166,1148.554848,-8939.585234
879.044394,-306.281293,76.570323,-8633.303941
879.047602,-708.275490,1397.408398,-10375.278794
879.050810,-1110.269686,1129.412267,-10145.567824
879.054018,823.130974,842.273555,-9111.868461
879.057226,325.423874,2048.256146,-9322.436850
879.060434,1550.549045,1741.974853,-9915.856854
879.063642,1703.689691,3101.098090,-8920.442653
879.118525,1646.261949,-1416.550979,-9915.856854
879.121754,1607.976787,19.142581,-8786.444587
879.124982,574.277424,-4517.649069,-10566.704602
879.128211,803.988394,-2794.816797,-10107.282662
879.131439,-1263.410333,-401.994197,-10088.140082
879.134668,-880.558717,1856.830338,-9303.294269
879.137896,-803.988394,4613.361973,-9245.866526
879.141124,1550.549045,2143.969050,-10260.423309
879.144353,1607.976787,-325.423874,-9418.149754
879.147581,1646.261949,1225.125171,-8767.302006
879.150810,1129.412267,382.851616,-11045.269122
879.154038,-153.140646,440.279358,-9016.155557
879.157267,-535.992262,1646.261949,-8824.729749
879.160495,-918.843878,746.560651,-10490.134278
879.163723,-248.853550,1818.545176,-9207.581365
879.166952,-421.136778,-19.142581,-9934.999435
879.170180,1761.117434,3062.812928,-8843.872330
879.173409,1761.117434,1531.406464,-9552.147819
879.176637,1473.978722,4019.941968,-9284.151688
879.179866,669.990328,4977.071008,-8441.878133
879.183094,421.136778,516.849682,-9820.143950
879.186323,-325.423874,306.281293,-9552.147819
879.189551,-650.847747,-2354.537438,-10088.140082
879.192779,363.709035,-2794.816797,-9801.001370
879.196008,-516.849682,2067.398726,-9571.290400
879.199236,918.843878,765.703232,-10279.565890
879.202465,1282.552914,823.130974,-8327.022648
879.205693,2048.256146,-478.564520,-9513.862658
879.208922,-38.285162,1014.556782,-10547.562021
879.212150,-1014.556782,210.568389,-9571.290400
879.215378,-727.418070,1359.123237,-9150.153622
879.218607,-880.558717,172.283227,-10298.708470
879.221823,-229.710970,746.560651,-9494.720077
879.225040,1703.689691,-1186.840010,-9437.292334
879.228256,1914.258080,-3560.520029,-10107.282662
879.231473,1397.408398,-2143.969050,-10030.712339
879.234689,1378.265818,1205.982590,-9379.864592
879.237905,-95.712904,1205.982590,-9533.005238
879.241122,-1186.840010,2124.826469,-10030.712339
879.244338,-765.703232,4173.082614,-9609.575562
879.247555,-440.279358,267.996131,-9724.431046
879.250771,-172.283227,899.701298,-8595.018779
879.253987,1282.552914,976.271621,-10585.847182
879.257204,1799.402595,248.853550,-9705.288466
879.260420,325.423874,1014.556782,-8365.307810
879.263637,1148.554848,1531.406464,-9705.288466
879.266853,38.285162,1167.697429,-10107.282662
879.270069,-746.560651,57.427742,-9724.431046
879.273286,-650.847747,2756.531635,-8843.872330
879.276502,306.281293,2029.113565,-9820.143950
879.279719,38.285162,4957.928427,-9188.438784
879.282935,1512.263883,4364.508422,-8786.444587
879.286151,2277.967115,650.847747,-9150.153622
879.289368,1110.269686,650.847747,-9609.575562
879.292584,-306.281293,-1454.836141,-9992.427178
879.295801,-1052.841944,-1990.828403,-9437.292334
879.299017,-784.845813,1052.841944,-9743.573627
879.302234,-880.558717,1990.828403,-10107.282662
879.305450,1014.556782,-1014.556782,-9169.296203
879.308666,2258.824534,1856.830338,-8863.014910
879.311883,1435.693560,-957.129040,-11006.983960
879.315099,1952.543242,1091.127106,-8518.448456
879.318316,861.416136,-133.998066,-9743.573627
879.321532,-516.849682,191.425808,-9896.714274
879.324767,-1244.267752,382.851616,-9360.722011
879.328002,-191.425808,-1320.838075,-9762.716208
879.331238,-784.845813,-2239.681954,-9954.142016
879.334473,918.843878,-3560.520029,-10681.560086
879.337708,1588.834206,1607.976787,-8882.157491
879.340943,1225.125171,593.420005,-9513.862658
879.344179,1091.127106,2507.678085,-9131.011042
879.347414,803.988394,2641.676150,-9839.286531
879.350649,-248.853550,-937.986459,-9801.001370
879.353884,-1263.410333,1569.691626,-8690.731683
879.357119,19.142581,937.986459,-11102.696864
879.360355,-995.414202,1933.400661,-9150.153622
879.363590,1129.412267,-823.130974,-8786.444587
879.366825,1952.543242,1875.972918,-9705.288466
879.370060,1493.121302,172.283227,-10183.852986
879.373296,287.138712,1665.404530,-9035.298138
879.376531,-1033.699363,1052.841944,-9686.145885
879.379766,-267.996131,784.845813,-9877.571693
879.383001,-880.558717,401.994197,-10490.134278
879.386237,-669.990328,4326.223261,-9169.296203
879.389472,1110.269686,1856.830338,-8997.012976
879.392707,1971.685822,-2258.824534,-10068.997501
879.395942,1933.400661,-2890.529701,-9609.575562
879.399177,2067.398726,-5053.641331,-10432.706536
879.402430,287.138712,3713.660675,-8977.870395
879.405682,-1588.834206,-650.847747,-10738.987829
879.408935,-344.566454,1531.406464,-8346.165229
879.412187,-555.134843,-650.847747,-10738.987829
879.415440,325.423874,1473.978722,-9915.856854
879.418692,1569.691626,-267.996131,-8709.874264
879.421945,1588.834206,-248.853550,-9973.284597
879.425197,1244.267752,1301.695494,-9437.292334
879.428449,1473.978722,-2813.959378,-10298.708470
879.431702,363.709035,1014.556782,-9131.011042
879.434954,-1071.984525,2086.541307,-9303.294269
879.438207,-133.998066,-1301.695494,-10145.567824
879.441459,497.707101,-421.136778,-9781.858789
879.444712,593.420005,1627.119368,-9820.143950
879.447964,1780.260014,6776.473603,-8441.878133
879.451216,1416.550979,3790.230998,-9456.434915
879.454469,1052.841944,-1761.117434,-9207.581365
879.457721,-555.134843,1703.689691,-9207.581365
879.460974,267.996131,516.849682,-10547.562021
879.464226,-1282.552914,516.849682,-8786.444587
879.467479,-727.418070,1588.834206,-9188.438784
879.470731,823.130974,880.558717,-10432.706536
879.473983,1933.400661,1186.840010,-9226.723946
879.477236,1435.693560,574.277424,-9379.864592
879.480488,1646.261949,1225.125171,-9494.720077
879.483741,823.130974,5532.205851,-8882.157491
879.486993,-689.132909,3503.092286,-9590.432981
879.490246,-631.705166,1091.127106,-9265.009107
879.493498,-229.710970,306.281293,-9839.286531
879.496751,-95.712904,-1282.552914,-9609.575562
879.500003,727.418070,-2009.970984,-9494.720077
879.503255,2182.254211,-1014.556782,-9552.147819
879.506495,1110.269686,1703.689691,-9820.143950
879.509734,-76.570323,-1454.836141,-9705.288466
879.512973,133.998066,1741.974853,-9245.866526
879.516212,-689.132909,-95.712904,-10987.841379
879.519451,-669.990328,2143.969050,-8652.446522
879.522690,612.562586,-325.423874,-9858.429112
879.525929,1741.974853,650.847747,-9571.290400
879.529168,1397.408398,-1454.836141,-9820.143950
879.532407,1856.830338,267.996131,-9379.864592
879.535646,995.414202,-248.853550,-9207.581365
879.538885,-172.283227,-4039.084549,-10872.985894
879.542124,-899.701298,593.420005,-9533.005238
879.545364,-842.273555,1971.685822,-9820.143950
879.548603,-727.418070,6757.331022,-8824.729749
879.551842,650.847747,3847.658741,-9552.147819
879.555081,1818.545176,-2756.531635,-9628.718142
879.558320,727.418070,2526.820666,-8422.735552
879.561559,1761.117434,-574.277424,-11083.554283
879.564798,210.568389,1741.974853,-8575.876198
879.568037,-478.564520,-191.425808,-9399.007173
879.571276,-535.992262,2009.970984,-10145.567824
879.574515,95.712904,937.986459,-9877.571693
879.577754,1263.410333,1933.400661,-9131.011042
879.580993,995.414202,1933.400661,-9360.722011
879.584233,1818.545176,5015.356170,-8633.303941
879.587472,1186.840010,2488.535504,-9705.288466
879.590711,746.560651,1263.410333,-9513.862658
879.593950,-1110.269686,957.129040,-9360.722011
879.597189,-803.988394,-1378.265818,-9934.999435
879.600428,-1014.556782,-516.849682,-9418.149754
879.603667,478.564520,-1531.406464,-9801.001370
879.606906,1646.261949,3407.379382,-9284.151688
879.662227,-401.994197,4460.221326,-8671.589102
879.665481,1282.552914,-2373.680019,-11313.265253
879.668735,1359.123237,3043.670347,-7637.889739
879.671990,669.990328,-1512.263883,-10356.136213
879.675244,957.129040,2928.814862,-9322.436850
879.678498,-133.998066,306.281293,-9820.143950
879.681752,-421.136778,1493.121302,-9724.431046
879.685006,-746.560651,1952.543242,-9131.011042
879.688260,727.418070,2756.531635,-9762.716208
879.691515,0.000000,4938.785846,-8843.872330
879.694769,1339.980656,612.562586,-9571.290400
879.698023,1339.980656,-1091.127106,-9609.575562
879.701277,631.705166,-2890.529701,-9820.143950
879.704531,-440.279358,-3158.525832,-10164.710405
879.707786,-669.990328,1550.549045,-9609.575562
879.711040,-287.138712,-784.845813,-10528.419440
879.714321,-497.707101,1282.552914,-8595.018779
879.717588,1282.552914,248.853550,-9781.858789
879.720856,1320.838075,2086.541307,-9992.427178
879.724123,1148.554848,-746.560651,-9456.434915
879.727390,918.843878,-210.568389,-9533.005238
879.730657,267.996131,-650.847747,-10260.423309
879.733924,-708.275490,1129.412267,-9418.149754
879.737191,-727.418070,-2641.676150,-10202.995566
879.740459,1052.841944,-631.705166,-9265.009107
879.743726,76.570323,1129.412267,-9877.571693
879.746993,1569.691626,861.416136,-9399.007173
879.750260,1684.547110,1550.549045,-9207.581365
879.753527,555.134843,3598.805190,-9915.856854
879.756795,-1148.554848,4555.934230,-9111.868461
879.760062,-363.709035,-1129.412267,-9207.581365
879.763329,-497.707101,3522.234867,-10107.282662
879.766596,133.998066,-2048.256146,-10987.841379
879.769863,1646.261949,2450.250342,-7121.040058
879.773131,1263.410333,-1703.689691,-10777.272990
879.776398,1359.123237,2392.822600,-9341.579430
879.779665,401.994197,1875.972918,-9016.155557
879.782932,-153.140646,1071.984525,-9628.718142
879.786199,-995.414202,4862.215523,-8805.587168
879.789467,-133.998066,-1263.410333,-11236.694930
879.792734,0.000000,1933.400661,-8958.727814
879.796001,995.414202,650.847747,-9705.288466
879.799268,1607.976787,-497.707101,-9379.864592
879.802535,1186.840010,-1091.127106,-9226.723946
879.805802,1091.127106,-2679.961312,-10470.991698
879.809070,-957.129040,3847.658741,-9092.725880
879.812337,-287.138712,-1244.267752,-9724.431046
879.815604,-631.705166,3177.668413,-8652.446522
879.818882,459.421939,-842.273555,-11198.409768
879.822161,1397.408398,2086.541307,-8556.733618
879.825439,1607.976787,-1761.117434,-9686.145885
879.828718,1301.695494,382.851616,-9360.722011
879.831996,669.990328,-401.994197,-9858.429112
879.835274,-325.423874,937.986459,-9724.431046
879.838553,-765.703232,2641.676150,-8518.448456
879.841831,95.712904,-2431.107762,-10451.849117
879.845110,-478.564520,306.281293,-9705.288466
879.848388,1301.695494,2488.535504,-9322.436850
879.851666,1722.832272,6068.198114,-8556.733618
879.854945,1282.552914,4134.797453,-9245.866526
879.858223,287.138712,-1952.543242,-9705.288466
879.861502,-287.138712,2507.678085,-9571.290400
879.864780,-478.564520,-95.712904,-10968.698798
879.868058,-612.562586,1722.832272,-8250.452325
879.871337,842.273555,-708.275490,-9839.286531
879.874615,1339.980656,2086.541307,-9915.856854
879.877893,1627.119368,1875.972918,-9360.722011
879.881172,1225.125171,861.416136,-9131.011042
879.884450,421.136778,1990.828403,-9341.579430
879.887729,344.566454,-535.992262,-10700.702667
879.891007,-1033.699363,2450.250342,-9839.286531
879.894285,-114.855485,2163.111630,-9016.155557
879.897564,-555.134843,-765.703232,-9705.288466
879.900842,1186.840010,-2373.680019,-9705.288466
879.904121,1569.691626,-4039.084549,-10088.140082
879.907399,1454.836141,1990.828403,-9647.860723
879.910677,-478.564520,-765.703232,-10145.567824
879.913956,-210.568389,1722.832272,-8595.018779
879.917234,-535.992262,1703.689691,-10643.274925
879.920513,-478.564520,612.562586,-9954.142016
879.923801,1397.408398,382.851616,-8384.450390
879.927089,1512.263883,-1225.125171,-9877.571693
879.930377,1665.404530,899.701298,-9475.577496
879.933666,708.275490,708.275490,-9475.577496
879.936954,803.988394,1933.400661,-8480.163294
879.940242,-133.998066,-899.701298,-9724.431046
879.943530,-535.992262,-1110.269686,-10777.272990
879.946819,-497.707101,3617.947771,-8805.587168
879.950107,95.712904,5436.492947,-9303.294269
879.953395,1263.410333,5838.487144,-8614.161360
879.956683,1320.838075,-3062.812928,-9705.288466
879.959972,1339.980656,3330.809059,-8805.587168
879.963260,555.134843,-1531.406464,-11255.837510
879.966548,-229.710970,1703.689691,-7791.030386
879.969836,-401.994197,19.142581,-10222.138147
879.973125,-229.710970,1301.695494,-10700.702667
879.976413,1110.269686,3713.660675,-8269.594906
879.979701,995.414202,516.849682,-9896.714274
879.982989,1665.404530,5398.207786,-8135.596840
879.986277,1244.267752,-727.418070,-10815.558152
879.989566,1205.982590,1129.412267,-9686.145885
879.992854,-1416.550979,2163.111630,-9035.298138
879.996142,-823.130974,-1569.691626,-10394.421374
879.999430,-1091.127106,95.712904,-9035.298138
880.002719,1071.984525,-3215.953574,-10604.989763
880.006007,1607.976787,3445.664544,-8997.012976
880.009295,1627.119368,-3656.232933,-10145.567824
880.012583,1684.547110,2526.820666,-8461.020714
880.015872,57.427742,-1837.687757,-11619.546546
880.019160,-459.421939,3196.810994,-8384.450390
880.022448,-478.564520,-1052.841944,-9858.429112
880.025736,76.570323,-191.425808,-10011.569758
880.029033,-631.705166,-363.709035,-9858.429112
880.032330,1110.269686,-3560.520029,-10375.278794
880.035626,1512.263883,2086.541307,-8154.739421
880.038923,937.986459,133.998066,-9992.427178
880.042219,880.558717,746.560651,-9590.432981
880.045516,76.570323,1378.265818,-9858.429112
880.048813,-497.707101,3962.514226,-9552.147819
880.052109,-861.416136,3196.810994,-9284.151688
880.055406,669.990328,-1378.265818,-9379.864592
880.058702,1014.556782,3388.236802,-9494.720077
880.061999,1588.834206,-1033.699363,-10107.282662
880.065295,1167.697429,2239.681954,-7791.030386
880.068592,-76.570323,-842.273555,-10700.702667
880.071889,-133.998066,2986.242605,-9475.577496
880.075185,-497.707101,1091.127106,-9954.142016
880.078482,344.566454,1837.687757,-9016.155557
880.081778,-421.136778,2852.244539,-9494.720077
880.085075,1244.267752,4307.080680,-9667.003304
880.088372,1569.691626,2029.113565,-8805.587168
880.091668,1512.263883,-2143.969050,-10011.569758
880.094965,-57.427742,-1741.974853,-9418.149754
880.098261,-306.281293,-2603.390989,-10298.708470
880.101558,-995.414202,3560.520029,-9226.723946
880.104854,-440.279358,-153.140646,-10356.136213
880.108151,1416.550979,976.271621,-8384.450390
880.111448,1722.832272,421.136778,-9494.720077
880.114744,1856.830338,1148.554848,-9705.288466
880.118041,1129.412267,95.712904,-8958.727814
880.121337,95.712904,-1033.699363,-9647.860723
880.124634,-555.134843,401.994197,-9590.432981
880.127930,-746.560651,229.710970,-10758.130410
880.131227,918.843878,-1339.980656,-9379.864592
880.187374,-899.701298,1780.260014,-9686.145885
880.190677,516.849682,1052.841944,-9188.438784
880.193979,1607.976787,-19.142581,-8977.870395
880.197282,1416.550979,-746.560651,-9571.290400
880.200585,2354.537438,-765.703232,-9513.862658
880.203888,1359.123237,1282.552914,-9992.427178
880.207190,-325.423874,-689.132909,-9092.725880
880.210493,-823.130974,2143.969050,-8767.302006
880.213796,-516.849682,784.845813,-11102.696864
880.217099,-803.988394,1627.119368,-8901.300072
880.220402,1244.267752,-765.703232,-9035.298138
880.223704,2029.113565,-823.130974,-9609.575562
880.227007,803.988394,-382.851616,-10662.417506
880.230310,497.707101,-957.129040,-9092.725880
880.233613,612.562586,-3311.666478,-9571.290400
880.236915,-784.845813,-478.564520,-10317.851051
880.240223,-957.129040,2373.680019,-9801.001370
880.243531,937.986459,2297.109696,-9590.432981
880.246839,-306.281293,4900.500685,-8977.870395
880.250147,1684.547110,-3235.096155,-10145.567824
880.253454,1167.697429,2871.387120,-8288.737486
880.256762,746.560651,-344.566454,-11581.261384
880.260070,-593.420005,1895.115499,-8709.874264
880.263378,-133.998066,-382.851616,-8671.589102
880.266686,-325.423874,2660.818731,-10547.562021
880.269994,-440.279358,3024.527766,-9513.862658
880.273301,1320.838075,1091.127106,-9111.868461
880.276609,1339.980656,4019.941968,-8059.026517
880.279917,1339.980656,746.560651,-10528.419440
880.283225,1493.121302,803.988394,-9820.143950
880.286533,459.421939,1033.699363,-8997.012976
880.289841,-937.986459,-133.998066,-9494.720077
880.293148,-497.707101,-1282.552914,-9820.143950
880.296456,1646.261949,-3215.953574,-10241.280728
880.299764,765.703232,1282.552914,-10030.712339
880.303072,1512.263883,-1550.549045,-8997.012976
880.306380,899.701298,2258.824534,-8556.733618
880.309688,229.710970,-746.560651,-11715.259450
880.312995,-861.416136,2871.387120,-8729.016845
880.316303,-172.283227,-1320.838075,-9341.579430
880.319611,-516.849682,363.709035,-9781.858789
880.322919,-344.566454,1052.841944,-10547.562021
880.326227,1665.404530,-1512.263883,-9399.007173
880.329535,1627.119368,-3369.094221,-9169.296203
880.332842,1416.550979,-1416.550979,-10202.995566
880.336150,1091.127106,2928.814862,-9360.722011
880.339458,497.707101,3885.943902,-9418.149754
880.342766,-1071.984525,4479.363907,-9169.296203
880.346051,-172.283227,-2009.970984,-10164.710405
880.349336,-344.566454,4077.369710,-8556.733618
880.352621,1014.556782,-1091.127106,-11581.261384
880.355907,1416.550979,2009.970984,-7963.313613
880.359192,1454.836141,-1167.697429,-9035.298138
880.362477,229.710970,1607.976787,-10547.562021
880.365762,-1014.556782,2737.389054,-9456.434915
880.369047,-325.423874,-153.140646,-9609.575562
880.372332,-957.129040,5934.200048,-8001.598774
880.375618,-497.707101,3828.516160,-10222.138147
880.378903,2392.822600,1359.123237,-9571.290400
880.382188,1971.685822,-1186.840010,-9360.722011
880.385473,1684.547110,-2947.957443,-9475.577496
880.388758,1397.408398,-899.701298,-9494.720077
880.392044,727.418070,-689.132909,-10432.706536
880.395329,-765.703232,2029.113565,-9743.573627
880.398614,267.996131,-1569.691626,-9092.725880
880.401899,-95.712904,2641.676150,-9475.577496
880.405184,650.847747,-631.705166,-11236.694930
880.408470,1205.982590,1110.269686,-8346.165229
880.411755,1378.265818,-1971.685822,-9533.005238
880.415040,669.990328,535.992262,-9590.432981
880.418325,229.710970,-574.277424,-10566.704602
880.421610,-440.279358,2258.824534,-8748.159426
880.424895,-823.130974,861.416136,-8614.161360
880.428181,612.562586,-1799.402595,-10815.558152
880.431466,1435.693560,3541.377448,-9035.298138
880.434751,1780.260014,5015.356170,-9322.436850
880.438036,1186.840010,5455.635528,-8250.452325
880.441321,1205.982590,-3273.381317,-9781.858789
880.444607,57.427742,4345.365842,-9131.011042
880.447892,-401.994197,-976.271621,-11562.118803
880.451184,-153.140646,1780.260014,-7178.467800
880.454476,-593.420005,-229.710970,-10222.138147
880.457768,746.560651,2488.535504,-10451.849117
880.461061,1627.119368,2545.963246,-8748.159426
880.464353,1761.117434,-2469.392923,-9858.429112
880.467645,1607.976787,421.136778,-9437.292334
880.470937,459.421939,382.851616,-11026.126541
880.474229,-765.703232,3292.523898,-9035.298138
880.477522,-1225.125171,-1205.982590,-9571.290400
880.480814,0.000000,-4957.928427,-10451.849117
880.484106,57.427742,-1971.685822,-10202.995566
880.487398,708.275490,2565.105827,-10011.569758
880.490690,995.414202,-440.279358,-9284.151688
880.493983,1033.699363,76.570323,-8288.737486
880.497275,-95.712904,1990.828403,-10470.991698
880.500567,-842.273555,535.992262,-10566.704602
880.503859,-631.705166,937.986459,-8384.450390
880.507151,-363.709035,-1818.545176,-10222.138147
880.510444,1186.840010,1473.978722,-9781.858789
880.513736,1588.834206,-4000.799387,-10604.989763
880.517028,2029.113565,-2928.814862,-9533.005238
880.520320,861.416136,-1033.699363,-9647.860723
880.523612,957.129040,1014.556782,-10298.708470
880.526905,-727.418070,3771.088418,-9303.294269
880.530197,-803.988394,2392.822600,-10202.995566
880.533489,-516.849682,1703.689691,-9111.868461
880.536781,0.000000,689.132909,-9169.296203
880.540073,1301.695494,2488.535504,-10758.130410
880.543366,1148.554848,-1320.838075,-9590.432981
880.546658,1493.121302,1416.550979,-7637.889739
880.549950,-306.281293,325.423874,-10853.843314
880.553242,-1071.984525,3196.810994,-10107.282662
880.556514,-689.132909,-229.710970,-9360.722011
880.559785,-995.414202,3369.094221,-8824.729749
880.563057,-191.425808,5761.916821,-9131.011042
880.566329,2488.535504,248.853550,-10375.278794
880.569600,2297.109696,-287.138712,-8805.587168
880.572872,1684.547110,-4632.504554,-9839.286531
880.576143,1550.549045,-1952.543242,-9743.573627
880.579415,-133.998066,1971.685822,-9954.142016
880.582687,-650.847747,19.142581,-10624.132344
880.585958,-957.129040,803.988394,-7810.172966
880.589230,95.712904,669.990328,-10490.134278
880.592501,574.277424,2660.818731,-10604.989763
880.595773,1799.402595,-803.988394,-8652.446522
880.599044,1607.976787,-1895.115499,-9054.440718
880.602316,-153.140646,325.423874,-10049.854920
880.605588,803.988394,-3120.240670,-10892.128475
880.608859,-1225.125171,-1301.695494,-9360.722011
880.612131,-1110.269686,1071.984525,-9016.155557
880.615402,-842.273555,535.992262,-10030.712339
880.618674,2143.969050,1665.404530,-9801.001370
880.621946,1722.832272,3598.805190,-9379.864592
880.625217,1454.836141,1493.121302,-8958.727814
880.628489,976.271621,-497.707101,-8920.442653
880.631760,-382.851616,2679.961312,-10643.274925
880.635014,-516.849682,19.142581,-10719.845248
880.638268,-765.703232,1263.410333,-7618.747158
880.641522,-172.283227,248.853550,-10547.562021
880.644776,306.281293,3751.945837,-9992.427178
880.648029,1665.404530,976.271621,-9399.007173
880.651283,1301.695494,4268.795518,-7905.885870
880.654537,1339.980656,4230.510357,-9379.864592
880.657791,899.701298,1684.547110,-10279.565890
880.687075,842.273555,1703.689691,-9896.714274
880.690329,650.847747,191.425808,-8441.878133
880.693583,-440.279358,-2737.389054,-9552.147819
880.696836,-287.138712,918.843878,-9475.577496
880.700090,172.283227,-2833.101958,-11294.122672
880.703344,1416.550979,-746.560651,-9571.290400
880.706598,1129.412267,267.996131,-8652.446522
880.709852,1435.693560,-229.710970,-10011.569758
880.713105,1110.269686,2545.963246,-9762.716208
880.716359,-57.427742,3273.381317,-10260.423309
880.719613,-1033.699363,3560.520029,-8920.442653
880.722867,-708.275490,-650.847747,-8958.727814
880.726121,-114.855485,3541.377448,-10796.415571
880.729374,995.414202,-1148.554848,-10738.987829
880.732628,1722.832272,1607.976787,-6891.329088
880.735882,1320.838075,-669.990328,-10107.282662
880.765239,1282.552914,2928.814862,-9781.858789
880.768502,-421.136778,-38.285162,-11083.554283
880.771765,-1052.841944,1071.984525,-7867.600709
880.775029,-708.275490,-401.994197,-10222.138147
880.778292,-784.845813,2143.969050,-10968.698798
880.781555,689.132909,153.140646,-9379.864592
880.784818,1952.543242,-1416.550979,-8556.733618
880.788081,1818.545176,-363.709035,-9667.003304
880.791345,1014.556782,-1071.984525,-10604.989763
880.794608,1244.267752,-3101.098090,-9705.288466
880.797871,-727.418070,-1052.841944,-9360.722011
880.801134,-1550.549045,1856.830338,-9609.575562
880.804397,-459.421939,3081.955509,-10202.995566
880.807660,1665.404530,3637.090352,-9705.288466
880.810924,823.130974,-1397.408398,-9226.723946
880.814187,1665.404530,1512.263883,-8250.452325
880.817450,1454.836141,459.421939,-11389.835576
880.820713,421.136778,497.707101,-9820.143950
880.823976,-784.845813,784.845813,-8078.169098
880.827239,-689.132909,995.414202,-10490.134278
880.830503,-784.845813,4479.363907,-9781.858789
880.833766,-248.853550,555.134843,-9896.714274
880.837029,2316.252277,-689.132909,-8633.303941
880.840292,1875.972918,1301.695494,-9915.856854
880.843564,1569.691626,2890.529701,-9762.716208
880.846835,880.558717,344.566454,-9111.868461
880.850107,401.994197,-4632.504554,-9896.714274
880.853378,-803.988394,-2947.957443,-9801.001370
880.856650,-344.566454,2565.105827,-10547.562021
880.859921,497.707101,153.140646,-10164.710405
880.863193,823.130974,957.129040,-7771.887805
880.866464,1320.838075,1167.697429,-10317.851051
880.869736,1435.693560,0.000000,-10624.132344
880.873007,784.845813,114.855485,-8863.014910
880.876279,535.992262,-1531.406464,-9418.149754
880.879550,-344.566454,114.855485,-9915.856854
880.882822,-861.416136,1837.687757,-10126.425243
880.886093,-172.283227,1569.691626,-8805.587168
880.889365,1646.261949,-861.416136,-9131.011042
880.892636,2124.826469,1071.984525,-9628.718142
880.895908,1799.402595,4977.071008,-9399.007173
880.899179,1225.125171,3005.385186,-9475.577496
880.902451,287.138712,-1071.984525,-8633.303941
880.905723,-516.849682,2239.681954,-9571.290400
880.908994,-287.138712,574.277424,-11581.261384
880.912266,-497.707101,1550.549045,-8020.741355
880.915537,689.132909,-19.142581,-9341.579430
880.918809,1378.265818,2411.965181,-9858.429112
880.922080,1780.260014,631.705166,-10183.852986
880.925352,401.994197,3943.371645,-8633.303941
880.928623,746.560651,4249.652938,-8518.448456
880.931895,95.712904,1646.261949,-10202.995566
880.935166,-612.562586,-382.851616,-10298.708470
880.938438,-689.132909,-1933.400661,-9686.145885
880.941709,746.560651,-2048.256146,-8824.729749
880.944981,2029.113565,746.560651,-9456.434915
880.948260,1512.263883,287.138712,-10892.128475
880.951539,1627.119368,-555.134843,-8250.452325
880.954817,306.281293,1320.838075,-8939.585234
880.958096,-1014.556782,-229.710970,-11447.263318
880.961375,-842.273555,2507.678085,-8958.727814
880.964654,-746.560651,-1933.400661,-9896.714274
880.967933,-57.427742,3215.953574,-8748.159426
880.971212,1531.406464,-440.279358,-10298.708470
880.974491,2469.392923,-3177.668413,-10049.854920
880.977770,1741.974853,-1378.265818,-9169.296203
880.981049,1531.406464,1052.841944,-9781.858789
880.984328,-325.423874,6604.190376,-8690.731683
880.987607,-803.988394,4326.223261,-10356.136213
880.990886,-746.560651,-497.707101,-9245.866526
880.994165,861.416136,555.134843,-8307.880067
880.997443,459.421939,2105.683888,-11428.120738
881.000722,1225.125171,0.000000,-9092.725880
881.004001,2067.398726,-267.996131,-8154.739421
881.007280,229.710970,957.129040,-10432.706536
881.010559,-918.843878,4077.369710,-9820.143950
881.013838,-1416.550979,4441.078746,-8920.442653
881.017117,-401.994197,3943.371645,-8365.307810
881.020396,-612.562586,459.421939,-10088.140082
881.023675,1397.408398,708.275490,-10298.708470
881.026954,1971.685822,1684.547110,-8537.591037
881.030233,1454.836141,-2411.965181,-9073.583299
881.033512,1914.258080,38.285162,-9188.438784
881.036791,516.849682,2009.970984,-10853.843314
881.040070,-612.562586,-440.279358,-9379.864592
881.043348,-612.562586,1665.404530,-8039.883936
881.046627,-172.283227,363.709035,-11102.696864
881.049906,-363.709035,2871.387120,-9265.009107
881.053165,1588.834206,-2431.107762,-9379.864592
881.056423,1895.115499,823.130974,-8480.163294
881.059682,784.845813,-2258.824534,-10930.413637
881.062940,1493.121302,-1971.685822,-10068.997501
881.066199,-114.855485,-746.560651,-8997.012976
881.069457,-1110.269686,612.562586,-9915.856854
881.072716,-689.132909,5187.639397,-9226.723946
881.075974,1512.263883,3330.809059,-10279.565890
881.079233,669.990328,-555.134843,-9150.153622
881.082491,1301.695494,344.566454,-8193.024582
881.085750,1263.410333,1531.406464,-11026.126541
881.089008,-19.142581,669.990328,-9934.999435
881.092267,-631.705166,1186.840010,-8307.880067
881.095525,-497.707101,746.560651,-10126.425243
881.098784,-133.998066,2737.389054,-10049.854920
881.102042,-459.421939,4881.358104,-9322.436850
881.105301,1569.691626,3560.520029,-8078.169098
881.108559,1990.828403,-287.138712,-9533.005238
881.111818,1703.689691,-995.414202,-10547.562021
881.115076,861.416136,325.423874,-9131.011042
881.118334,19.142581,-1933.400661,-9169.296203
881.121593,-248.853550,76.570323,-9245.866526
881.124851,-401.994197,2182.254211,-10777.272990
881.128110,1416.550979,-535.992262,-9341.579430
881.131368,918.843878,976.271621,-8824.729749
881.134627,1665.404530,-823.130974,-10643.274925
881.137885,995.414202,2163.111630,-9016.155557
881.141144,746.560651,-2431.107762,-10202.995566
881.144402,-593.420005,2201.396792,-8729.016845
881.147661,-803.988394,746.560651,-10183.852986
881.150919,0.000000,-842.273555,-9992.427178
881.154178,-38.285162,-114.855485,-9418.149754
881.183504,1493.121302,-842.273555,-10126.425243
881.186763,-976.271621,3139.383251,-9896.714274
881.190021,937.986459,1320.838075,-9724.431046
881.193280,1837.687757,-899.701298,-10049.854920
881.196538,1569.691626,4249.652938,-8384.450390
881.199797,1301.695494,1818.545176,-9877.571693
881.203055,1282.552914,-727.418070,-10126.425243
881.206314,-957.129040,-3809.373579,-10011.569758
881.209572,-1148.554848,-4709.074877,-10049.854920
881.212831,-306.281293,4096.512291,-8958.727814
881.216089,-497.707101,-1646.261949,-11428.120738
881.219348,1071.984525,2143.969050,-7714.460062
881.222606,1895.115499,-861.416136,-9915.856854
881.225864,1627.119368,746.560651,-10260.423309
881.229123,-287.138712,823.130974,-9188.438784
881.232381,708.275490,-1646.261949,-9839.286531
881.235640,-612.562586,-2048.256146,-9705.288466
881.238898,-1110.269686,-1684.547110,-11102.696864
881.242157,-325.423874,2354.537438,-8920.442653
881.245415,2029.113565,-95.712904,-8977.870395
881.248674,1837.687757,650.847747,-9667.003304
881.251932,1856.830338,2507.678085,-9858.429112
881.255191,995.414202,2239.681954,-10030.712339
881.258449,-497.707101,-229.710970,-8595.018779
881.287918,-880.558717,1186.840010,-10241.280728
881.291192,-497.707101,2679.961312,-9379.864592
881.294466,-95.712904,-2335.394858,-9456.434915
881.297740,708.275490,-1320.838075,-9360.722011
881.301015,1014.556782,3235.096155,-10068.997501
881.304289,1856.830338,-2067.398726,-9781.858789
881.307563,746.560651,3043.670347,-7771.887805
881.310838,-574.277424,-1971.685822,-11389.835576
881.314112,-516.849682,2660.818731,-8786.444587
881.317386,-593.420005,-1665.404530,-10088.140082
881.320660,-210.568389,1531.406464,-9245.866526
881.323935,842.273555,2277.967115,-8767.302006
881.327209,2392.822600,-3407.379382,-10547.562021
881.330483,1033.699363,287.138712,-9131.011042
881.333757,1435.693560,-38.285162,-9877.571693
881.337032,555.134843,5972.485210,-8633.303941
881.340306,-421.136778,5321.637462,-9686.145885
881.343580,-631.705166,-842.273555,-10202.995566
881.346854,478.564520,1397.408398,-7886.743290
881.350129,1148.554848,478.564520,-11045.269122
881.353403,957.129040,1129.412267,-9265.009107
881.356677,1665.404530,0.000000,-8748.159426
881.359951,401.994197,1473.978722,-9915.856854
881.363226,-153.140646,1397.408398,-9781.858789
881.366506,-38.285162,-1646.261949,-10604.989763
881.369786,-1148.554848,3196.810994,-8786.444587
881.373067,-937.986459,2775.674216,-9667.003304
881.376347,1186.840010,-1014.556782,-10088.140082
881.379627,2048.256146,-3694.518094,-9743.573627
881.382907,1244.267752,-4039.084549,-10011.569758
881.386188,1359.123237,2967.100024,-9111.868461
881.389468,-401.994197,-248.853550,-10968.698798
881.392748,-784.845813,861.416136,-8461.020714
881.396028,-650.847747,957.129040,-9513.862658
881.399309,-363.709035,1493.121302,-10068.997501
881.402589,727.418070,612.562586,-9150.153622
881.405869,1473.978722,-1320.838075,-9667.003304
881.409149,2143.969050,-2220.539373,-9494.720077
881.412430,765.703232,-3254.238736,-10911.271056
881.415710,-1263.410333,708.275490,-9801.001370
881.418990,-1627.119368,1301.695494,-9150.153622
881.422271,-650.847747,842.273555,-9896.714274
881.425551,-784.845813,2794.816797,-10049.854920
881.428831,746.560651,2067.398726,-9954.142016
881.432111,1703.689691,-880.558717,-8441.878133
881.435392,1301.695494,153.140646,-10356.136213
881.438672,1263.410333,478.564520,-10528.419440
881.441952,19.142581,2086.541307,-8499.305875
881.445232,-631.705166,325.423874,-9820.143950
881.448513,-842.273555,2124.826469,-9494.720077
881.451793,-306.281293,440.279358,-10643.274925
881.455073,-229.710970,4804.787781,-8499.305875
881.458353,1703.689691,1780.260014,-8863.014910
881.461634,1550.549045,-2201.396792,-10470.991698
881.464914,957.129040,-229.710970,-9533.005238
881.468194,-669.990328,-2335.394858,-9954.142016
881.471454,-401.994197,2048.256146,-8901.300072
881.474714,-191.425808,669.990328,-10777.272990
881.477974,-229.710970,-229.710970,-9188.438784
881.481234,1607.976787,1397.408398,-8633.303941
881.484494,1493.121302,-765.703232,-10872.985894
881.487754,1454.836141,401.994197,-8690.731683
881.491014,1091.127106,-2124.826469,-10011.569758
881.494274,191.425808,-2909.672282,-10049.854920
881.497535,-803.988394,-689.132909,-10336.993632
881.500795,-1091.127106,-153.140646,-9877.571693
881.504055,-535.992262,1473.978722,-8805.587168
881.507315,382.851616,-76.570323,-10375.278794
881.510575,1875.972918,3464.807125,-9284.151688
881.513835,746.560651,3809.373579,-9437.292334
881.517095,669.990328,-1129.412267,-9360.722011
881.520355,-57.427742,2488.535504,-9571.290400
881.523615,-114.855485,-306.281293,-11255.837510
881.526875,-631.705166,3043.670347,-8288.737486
881.530135,-19.142581,172.283227,-9647.860723
881.533395,1550.549045,1531.406464,-9437.292334
881.536655,1071.984525,2143.969050,-9954.142016
881.539915,1607.976787,3426.521963,-8843.872330
881.543175,918.843878,2009.970984,-8671.589102
881.546435,95.712904,-1741.974853,-10872.985894
881.549695,-937.986459,842.273555,-9494.720077
881.552955,-1014.556782,-3273.381317,-9877.571693
881.556215,-478.564520,2239.681954,-9188.438784
881.559475,1110.269686,497.707101,-10528.419440
881.562735,1799.402595,-401.994197,-8882.157491
881.565995,1167.697429,631.705166,-8997.012976
881.569255,-248.853550,-612.562586,-10930.413637
881.572515,-38.285162,1378.265818,-8958.727814
881.575782,-555.134843,-842.273555,-10049.854920
881.579050,-823.130974,-2373.680019,-9896.714274
881.582317,363.709035,-2660.818731,-10509.276859
881.585584,1512.263883,516.849682,-9667.003304
881.588851,1205.982590,1780.260014,-8901.300072
881.592119,1780.260014,-248.853550,-9954.142016
881.595386,1244.267752,3311.666478,-9399.007173
881.598653,-555.134843,3694.518094,-9781.858789
881.601920,-727.418070,-325.423874,-8843.872330
881.605188,-440.279358,2660.818731,-9399.007173
881.608455,-382.851616,421.136778,-11255.837510
881.611722,1148.554848,2411.965181,-8020.741355
881.614989,1761.117434,210.568389,-9322.436850
881.618257,1454.836141,-95.712904,-10183.852986
881.621524,1512.263883,-229.710970,-10183.852986
881.624791,-459.421939,2507.678085,-9207.581365
881.628058,-650.847747,3388.236802,-8690.731683
881.631326,-1167.697429,-1703.689691,-10853.843314
881.634593,650.847747,-1799.402595,-9896.714274
881.637860,76.570323,-3885.943902,-9896.714274
881.641127,1416.550979,2565.105827,-9016.155557
881.644395,1071.984525,-363.709035,-10528.419440
881.647662,899.701298,229.710970,-8882.157491
881.650929,-95.712904,1263.410333,-9533.005238
881.680395,-344.566454,4326.223261,-9322.436850
881.683669,-440.279358,3962.514226,-9533.005238
881.686943,1837.687757,-1263.410333,-8939.585234
881.690217,1990.828403,2239.681954,-9437.292334
881.693491,1780.260014,-995.414202,-10738.987829
881.696765,248.853550,2947.957443,-7905.885870
881.700039,-593.420005,267.996131,-10126.425243
881.703313,-574.277424,1914.258080,-9552.147819
881.706587,-421.136778,-1741.974853,-10892.128475
881.709861,0.000000,1799.402595,-8997.012976
881.713135,535.992262,3598.805190,-8748.159426
881.716409,1761.117434,-2048.256146,-10566.704602
881.719683,1205.982590,-2641.676150,-9705.288466
881.722957,1627.119368,-4957.928427,-10356.136213
881.726230,-459.421939,3771.088418,-9073.583299
881.729504,-880.558717,-1263.410333,-10911.271056
881.732778,-248.853550,3120.240670,-8078.169098
881.736052,459.421939,-669.990328,-10222.138147
881.739326,1378.265818,1320.838075,-9494.720077
881.742600,1837.687757,-899.701298,-9303.294269
881.745874,1531.406464,-516.849682,-9762.716208
881.749148,38.285162,4019.941968,-8250.452325
881.752422,-38.285162,-1435.693560,-10432.706536
881.755696,-803.988394,133.998066,-9686.145885
881.758970,-803.988394,1014.556782,-9475.577496
881.762244,153.140646,4077.369710,-9245.866526
881.765518,1665.404530,4709.074877,-9571.290400
881.768792,1378.265818,-1665.404530,-9954.142016
881.772066,1148.554848,1588.834206,-8231.309744
881.775340,1301.695494,-459.421939,-11160.124606
881.778614,-574.277424,2086.541307,-9054.440718
881.781888,-612.562586,1186.840010,-8958.727814
881.785183,-1033.699363,1167.697429,-10107.282662
881.788462,133.998066,6297.909083,-8958.727814
881.791740,38.285162,3847.658741,-9303.294269
881.795019,2507.678085,1990.828403,-8575.876198
881.798297,1818.545176,-363.709035,-10088.140082
881.801576,784.845813,459.421939,-9647.860723
881.804855,-421.136778,-1129.412267,-9131.011042
881.808133,-478.564520,-880.558717,-9743.573627
881.811412,-555.134843,2354.537438,-10107.282662
881.814690,-76.570323,-440.279358,-9801.001370
881.817969,1378.265818,689.132909,-8633.303941
881.821247,1550.549045,-727.418070,-10509.276859
881.824526,1895.115499,650.847747,-9150.153622
881.827805,1091.127106,382.851616,-9284.151688
881.831083,248.853550,-2660.818731,-10030.712339
881.834362,-287.138712,-2737.389054,-10317.851051
881.837640,-784.845813,-459.421939,-10585.847182
881.840919,-708.275490,2297.109696,-8863.014910
881.844197,-172.283227,1512.263883,-9475.577496
881.847476,1837.687757,4134.797453,-9571.290400
881.850755,1646.261949,2316.252277,-9513.862658
881.854033,861.416136,-1646.261949,-9131.011042
881.857312,210.568389,2143.969050,-9839.286531
881.860590,-516.849682,-535.992262,-10815.558152
881.863869,-421.136778,2909.672282,-8212.167163
881.867147,-344.566454,574.277424,-10336.993632
881.870426,918.843878,3694.518094,-9150.153622
881.873704,880.558717,803.988394,-9858.429112
881.876983,2411.965181,-76.570323,-9265.009107
881.880262,1320.838075,2794.816797,-8977.870395
881.883540,-38.285162,382.851616,-10298.708470
881.886819,-555.134843,-995.414202,-9131.011042
881.890102,-593.420005,-4019.941968,-10260.423309
881.893385,-497.707101,3598.805190,-9399.007173
881.896669,612.562586,-1186.840010,-10107.282662
881.899952,1761.117434,1722.832272,-7982.456194
881.903235,995.414202,-497.707101,-10164.710405
881.906518,2086.541307,229.710970,-9437.292334
881.909802,918.843878,57.427742,-9245.866526
881.913085,-325.423874,-5302.494882,-10738.987829
881.916368,-765.703232,-210.568389,-9609.575562
881.919651,-708.275490,650.847747,-10490.134278
881.922935,-842.273555,2220.539373,-8805.587168
881.926218,612.562586,593.420005,-9686.145885
881.929501,2105.683888,3215.953574,-9628.718142
881.932784,995.414202,3675.375514,-9360.722011
881.936068,593.420005,-2297.109696,-9609.575562
881.939351,-555.134843,3292.523898,-9016.155557
881.942634,-631.705166,-765.703232,-10872.985894
881.945917,-574.277424,3235.096155,-8135.596840
881.949201,-133.998066,421.136778,-10222.138147
881.952484,1741.974853,2124.826469,-9379.864592
881.955767,1818.545176,-1129.412267,-9839.286531
881.959050,2316.252277,-516.849682,-9628.718142
881.962334,440.279358,3388.236802,-8767.302006
881.965617,-440.279358,-497.707101,-10432.706536
881.968900,-937.986459,-1780.260014,-9647.860723
881.972183,-574.277424,-4594.219392,-10432.706536
881.975467,-784.845813,2622.533570,-9399.007173
881.978750,727.418070,-708.275490,-10336.993632
881.982033,1952.543242,1416.550979,-8307.880067
881.985316,1244.267752,-401.994197,-9801.001370
881.988600,1014.556782,-497.707101,-10375.278794
881.991883,-535.992262,114.855485,-9360.722011
881.995170,-401.994197,-5111.069074,-10604.989763
881.998457,-1148.554848,57.427742,-9513.862658
882.001744,-325.423874,1052.841944,-10145.567824
882.005031,1186.840010,612.562586,-9456.434915
882.008319,1205.982590,574.277424,-9533.005238
882.011606,2297.109696,2699.103893,-9609.575562
882.014893,1339.980656,3311.666478,-9705.288466
882.018180,497.707101,-1818.545176,-9533.005238
882.021467,-861.416136,2641.676150,-9035.298138
882.024754,-555.134843,-210.568389,-10949.556218
882.028041,-1033.699363,3024.527766,-8250.452325
882.031329,631.705166,746.560651,-9915.856854
882.034616,1646.261949,2411.965181,-9303.294269
882.037903,1684.547110,-1110.269686,-10088.140082
882.041190,1052.841944,957.129040,-9801.001370
882.044477,708.275490,3235.096155,-8939.585234
882.047764,-574.277424,287.138712,-10183.852986
882.051051,-880.558717,-1837.687757,-9743.573627
882.054339,-191.425808,-4211.367776,-10336.993632
882.057626,382.851616,1895.115499,-9341.579430
882.060913,1205.982590,-382.851616,-9954.142016
882.064200,1799.402595,880.558717,-8365.307810
882.067487,1225.125171,-708.275490,-10030.712339
882.070774,440.279358,421.136778,-9992.427178
882.074062,-574.277424,210.568389,-9437.292334
882.077349,-267.996131,-3809.373579,-10451.849117
882.080636,-650.847747,-2335.394858,-10011.569758
882.083923,19.142581,248.853550,-10126.425243
882.087210,708.275490,1244.267752,-9245.866526
882.090497,1703.689691,-153.140646,-9360.722011
882.093784,1339.980656,2852.244539,-9667.003304
882.097072,1205.982590,2411.965181,-9801.001370
882.100336,76.570323,-937.986459,-9188.438784
882.103601,-440.279358,1435.693560,-9513.862658
882.106865,-57.427742,842.273555,-10662.417506
882.110130,-382.851616,2124.826469,-8671.589102
882.113394,1091.127106,1091.127106,-9456.434915
882.116659,1091.127106,4862.215523,-9035.298138
882.119923,1473.978722,1225.125171,-9571.290400
882.123188,1071.984525,-421.136778,-9877.571693
882.126452,1110.269686,1454.836141,-9245.866526
882.129717,-1014.556782,1473.978722,-9858.429112
882.132981,-765.703232,325.423874,-9379.864592
882.136246,172.283227,-2009.970984,-9686.145885
882.139510,918.843878,1473.978722,-9628.718142
882.142775,1971.685822,267.996131,-9226.723946
882.146039,1550.549045,689.132909,-8690.731683
882.149304,1359.123237,-995.414202,-10356.136213
882.152569,-727.418070,95.712904,-9839.286531
882.155833,-631.705166,1818.545176,-9284.151688
882.159098,-1110.269686,1895.115499,-9150.153622
882.162362,-344.566454,-1301.695494,-9954.142016
882.165627,1473.978722,-1186.840010,-10298.708470
882.168891,1531.406464,1741.974853,-8977.870395
882.172156,1588.834206,2679.961312,-9035.298138
882.175420,727.418070,3924.229064,-9609.575562
882.178685,727.418070,880.558717,-9705.288466
882.181949,-1091.127106,497.707101,-9035.298138
882.185214,-57.427742,2143.969050,-9494.720077
882.188478,-287.138712,1512.263883,-10241.280728
882.191743,1588.834206,1780.260014,-8595.018779
882.195007,2124.826469,-1225.125171,-9781.858789
882.198272,1531.406464,2545.963246,-9552.147819
882.201536,1110.269686,4115.654872,-9303.294269
882.230964,1703.689691,-421.136778,-9533.005238
882.234234,1091.127106,-153.140646,-9934.999435
882.237503,1263.410333,76.570323,-9303.294269
882.240773,76.570323,-4153.940034,-10356.136213
882.244043,-1148.554848,172.283227,-10049.854920
882.247312,-957.129040,574.277424,-9973.284597
882.250582,-669.990328,1091.127106,-9513.862658
882.253852,1167.697429,516.849682,-9418.149754
882.257122,1761.117434,976.271621,-9724.431046
882.260391,1914.258080,1493.121302,-9705.288466
882.263661,803.988394,-765.703232,-9284.151688
882.266931,306.281293,1129.412267,-9667.003304
882.270200,-133.998066,918.843878,-10604.989763
882.273470,-689.132909,2067.398726,-9111.868461
882.276740,440.279358,1627.119368,-9188.438784
882.280010,114.855485,5168.496816,-9131.011042
882.283279,1454.836141,3732.803256,-9245.866526
882.286549,1741.974853,-574.277424,-9686.145885
882.289819,1627.119368,1167.697429,-9016.155557
882.293088,-612.562586,1818.545176,-9571.290400
882.296358,-478.564520,937.986459,-9456.434915
882.299628,-248.853550,-650.847747,-9418.149754
882.302898,-287.138712,1569.691626,-9915.856854
882.306167,1148.554848,19.142581,-9552.147819
882.309441,1588.834206,823.130974,-8518.448456
882.312716,1722.832272,-689.132909,-10509.276859
882.315990,1148.554848,-325.423874,-9571.290400
882.319264,95.712904,842.273555,-9092.725880
882.322538,-918.843878,2469.392923,-9035.298138
882.325812,-478.564520,133.998066,-9896.714274
882.329086,-459.421939,-823.130974,-9954.142016
882.332360,497.707101,1914.258080,-9035.298138
882.335634,1665.404530,4785.645200,-8805.587168
882.338908,1512.263883,5895.914886,-9035.298138
882.342183,1148.554848,-95.712904,-9724.431046
882.345457,382.851616,1186.840010,-8882.157491
882.348731,-382.851616,631.705166,-10336.993632
882.352005,-689.132909,2201.396792,-9647.860723
882.355279,-708.275490,2258.824534,-9322.436850
882.358553,1741.974853,-114.855485,-9609.575562
882.361827,2105.683888,-363.709035,-10145.567824
882.365101,1856.830338,746.560651,-9762.716208
882.368375,689.132909,2392.822600,-8882.157491
882.371650,267.996131,-823.130974,-9686.145885
882.374924,-861.416136,-4000.799387,-10624.132344
882.378198,-880.558717,-4441.078746,-10604.989763
882.381472,-631.705166,2488.535504,-9207.581365
882.384746,248.853550,-440.279358,-10451.849117
882.388020,1339.980656,1263.410333,-8384.450390
882.391294,2048.256146,-765.703232,-9954.142016
882.394568,1837.687757,-669.990328,-9915.856854
882.397842,516.849682,2105.683888,-8939.585234
882.401117,-57.427742,-899.701298,-9762.716208
882.404391,-440.279358,-1875.972918,-9973.284597
882.407665,-421.136778,-976.271621,-10719.845248
882.410939,650.847747,1952.543242,-8843.872330
882.414217,1091.127106,3962.514226,-8920.442653
882.417495,1665.404530,2986.242605,-9552.147819
882.420772,1416.550979,401.994197,-9820.143950
882.424050,459.421939,-248.853550,-9035.298138
882.427328,19.142581,1110.269686,-10145.567824
882.430606,-1052.841944,1588.834206,-9877.571693
882.433884,-708.275490,2316.252277,-8920.442653
882.437162,708.275490,-1684.547110,-10413.563955
882.440440,1225.125171,2048.256146,-9207.581365
882.443717,1282.552914,1378.265818,-9992.427178
882.446995,1416.550979,2603.390989,-8748.159426
882.450273,650.847747,-1320.838075,-9934.999435
882.453551,153.140646,-3369.094221,-10394.421374
882.456829,-765.703232,-650.847747,-9533.005238
882.460107,-459.421939,-153.140646,-9915.856854
882.463384,-267.996131,1052.841944,-9934.999435
882.466662,1110.269686,172.283227,-8958.727814
882.469940,1531.406464,440.279358,-9265.009107
882.473218,1244.267752,-1320.838075,-10624.132344
882.476496,631.705166,2086.541307,-8920.442653
882.479774,0.000000,-1684.547110,-9973.284597
882.483051,-133.998066,-2316.252277,-9762.716208
882.486329,-708.275490,-478.564520,-10490.134278
882.489607,-19.142581,1282.552914,-9609.575562
882.492885,1339.980656,1320.838075,-9016.155557
882.496163,1818.545176,1167.697429,-10183.852986
882.499441,1359.123237,1186.840010,-9628.718142
882.502718,229.710970,-1071.984525,-9284.151688
882.505996,-133.998066,3503.092286,-9322.436850
882.509274,-229.710970,-823.130974,-11140.982026
882.512552,-210.568389,2928.814862,-8346.165229
882.515830,-114.855485,-1971.685822,-10547.562021
882.519111,1110.269686,1933.400661,-9743.573627
882.522392,957.129040,3311.666478,-9169.296203
882.525673,1512.263883,746.560651,-9399.007173
882.528954,1244.267752,-325.423874,-9399.007173
882.532236,382.851616,-3637.090352,-10892.128475
882.535517,-957.129040,-325.423874,-9111.868461
882.538798,-593.420005,937.986459,-9667.003304
882.542079,631.705166,2220.539373,-10126.425243
882.545360,248.853550,-593.420005,-9035.298138
882.548641,1895.115499,650.847747,-9226.723946
882.551922,1301.695494,-957.129040,-10643.274925
882.555203,1014.556782,2354.537438,-8671.589102
882.558485,267.996131,-3235.096155,-9973.284597
882.561766,-880.558717,-1895.115499,-10030.712339
882.565047,-861.416136,-746.560651,-10336.993632
882.568328,-421.136778,1110.269686,-9628.718142
882.571609,957.129040,2335.394858,-8939.585234
882.574890,1301.695494,421.136778,-10375.278794
882.578171,2105.683888,803.988394,-9379.864592
882.581452,880.558717,-344.566454,-8997.012976
882.584734,708.275490,1627.119368,-9877.571693
882.588015,-440.279358,1091.127106,-10222.138147
882.591296,-574.277424,2201.396792,-8863.014910
882.594577,-95.712904,-612.562586,-9781.858789
882.623909,325.423874,1110.269686,-8805.587168
882.627168,1607.976787,-497.707101,-9379.864592
882.630427,1684.547110,-38.285162,-9858.429112
882.633687,1225.125171,2029.113565,-9016.155557
882.636946,708.275490,937.986459,-8939.585234
882.640205,57.427742,-1588.834206,-9667.003304
882.643464,-574.277424,-957.129040,-10719.845248
882.646723,-842.273555,1875.972918,-9360.722011
882.649982,-114.855485,4134.797453,-8729.016845
882.653241,976.271621,3617.947771,-9686.145885
882.656500,1512.263883,-363.709035,-9839.286531
882.659760,957.129040,650.847747,-8671.589102
882.663019,114.855485,1531.406464,-9992.427178
882.666278,478.564520,2411.965181,-9265.009107
882.669537,-535.992262,1320.838075,-9437.292334
882.672796,-478.564520,1684.547110,-9954.142016
882.676055,631.705166,593.420005,-9896.714274
882.679314,1301.695494,593.420005,-9820.143950
882.682573,1148.554848,2928.814862,-8690.731683
882.685833,1435.693560,95.712904,-9475.577496
882.689092,976.271621,-3292.523898,-10126.425243
882.692351,95.712904,-2679.961312,-9896.714274
882.695610,-363.709035,2545.963246,-9705.288466
882.698869,-229.710970,363.709035,-10222.138147
882.728201,1148.554848,4249.652938,-8403.592971
882.731460,976.271621,401.994197,-10490.134278
882.734719,-497.707101,4881.358104,-9379.864592
882.737979,-267.996131,-76.570323,-9437.292334
882.741238,1473.978722,1071.984525,-9188.438784
882.744497,1703.689691,-593.420005,-10719.845248
882.747756,1741.974853,2373.680019,-8537.591037
882.751015,899.701298,-363.709035,-9379.864592
882.754278,421.136778,689.132909,-10451.849117
882.757541,-535.992262,2852.244539,-9437.292334
882.760804,-1320.838075,1780.260014,-9628.718142
882.764067,-650.847747,535.992262,-9207.581365
882.767330,248.853550,-2220.539373,-10490.134278
882.770594,1627.119368,-1301.695494,-9418.149754
882.773857,1435.693560,1014.556782,-9169.296203
882.777120,2029.113565,650.847747,-10279.565890
882.780383,325.423874,-823.130974,-9131.011042
882.783646,-650.847747,746.560651,-9169.296203
882.786909,-995.414202,57.427742,-10738.987829
882.790172,-1225.125171,2373.680019,-8997.012976
882.793435,-650.847747,2258.824534,-8595.018779
882.796698,1971.685822,38.285162,-9571.290400
882.799961,2258.824534,-689.132909,-10107.282662
882.803224,1665.404530,1052.841944,-9399.007173
882.806475,689.132909,2699.103893,-8767.302006
882.809743,153.140646,4096.512291,-9705.288466
882.813012,-995.414202,-325.423874,-10126.425243
882.816280,-1110.269686,746.560651,-8671.589102
882.819548,19.142581,1665.404530,-10241.280728
882.822816,1875.972918,1646.261949,-9533.005238
882.826084,1818.545176,1397.408398,-9035.298138
882.829353,1531.406464,3751.945837,-9226.723946
882.832621,1359.123237,2852.244539,-9092.725880
882.835889,612.562586,-153.140646,-10088.140082
882.839157,-1091.127106,1378.265818,-9341.579430
882.842426,-1110.269686,344.566454,-9628.718142
882.845694,-784.845813,-1952.543242,-9877.571693
882.848962,957.129040,-1971.685822,-9801.001370
882.852230,1148.554848,2182.254211,-9418.149754
882.855499,1205.982590,-765.703232,-9954.142016
882.858767,1339.980656,1703.689691,-8461.020714
882.862035,516.849682,-1703.689691,-10892.128475
882.865303,76.570323,574.277424,-9571.290400
882.868571,-248.853550,-3732.803256,-10164.710405
882.871840,-306.281293,-1818.545176,-10164.710405
882.875108,-689.132909,421.136778,-9839.286531
882.878376,957.129040,363.709035,-9801.001370
882.881644,1493.121302,631.705166,-9111.868461
882.884913,1071.984525,2335.394858,-9686.145885
882.888181,535.992262,4536.791650,-9379.864592
882.891449,-267.996131,-229.710970,-9379.864592
882.894717,-574.277424,2813.959378,-9188.438784
882.897985,-153.140646,-306.281293,-10758.130410
882.901254,1186.840010,2699.103893,-8729.016845
882.904522,1435.693560,401.994197,-9284.151688
882.907790,1818.545176,-1761.117434,-10738.987829
882.911062,1320.838075,1052.841944,-9552.147819
882.914334,19.142581,1646.261949,-9609.575562
882.917606,-497.707101,1071.984525,-9035.298138
882.920877,-574.277424,-2373.680019,-10490.134278
882.924149,76.570323,-1780.260014,-9877.571693
882.927421,-210.568389,1741.974853,-9456.434915
882.930693,1703.689691,1071.984525,-9973.284597
882.933965,1014.556782,-57.427742,-8767.302006
882.937236,1052.841944,-516.849682,-9533.005238
882.940508,0.000000,-574.277424,-10183.852986
882.943780,-421.136778,-2335.394858,-9934.999435
882.947052,-1359.123237,574.277424,-9092.725880
882.950324,-937.986459,2488.535504,-9360.722011
882.953596,1493.121302,57.427742,-10164.710405
882.956867,1627.119368,1110.269686,-9169.296203
882.960139,2239.681954,4019.941968,-8709.874264
882.963411,1454.836141,4383.651003,-9245.866526
882.966683,880.558717,-957.129040,-10088.140082
882.969955,-248.853550,1799.402595,-8863.014910
882.973226,-631.705166,382.851616,-10585.847182
882.976498,-555.134843,3388.236802,-8575.876198
882.979770,-57.427742,-459.421939,-9762.716208
882.983042,1646.261949,401.994197,-10241.280728
882.986314,1225.125171,3790.230998,-8843.872330
882.989586,1416.550979,746.560651,-9628.718142
882.992857,803.988394,-229.710970,-9456.434915
882.996129,133.998066,-2392.822600,-10470.991698
882.999401,-880.558717,-2258.824534,-9820.143950
883.002673,-344.566454,325.423874,-9743.573627
883.005945,746.560651,1550.549045,-10011.569758
883.009217,1397.408398,-1550.549045,-9379.864592
883.012488,1895.115499,976.271621,-8939.585234
883.015763,1435.693560,-1665.404530,-10796.415571
883.019038,746.560651,880.558717,-9092.725880
883.022313,-1205.982590,2067.398726,-8863.014910
883.025588,-421.136778,2565.105827,-9379.864592
883.028862,-937.986459,-344.566454,-10088.140082
883.032137,-38.285162,650.847747,-9762.716208
883.035412,1780.260014,4249.652938,-8575.876198
883.038687,1818.545176,1914.258080,-10107.282662
883.041962,1856.830338,-172.283227,-9418.149754
883.045236,1167.697429,-153.140646,-9245.866526
883.048511,-133.998066,1550.549045,-10126.425243
883.051786,-1052.841944,1818.545176,-9667.003304
883.055061,-401.994197,555.134843,-9341.579430
883.058336,114.855485,2545.963246,-9552.147819
883.061611,153.140646,3637.090352,-9418.149754
883.064885,1473.978722,2163.111630,-9169.296203
883.068160,1359.123237,-1550.549045,-9896.714274
883.071435,1397.408398,-1454.836141,-9590.432981
883.074710,-593.420005,-3005.385186,-10202.995566
883.077985,114.855485,937.986459,-9494.720077
883.081259,-1129.412267,957.129040,-10241.280728
883.084534,267.996131,-57.427742,-9379.864592
883.087809,937.986459,689.132909,-8977.870395
883.091084,1703.689691,-1607.976787,-10432.706536
883.094359,1646.261949,-172.283227,-9111.868461
883.097634,765.703232,1512.263883,-8997.012976
883.100908,363.709035,1895.115499,-8863.014910
883.104183,0.000000,-708.275490,-10375.278794
883.107458,-267.996131,1933.400661,-9781.858789
883.110733,-172.283227,3292.523898,-9054.440718
883.114008,1014.556782,2584.248408,-9628.718142
883.117282,1110.269686,382.851616,-9705.288466
883.120535,1493.121302,-555.134843,-9322.436850
883.123787,401.994197,2067.398726,-9801.001370
883.127040,689.132909,1684.547110,-9360.722011
883.130293,-153.140646,516.849682,-9169.296203
883.133545,-803.988394,-421.136778,-10815.558152
883.136798,-172.283227,4862.215523,-9092.725880
883.140050,153.140646,1741.974853,-9245.866526
883.143303,2067.398726,-1473.978722,-9552.147819
883.146555,1703.689691,-2392.822600,-9896.714274
883.149808,1914.258080,-4402.793584,-10528.419440
883.153060,440.279358,823.130974,-9131.011042
883.156313,-842.273555,612.562586,-10394.421374
883.159565,-650.847747,1225.125171,-9437.292334
883.162818,-382.851616,-306.281293,-9475.577496
883.166070,861.416136,-669.990328,-10183.852986
883.169323,1359.123237,-727.418070,-9609.575562
883.172575,1454.836141,1607.976787,-8671.589102
883.175828,612.562586,1646.261949,-8920.442653
883.179080,1071.984525,-382.851616,-10298.708470
883.182333,-287.138712,1665.404530,-9533.005238
883.185585,-555.134843,2603.390989,-9322.436850
883.188838,-497.707101,3464.807125,-9475.577496
883.192090,516.849682,-172.283227,-9973.284597
883.195343,1646.261949,2316.252277,-8843.872330
883.224660,-899.701298,-287.138712,-10088.140082
883.227917,-478.564520,-248.853550,-9265.009107
883.231174,-248.853550,1435.693560,-10107.282662
883.234432,1454.836141,1033.699363,-9379.864592
883.237689,1646.261949,-574.277424,-8882.157491
883.240946,1627.119368,-555.134843,-10202.995566
883.244204,-267.996131,1914.258080,-9628.718142
883.247461,574.277424,880.558717,-8939.585234
883.250719,-497.707101,-1569.691626,-9801.001370
883.253976,-689.132909,-172.283227,-10164.710405
883.257233,76.570323,1761.117434,-9552.147819
883.260491,1416.550979,1512.263883,-9092.725880
883.263748,1416.550979,3847.658741,-9131.011042
883.267006,1033.699363,765.703232,-9820.143950
883.270263,1225.125171,861.416136,-8920.442653
883.273520,-459.421939,1129.412267,-9973.284597
883.276778,-478.564520,1225.125171,-10049.854920
883.280035,-478.564520,765.703232,-9016.155557
883.283293,-459.421939,1588.834206,-10241.280728
883.286550,382.851616,4402.793584,-8997.012976
883.289807,2124.826469,650.847747,-9533.005238
883.293065,1301.695494,153.140646,-9418.149754
883.296322,497.707101,-957.129040,-9647.860723
883.299579,1225.125171,-2813.959378,-10030.712339
883.302837,-1071.984525,516.849682,-9475.577496
883.306094,-421.136778,1397.408398,-10183.852986
883.309352,0.000000,593.420005,-9399.007173
883.312609,1703.689691,-267.996131,-9073.583299
883.315866,1129.412267,-421.136778,-9934.999435
883.319124,1837.687757,-1225.125171,-9820.143950
883.322381,746.560651,1933.400661,-8748.159426
883.325639,-153.140646,1186.840010,-9437.292334
883.328900,-57.427742,133.998066,-9973.284597
883.332160,-497.707101,1071.984525,-9820.143950
883.335421,-153.140646,2507.678085,-9571.290400
883.338682,95.712904,3522.234867,-9284.151688
883.341943,1244.267752,-612.562586,-9801.001370
883.345204,995.414202,1569.691626,-8977.870395
883.348465,1646.261949,-727.418070,-10413.563955
883.351726,631.705166,2679.961312,-8786.444587
883.354987,-459.421939,1627.119368,-9762.716208
883.358248,-401.994197,191.425808,-10011.569758
883.361509,-57.427742,1550.549045,-9820.143950
883.364770,-76.570323,1416.550979,-9609.575562
883.368031,267.996131,1416.550979,-9016.155557
883.371292,1837.687757,-2105.683888,-10030.712339
883.374553,1359.123237,-3522.234867,-9954.142016
883.377814,344.566454,363.709035,-9667.003304
883.381075,267.996131,1148.554848,-9705.288466
883.384336,-516.849682,593.420005,-9265.009107
883.387597,-669.990328,267.996131,-9533.005238
883.390858,689.132909,210.568389,-10011.569758
883.394119,2182.254211,-2622.533570,-9762.716208
883.397380,1167.697429,-2488.535504,-9399.007173
883.400641,1933.400661,-593.420005,-9820.143950
883.403902,555.134843,1129.412267,-9647.860723
883.407163,-842.273555,2507.678085,-9628.718142
