#time,accel_x,accel_y,accel_z
7129.817960,421.136778,459.421939,-9839.286531
7129.820511,555.134843,689.132909,-9781.858789
7129.823062,459.421939,861.416136,-9877.571693
7129.825613,421.136778,612.562586,-9896.714274
7129.828164,497.707101,631.705166,-9762.716208
7129.830715,478.564520,823.130974,-9781.858789
7129.833265,478.564520,631.705166,-9896.714274
7129.835816,382.851616,650.847747,-9801.001370
7129.838367,478.564520,650.847747,-9801.001370
7129.840918,516.849682,1186.840010,-9724.431046
7129.843469,1569.691626,325.423874,-9839.286531
7129.846020,153.140646,995.414202,-9647.860723
7129.848571,3426.521963,497.707101,-9877.571693
7129.851122,4728.217458,784.845813,-9686.145885
7129.853672,-421.136778,-133.998066,-10088.140082
7129.856223,-1110.269686,1722.832272,-9494.720077
7129.858774,133.998066,114.855485,-9992.427178
7129.861325,2584.248408,746.560651,-9858.429112
7129.863750,2756.531635,612.562586,-9647.860723
7129.866174,153.140646,1837.687757,-10068.997501
7129.868599,1110.269686,-1320.838075,-9647.860723
7129.871024,-3885.943902,1397.408398,-9418.149754
7129.873448,-1875.972918,2852.244539,-10528.419440
7129.875873,3732.803256,-2220.539373,-10470.991698
7129.878298,-229.710970,3062.812928,-8767.302006
7129.880722,-918.843878,-2029.113565,-10107.282662
7129.883147,-153.140646,2737.389054,-9667.003304
7129.885572,-4460.221326,478.564520,-10738.987829
7129.887996,1569.691626,-880.558717,-9724.431046
7129.890421,3598.805190,2794.816797,-9111.868461
7129.892845,-918.843878,-631.705166,-10662.417506
7129.895270,-2603.390989,1052.841944,-9456.434915
7129.897695,-1952.543242,1225.125171,-9513.862658
7129.900119,1339.980656,76.570323,-10624.132344
7129.902544,1148.554848,1493.121302,-9667.003304
7129.904969,-248.853550,-191.425808,-9858.429112
7129.907393,-172.283227,574.277424,-9341.579430
7129.909818,669.990328,1320.838075,-9647.860723
7129.912243,-401.994197,363.709035,-10509.276859
7129.914667,-1761.117434,1225.125171,-9877.571693
7129.917092,-1263.410333,1244.267752,-9073.583299
7129.919517,1186.840010,-114.855485,-10049.854920
7129.921941,1225.125171,1665.404530,-9858.429112
7129.924366,-2086.541307,-287.138712,-10317.851051
7129.926791,-1550.549045,1722.832272,-9169.296203
7129.929215,765.703232,95.712904,-9762.716208
7129.931640,823.130974,1129.412267,-10164.710405
7129.934065,765.703232,-382.851616,-9934.999435
7129.936489,-325.423874,1473.978722,-9399.007173
7129.938914,-2105.683888,2871.387120,-9667.003304
7129.941339,-3445.664544,-3445.664544,-10585.847182
7129.943763,2335.394858,4555.934230,-8709.874264
7129.946188,1014.556782,-19.142581,-10375.278794
7129.948612,2277.967115,-1244.267752,-9896.714274
7129.951037,-1186.840010,6317.051664,-8441.878133
7129.953462,861.416136,-4977.071008,-11485.548480
7129.955886,287.138712,4919.643266,-9016.155557
7129.958311,631.705166,-2679.961312,-10528.419440
7129.960774,4613.361973,2507.678085,-9131.011042
7129.963242,1378.265818,1722.832272,-9781.858789
7129.965711,-3637.090352,-2297.109696,-10470.991698
7129.968180,1588.834206,3828.516160,-8920.442653
7129.970648,3790.230998,612.562586,-10604.989763
7129.973117,1703.689691,-1627.119368,-10298.708470
7129.975585,344.566454,3771.088418,-8997.012976
7129.978054,3158.525832,-2029.113565,-9934.999435
7129.980522,-957.129040,2660.818731,-9667.003304
7129.982991,1167.697429,-1033.699363,-10700.702667
7129.985459,1799.402595,1569.691626,-8920.442653
7129.987928,325.423874,1244.267752,-9743.573627
7129.990396,-248.853550,-267.996131,-10068.997501
7129.992865,2622.533570,2163.111630,-9801.001370
7129.995333,1301.695494,172.283227,-10030.712339
7129.997802,1990.828403,574.277424,-9533.005238
7130.000270,-650.847747,1110.269686,-9590.432981
7130.002739,-459.421939,-287.138712,-9934.999435
7130.005208,3005.385186,1722.832272,-9628.718142
7130.007676,2316.252277,535.992262,-10222.138147
7130.010145,-191.425808,-535.992262,-9781.858789
7130.012613,3254.238736,2813.959378,-8939.585234
7130.015082,823.130974,-976.271621,-10528.419440
7130.017550,1550.549045,516.849682,-9934.999435
7130.020019,3196.810994,1914.258080,-9150.153622
7130.022487,-1091.127106,-1512.263883,-10700.702667
7130.024956,-1703.689691,3522.234867,-9054.440718
7130.027424,4728.217458,-1856.830338,-9896.714274
7130.029893,746.560651,1856.830338,-9724.431046
7130.032361,-746.560651,2258.824534,-10375.278794
7130.034830,4000.799387,-3062.812928,-10336.993632
7130.037298,-1703.689691,3292.523898,-8633.303941
7130.039767,1493.121302,191.425808,-10279.565890
7130.042236,3369.094221,-1339.980656,-10375.278794
7130.044704,-1186.840010,5359.922624,-8920.442653
7130.047173,516.849682,-5551.348432,-11083.554283
7130.049641,-3464.807125,4613.361973,-8307.880067
7130.052110,2565.105827,-1091.127106,-11619.546546
7130.054578,-19.142581,612.562586,-9475.577496
7130.057047,-1780.260014,3962.514226,-9111.868461
7130.059546,1359.123237,-3522.234867,-10394.421374
7130.062045,-1091.127106,2373.680019,-9131.011042
7130.064545,-4575.076811,2277.967115,-10451.849117
7130.067044,4460.221326,-3043.670347,-10566.704602
7130.069543,1129.412267,5053.641331,-8039.883936
7130.072042,-3215.953574,-3388.236802,-10987.841379
7130.074542,172.283227,3120.240670,-9609.575562
7130.077041,-229.710970,229.710970,-9973.284597
7130.079540,-76.570323,-937.986459,-10509.276859
7130.082039,2871.387120,3617.947771,-8595.018779
7130.084539,784.845813,-2239.681954,-10796.415571
7130.087038,-3005.385186,2201.396792,-9150.153622
7130.089537,-1148.554848,574.277424,-9533.005238
7130.092036,1416.550979,57.427742,-10432.706536
7130.094536,1052.841944,2507.678085,-9686.145885
7130.097035,-631.705166,-976.271621,-10202.995566
7130.099534,440.279358,2105.683888,-9169.296203
7130.102033,-1225.125171,-229.710970,-10356.136213
7130.104533,-1014.556782,957.129040,-10183.852986
7130.107032,-1071.984525,1588.834206,-9571.290400
7130.109531,1435.693560,-382.851616,-9781.858789
7130.112031,-3215.953574,440.279358,-9533.005238
7130.114530,-1186.840010,1129.412267,-9762.716208
7130.117029,3043.670347,478.564520,-10317.851051
7130.119528,708.275490,2143.969050,-9781.858789
7130.122028,-3675.375514,-2163.111630,-9896.714274
7130.124527,-344.566454,3024.527766,-8173.882002
7130.127026,-535.992262,2354.537438,-10413.563955
7130.129525,-2584.248408,-3598.805190,-11370.692995
7130.132025,2450.250342,4996.213589,-7829.315547
7130.134524,784.845813,-210.568389,-10049.854920
7130.137023,57.427742,-1473.978722,-10202.995566
7130.139522,-1129.412267,6891.329088,-8518.448456
7130.142022,1569.691626,-5474.778109,-11791.829773
7130.144521,3005.385186,5187.639397,-8193.024582
7130.147020,325.423874,-4326.223261,-10662.417506
7130.149519,3101.098090,1933.400661,-9073.583299
7130.152019,612.562586,3675.375514,-9552.147819
7130.154518,-2947.957443,-4134.797453,-11428.120738
7130.157017,2143.969050,5283.352301,-8575.876198
7130.159536,4096.512291,19.142581,-10164.710405
7130.162056,1320.838075,-2909.672282,-10375.278794
7130.164575,-689.132909,5666.203917,-8461.020714
7130.167094,708.275490,-2909.672282,-10815.558152
7130.169613,1780.260014,2048.256146,-9973.284597
7130.172132,2373.680019,-19.142581,-9705.288466
7130.174651,3464.807125,1186.840010,-9265.009107
7130.177170,-114.855485,516.849682,-9686.145885
7130.179689,-937.986459,516.849682,-9992.427178
7130.182208,1052.841944,1741.974853,-10490.134278
7130.184728,1818.545176,555.134843,-9858.429112
7130.187247,1320.838075,-38.285162,-9207.581365
7130.189766,555.134843,957.129040,-9513.862658
7130.192285,593.420005,325.423874,-9877.571693
7130.194804,1071.984525,1148.554848,-10068.997501
7130.197323,3445.664544,1665.404530,-9801.001370
7130.199842,1799.402595,-344.566454,-9513.862658
7130.202361,2086.541307,535.992262,-9475.577496
7130.204881,1359.123237,1397.408398,-9705.288466
7130.207400,1129.412267,229.710970,-10681.560086
7130.209919,-497.707101,1588.834206,-9820.143950
7130.212438,-612.562586,535.992262,-9437.292334
7130.214957,6163.911018,76.570323,-8958.727814
7130.217476,3005.385186,-574.277424,-10336.993632
7130.219995,-3407.379382,2526.820666,-10566.704602
7130.222514,1512.263883,325.423874,-8939.585234
7130.225034,1263.410333,689.132909,-9360.722011
7130.227553,3560.520029,-306.281293,-10662.417506
7130.230072,727.418070,995.414202,-9150.153622
7130.232591,-325.423874,1722.832272,-9762.716208
7130.235110,-3828.516160,-1110.269686,-10068.997501
7130.237629,-1627.119368,4957.928427,-9265.009107
7130.240148,2124.826469,-2392.822600,-10298.708470
7130.242667,516.849682,3273.381317,-8882.157491
7130.245187,210.568389,-1205.982590,-10643.274925
7130.247706,-2067.398726,1129.412267,-9552.147819
7130.250225,746.560651,2220.539373,-9303.294269
7130.252744,-3120.240670,-401.994197,-11140.982026
7130.255263,2469.392923,1512.263883,-8824.729749
7130.257782,3062.812928,1378.265818,-9188.438784
7130.260317,-4402.793584,-1550.549045,-11198.409768
7130.262851,-3330.809059,4058.227130,-9303.294269
7130.265385,727.418070,-2316.252277,-10241.280728
7130.267920,803.988394,1895.115499,-9360.722011
7130.270454,1378.265818,1895.115499,-9322.436850
7130.272988,708.275490,-1646.261949,-10815.558152
7130.275523,-1627.119368,2967.100024,-9188.438784
7130.278057,-1416.550979,-669.990328,-9992.427178
7130.280592,1588.834206,1129.412267,-10030.712339
7130.283126,803.988394,976.271621,-9973.284597
7130.285660,-1359.123237,669.990328,-9513.862658
7130.288195,-344.566454,1435.693560,-9341.579430
7130.290729,-2833.101958,-95.712904,-10566.704602
7130.293263,-153.140646,1454.836141,-9801.001370
7130.295798,-2488.535504,-401.994197,-9724.431046
7130.298332,-976.271621,1301.695494,-9647.860723
7130.300867,3005.385186,765.703232,-9877.571693
7130.303401,650.847747,957.129040,-10068.997501
7130.305935,-1052.841944,76.570323,-9762.716208
7130.308470,-2584.248408,1167.697429,-9379.864592
7130.311004,1435.693560,803.988394,-10279.565890
7130.313539,-1895.115499,-1818.545176,-11026.126541
7130.316073,2450.250342,3503.092286,-8480.163294
7130.318607,-76.570323,1148.554848,-9533.005238
7130.321142,-1703.689691,-2679.961312,-10509.276859
7130.323676,2239.681954,5876.772306,-8729.016845
7130.326210,574.277424,-4689.932296,-11370.692995
7130.328745,2565.105827,3962.514226,-8920.442653
7130.331279,1971.685822,1550.549045,-9781.858789
7130.333814,3311.666478,-363.709035,-9207.581365
7130.336348,650.847747,6068.198114,-8977.870395
7130.338882,-1493.121302,-6489.334891,-12098.111066
7130.341417,1512.263883,6355.336826,-7714.460062
7130.343951,3924.229064,-784.845813,-9973.284597
7130.346485,2794.816797,-1550.549045,-10604.989763
7130.349020,-267.996131,4728.217458,-8480.163294
7130.351554,-650.847747,-2928.814862,-10949.556218
7130.354089,1588.834206,2967.100024,-9456.434915
7130.356623,3809.373579,593.420005,-10164.710405
7130.359157,1780.260014,-1282.552914,-9896.714274
7130.361701,344.566454,2967.100024,-8537.591037
7130.364245,440.279358,-727.418070,-10490.134278
7130.366789,1033.699363,574.277424,-10088.140082
7130.369333,1320.838075,2220.539373,-9590.432981
7130.371877,344.566454,-842.273555,-10145.567824
7130.374421,-114.855485,1244.267752,-9073.583299
7130.376965,1780.260014,880.558717,-9801.001370
7130.379509,1914.258080,114.855485,-10528.419440
7130.382053,1665.404530,1914.258080,-9513.862658
7130.384598,3369.094221,-899.701298,-9724.431046
7130.387142,3330.809059,1378.265818,-9169.296203
7130.389686,-1014.556782,-19.142581,-10279.565890
7130.392230,-191.425808,1320.838075,-9973.284597
7130.394774,-401.994197,1359.123237,-9743.573627
7130.397318,5034.498750,-497.707101,-9801.001370
7130.399862,3388.236802,555.134843,-9475.577496
7130.402406,-2469.392923,3158.525832,-10164.710405
7130.404950,-669.990328,382.851616,-9245.866526
7130.407494,976.271621,1225.125171,-9207.581365
7130.410038,4077.369710,-287.138712,-11274.980091
7130.412582,459.421939,918.843878,-9245.866526
7130.415126,229.710970,1416.550979,-9073.583299
7130.417670,-3885.943902,-803.988394,-10011.569758
7130.420214,-1990.828403,5206.781978,-9590.432981
7130.422758,3349.951640,-3139.383251,-11255.837510
7130.425302,746.560651,1627.119368,-8729.016845
7130.427846,459.421939,-2067.398726,-10183.852986
7130.430390,-1569.691626,1301.695494,-9379.864592
7130.432934,267.996131,2335.394858,-9686.145885
7130.435478,-3981.656806,-191.425808,-11274.980091
7130.438022,2373.680019,1148.554848,-8958.727814
7130.440566,2967.100024,1837.687757,-8748.159426
7130.443110,-3158.525832,-1627.119368,-10968.698798
7130.445654,-1799.402595,3445.664544,-9035.298138
7130.448198,-1435.693560,-555.134843,-10758.130410
7130.450742,-669.990328,344.566454,-9609.575562
7130.453286,1378.265818,995.414202,-9437.292334
7130.455830,976.271621,-1646.261949,-10432.706536
7130.458374,-1416.550979,3330.809059,-9111.868461
7130.460918,727.418070,-650.847747,-10528.419440
7130.463470,306.281293,842.273555,-9992.427178
7130.466021,823.130974,880.558717,-9379.864592
7130.468573,-1052.841944,-248.853550,-9934.999435
7130.471125,-1665.404530,1550.549045,-9379.864592
7130.473677,-1416.550979,918.843878,-10088.140082
7130.476228,-2086.541307,1244.267752,-9839.286531
7130.478780,-823.130974,459.421939,-9801.001370
7130.481332,3732.803256,57.427742,-9781.858789
7130.483884,2469.392923,2584.248408,-9207.581365
7130.486435,-3235.096155,-2411.965181,-10777.272990
7130.488987,-2641.676150,3483.949706,-8709.874264
7130.491539,1148.554848,1129.412267,-9858.429112
7130.494091,-1512.263883,-2890.529701,-11294.122672
7130.496642,2469.392923,4287.938099,-8020.741355
7130.499194,746.560651,555.134843,-10241.280728
7130.501746,-746.560651,-1359.123237,-10719.845248
7130.504298,-1722.832272,6833.901346,-8327.022648
7130.506849,2909.672282,-5723.631659,-11600.403965
7130.509401,4000.799387,5149.354235,-8709.874264
7130.511953,133.998066,-2239.681954,-10451.849117
7130.514505,3177.668413,-114.855485,-9226.723946
7130.517056,574.277424,5819.344563,-9073.583299
7130.519608,-1741.974853,-6527.620053,-12040.683323
7130.522160,765.703232,6431.907149,-7714.460062
7130.524712,4211.367776,-861.416136,-10241.280728
7130.527263,3177.668413,-1225.125171,-10470.991698
7130.529815,-1263.410333,4307.080680,-8958.727814
7130.532367,-1129.412267,-2699.103893,-10375.278794
7130.534919,1244.267752,3043.670347,-9265.009107
7130.537470,5627.918755,-95.712904,-10432.706536
7130.540022,1473.978722,-38.285162,-9781.858789
7130.542574,-344.566454,1818.545176,-8843.872330
7130.545126,-306.281293,-555.134843,-10241.280728
7130.547677,1014.556782,1320.838075,-10356.136213
7130.550229,899.701298,1091.127106,-10222.138147
7130.552781,1722.832272,363.709035,-9456.434915
7130.555333,287.138712,727.418070,-9322.436850
7130.557884,-325.423874,957.129040,-9552.147819
7130.560436,5436.492947,267.996131,-10088.140082
7130.562988,3598.805190,1837.687757,-9992.427178
7130.565546,2507.678085,-191.425808,-9915.856854
7130.568103,-2813.959378,229.710970,-9207.581365
7130.570661,-2794.816797,1837.687757,-10145.567824
7130.573219,6278.766502,-669.990328,-10241.280728
7130.575776,4287.938099,2909.672282,-9686.145885
7130.578334,421.136778,-689.132909,-10030.712339
7130.580892,-421.136778,114.855485,-8709.874264
7130.583450,-3656.232933,2258.824534,-9303.294269
7130.586007,2584.248408,880.558717,-10394.421374
7130.588565,6546.762634,-382.851616,-11140.982026
7130.591123,-1359.123237,2450.250342,-8843.872330
7130.593681,1110.269686,-1933.400661,-10298.708470
7130.596238,-4517.649069,3828.516160,-8882.157491
7130.598796,210.568389,708.275490,-10758.130410
7130.601354,0.000000,-1033.699363,-10662.417506
7130.603911,957.129040,4938.785846,-8231.309744
7130.606469,1454.836141,-4211.367776,-10298.708470
7130.609027,-3177.668413,3177.668413,-8920.442653
7130.611585,57.427742,1780.260014,-10317.851051
7130.614142,-2584.248408,-669.990328,-11504.691061
7130.616700,2220.539373,2603.390989,-8690.731683
7130.619258,3196.810994,-2679.961312,-9284.151688
7130.621816,-3273.381317,1454.836141,-10298.708470
7130.624373,-3675.375514,2679.961312,-9858.429112
7130.626931,172.283227,-1435.693560,-10643.274925
7130.629489,803.988394,2488.535504,-9379.864592
7130.632046,1761.117434,133.998066,-9418.149754
7130.634604,-114.855485,-880.558717,-10011.569758
7130.637162,-1933.400661,2756.531635,-9379.864592
7130.639720,976.271621,-210.568389,-10547.562021
7130.642277,899.701298,1359.123237,-9724.431046
7130.644835,-765.703232,38.285162,-9494.720077
7130.647396,-1569.691626,1052.841944,-9092.725880
7130.649957,-3177.668413,669.990328,-10145.567824
7130.652518,-3407.379382,823.130974,-10853.843314
7130.655079,1990.828403,1378.265818,-9667.003304
7130.657640,4115.654872,76.570323,-9705.288466
7130.660201,229.710970,861.416136,-9169.296203
7130.662762,-4402.793584,842.273555,-9341.579430
7130.665323,-1780.260014,497.707101,-10662.417506
7130.667884,-669.990328,3043.670347,-10356.136213
7130.670445,574.277424,-612.562586,-9609.575562
7130.673005,3177.668413,401.994197,-9073.583299
7130.675566,-2909.672282,-153.140646,-10183.852986
7130.678127,918.843878,669.990328,-10183.852986
7130.680688,-2143.969050,2603.390989,-10336.993632
7130.683249,5091.926493,-1914.258080,-10356.136213
7130.685810,3254.238736,4287.938099,-7829.315547
7130.688371,-612.562586,-4153.940034,-10738.987829
7130.690932,1282.552914,4670.789715,-9265.009107
7130.693493,727.418070,-535.992262,-11428.120738
7130.696054,-2201.396792,363.709035,-9839.286531
7130.698615,3579.662610,2182.254211,-8614.161360
7130.701176,3598.805190,-784.845813,-10030.712339
7130.703737,2622.533570,880.558717,-10145.567824
7130.706298,-1780.260014,1512.263883,-9896.714274
7130.708859,-880.558717,-765.703232,-9973.284597
7130.711420,1454.836141,1569.691626,-9724.431046
7130.713981,4689.932296,153.140646,-9552.147819
7130.716541,1741.974853,1646.261949,-9513.862658
7130.719102,-1301.695494,344.566454,-10049.854920
7130.721663,-153.140646,1148.554848,-9686.145885
7130.724224,1684.547110,842.273555,-10049.854920
7130.726785,765.703232,459.421939,-9628.718142
7130.729346,880.558717,1091.127106,-9686.145885
7130.731907,1761.117434,593.420005,-9724.431046
7130.734468,2699.103893,765.703232,-9762.716208
7130.737029,3254.238736,976.271621,-10260.423309
7130.739590,612.562586,421.136778,-9628.718142
7130.742151,153.140646,1225.125171,-9379.864592
7130.744712,-1493.121302,421.136778,-10068.997501
7130.747273,4900.500685,727.418070,-9934.999435
7130.749836,2947.957443,248.853550,-10107.282662
7130.752400,-1684.547110,2622.533570,-9820.143950
7130.754964,1990.828403,-2392.822600,-9590.432981
7130.757527,38.285162,2163.111630,-9379.864592
7130.760091,1818.545176,1741.974853,-10777.272990
7130.762654,1091.127106,-382.851616,-9552.147819
7130.765218,-153.140646,3062.812928,-9016.155557
7130.767782,-3139.383251,-3254.238736,-10222.138147
7130.770345,-1933.400661,4977.071008,-9035.298138
7130.772909,3235.096155,-2354.537438,-12021.540742
7130.775472,-727.418070,382.851616,-9667.003304
7130.778036,-1837.687757,4536.791650,-8671.589102
7130.780600,1761.117434,-4843.072942,-10796.415571
7130.783163,-3158.525832,4173.082614,-8748.159426
7130.785727,-3043.670347,842.273555,-11274.980091
7130.788290,2105.683888,-535.992262,-9820.143950
7130.790854,631.705166,2756.531635,-8690.731683
7130.793418,1339.980656,-2469.392923,-10547.562021
7130.795981,-1703.689691,2756.531635,-9762.716208
7130.798545,-5111.069074,497.707101,-10470.991698
7130.801108,172.283227,114.855485,-9992.427178
7130.803672,2335.394858,2660.818731,-8939.585234
7130.806236,248.853550,-1205.982590,-10241.280728
7130.808799,-746.560651,1263.410333,-9494.720077
7130.811363,191.425808,727.418070,-10088.140082
7130.813926,937.986459,382.851616,-10509.276859
7130.816490,459.421939,1052.841944,-9590.432981
7130.819054,-1895.115499,-267.996131,-9418.149754
7130.821617,-4536.791650,1493.121302,-9590.432981
7130.824181,-2067.398726,-38.285162,-10394.421374
7130.826744,4019.941968,1129.412267,-9743.573627
7130.829308,2163.111630,1741.974853,-9820.143950
7130.831872,-1971.685822,-1512.263883,-9647.860723
7130.834435,-2852.244539,3426.521963,-8614.161360
7130.836999,823.130974,306.281293,-10815.558152
7130.839562,-1473.978722,-880.558717,-10987.841379
7130.842126,2411.965181,3349.951640,-8403.592971
7130.844690,976.271621,-76.570323,-9150.153622
7130.847253,-3158.525832,-1875.972918,-10088.140082
7130.849817,2297.109696,5149.354235,-9284.151688
7130.852383,555.134843,-3809.373579,-11619.546546
7130.854949,2488.535504,3637.090352,-8709.874264
7130.857515,612.562586,-1512.263883,-9858.429112
7130.860081,2909.672282,-401.994197,-9092.725880
7130.862647,650.847747,5149.354235,-9456.434915
7130.865213,-1014.556782,-5666.203917,-12346.964616
7130.867779,267.996131,5532.205851,-7905.885870
7130.870345,4747.360038,-2009.970984,-9858.429112
7130.872911,3464.807125,0.000000,-9992.427178
7130.875477,555.134843,2182.254211,-9456.434915
7130.878043,-631.705166,-574.277424,-10356.136213
7130.880609,210.568389,3196.810994,-9207.581365
7130.883175,1971.685822,-727.418070,-10528.419440
7130.885741,4192.225195,823.130974,-9073.583299
7130.888307,2354.537438,1339.980656,-9379.864592
7130.890874,-2660.818731,-535.992262,-10509.276859
7130.893440,1033.699363,2143.969050,-9437.292334
7130.896006,1875.972918,363.709035,-10088.140082
7130.898572,803.988394,593.420005,-9667.003304
7130.901138,2277.967115,957.129040,-9475.577496
7130.903704,2603.390989,382.851616,-9934.999435
7130.906270,2335.394858,823.130974,-10222.138147
7130.908836,535.992262,382.851616,-9877.571693
7130.911402,-2316.252277,1167.697429,-9896.714274
7130.913968,4957.928427,-287.138712,-9226.723946
7130.916534,3330.809059,1895.115499,-9533.005238
7130.919100,612.562586,-861.416136,-10834.700733
7130.921666,-612.562586,2871.387120,-9245.866526
7130.924232,976.271621,-421.136778,-9399.007173
7130.926798,880.558717,287.138712,-9131.011042
7130.929364,5781.059402,-823.130974,-10968.698798
7130.931930,-1837.687757,2373.680019,-9341.579430
7130.934496,114.855485,-708.275490,-9571.290400
7130.937062,-2794.816797,1397.408398,-9552.147819
7130.939628,-2220.539373,3177.668413,-9781.858789
7130.942194,4077.369710,-2373.680019,-10222.138147
7130.944760,765.703232,2431.107762,-9016.155557
7130.947327,-2699.103893,382.851616,-10030.712339
7130.949893,95.712904,-861.416136,-9399.007173
7130.952459,-1282.552914,2297.109696,-9552.147819
7130.955026,-2967.100024,-401.994197,-11121.839445
7130.957593,2622.533570,2124.826469,-8939.585234
7130.960160,1550.549045,1052.841944,-8977.870395
7130.962726,-957.129040,-765.703232,-10336.993632
7130.965293,-2048.256146,2909.672282,-9418.149754
7130.967860,-2947.957443,-727.418070,-10585.847182
7130.970427,-689.132909,784.845813,-9437.292334
7130.972994,2986.242605,1990.828403,-9437.292334
7130.975561,-440.279358,-172.283227,-10126.425243
7130.978128,-1397.408398,1722.832272,-9494.720077
7130.980694,727.418070,497.707101,-9915.856854
7130.983261,-631.705166,593.420005,-10068.997501
7130.985828,-2009.970984,650.847747,-9877.571693
7130.988395,-2335.394858,689.132909,-9552.147819
7130.990962,-1225.125171,784.845813,-9743.573627
7130.993529,1856.830338,478.564520,-10145.567824
7130.996096,2086.541307,1933.400661,-9896.714274
7130.998663,-2909.672282,-976.271621,-9647.860723
7131.001229,-937.986459,363.709035,-9494.720077
7131.003796,57.427742,3081.955509,-9877.571693
7131.006363,-1454.836141,-3196.810994,-11064.411702
7131.008930,1588.834206,3292.523898,-8575.876198
7131.011497,57.427742,1359.123237,-9667.003304
7131.014064,-401.994197,-2124.826469,-10585.847182
7131.016631,-555.134843,6412.764568,-8499.305875
7131.019197,2775.674216,-4862.215523,-11447.263318
7131.021764,3177.668413,4153.940034,-9341.579430
7131.024331,-267.996131,-4173.082614,-10394.421374
7131.026898,3158.525832,2641.676150,-8824.729749
7131.029465,1282.552914,3369.094221,-9954.142016
7131.032032,-1856.830338,-4670.789715,-10968.698798
7131.034599,421.136778,6719.045861,-7963.313613
7131.037165,5072.783912,-2756.531635,-10490.134278
7131.039732,3560.520029,1129.412267,-9954.142016
7131.042299,-689.132909,2067.398726,-9915.856854
7131.044866,210.568389,-861.416136,-9686.145885
7131.047433,306.281293,3005.385186,-9226.723946
7131.050000,1569.691626,-861.416136,-10585.847182
7131.052567,3732.803256,1607.976787,-8805.587168
7131.055133,842.273555,535.992262,-9801.001370
7131.057701,-1550.549045,210.568389,-10068.997501
7131.060269,1397.408398,1627.119368,-9456.434915
7131.062837,2526.820666,344.566454,-10585.847182
7131.065404,363.709035,650.847747,-9628.718142
7131.067972,3388.236802,842.273555,-9245.866526
7131.070540,2373.680019,287.138712,-10030.712339
7131.073108,1512.263883,1512.263883,-9609.575562
7131.075675,-1416.550979,746.560651,-10432.706536
7131.078243,4575.076811,248.853550,-9762.716208
7131.080811,3694.518094,1473.978722,-8824.729749
7131.083379,-1397.408398,-440.279358,-10547.562021
7131.085946,-497.707101,1263.410333,-9590.432981
7131.088514,363.709035,1378.265818,-9494.720077
7131.091082,2603.390989,1110.269686,-10011.569758
7131.093650,5149.354235,-497.707101,-10413.563955
7131.096217,-1416.550979,2871.387120,-8997.012976
7131.098785,535.992262,-2813.959378,-10604.989763
7131.101353,-3024.527766,2756.531635,-9418.149754
7131.103920,-153.140646,1397.408398,-10470.991698
7131.106488,1684.547110,-1512.263883,-9877.571693
7131.109056,19.142581,3311.666478,-8403.592971
7131.111624,-1512.263883,-2009.970984,-10643.274925
7131.114191,-1052.841944,2067.398726,-9437.292334
7131.116759,-114.855485,1205.982590,-10068.997501
7131.119327,-2277.967115,-401.994197,-10719.845248
7131.121895,2067.398726,2488.535504,-8327.022648
7131.124462,1741.974853,-421.136778,-9284.151688
7131.127030,-95.712904,918.843878,-10528.419440
7131.129598,-2507.678085,2775.674216,-9667.003304
7131.132166,-2086.541307,-1435.693560,-10279.565890
7131.134733,-153.140646,2029.113565,-8977.870395
7131.137301,1799.402595,612.562586,-9820.143950
7131.139869,57.427742,-650.847747,-10528.419440
7131.142437,-1914.258080,2124.826469,-9399.007173
7131.145004,-306.281293,267.996131,-10068.997501
7131.147572,-689.132909,842.273555,-9705.288466
7131.150140,-2775.674216,555.134843,-9877.571693
7131.152708,210.568389,1091.127106,-9781.858789
7131.155275,689.132909,1014.556782,-9992.427178
7131.157843,880.558717,248.853550,-10183.852986
7131.160411,-2928.814862,937.986459,-9226.723946
7131.162978,-689.132909,153.140646,-9992.427178
7131.165546,899.701298,1971.685822,-9858.429112
7131.168114,-1818.545176,-1646.261949,-10432.706536
7131.170682,1301.695494,1531.406464,-9131.011042
7131.173249,-1167.697429,1875.972918,-9724.431046
7131.175817,593.420005,-1722.832272,-10604.989763
7131.178385,-612.562586,5704.489078,-8920.442653
7131.180952,3503.092286,-4364.508422,-10930.413637
7131.183520,3062.812928,4077.369710,-9322.436850
7131.186088,-899.701298,-2009.970984,-10413.563955
7131.188656,3388.236802,421.136778,-9054.440718
7131.191223,2545.963246,3005.385186,-9858.429112
7131.193791,-2143.969050,-4211.367776,-10892.128475
7131.196359,689.132909,6451.049730,-8116.454259
7131.198926,4728.217458,-3101.098090,-10317.851051
7131.201494,2813.959378,1990.828403,-9762.716208
7131.204062,-287.138712,1990.828403,-10336.993632
7131.206630,669.990328,-1263.410333,-9571.290400
7131.209197,-191.425808,3215.953574,-8805.587168
7131.211765,1741.974853,-1167.697429,-11255.837510
7131.214333,3388.236802,2124.826469,-8748.159426
7131.216900,1052.841944,306.281293,-10068.997501
7131.219468,-1378.265818,478.564520,-9724.431046
7131.222036,2048.256146,1454.836141,-9724.431046
7131.224604,1339.980656,-38.285162,-10624.132344
7131.227171,3694.518094,1263.410333,-9341.579430
7131.229739,3005.385186,765.703232,-9647.860723
7131.232307,535.992262,-325.423874,-9954.142016
7131.234874,-918.843878,1895.115499,-9379.864592
7131.237442,4402.793584,-76.570323,-10547.562021
7131.240010,3388.236802,1588.834206,-9475.577496
7131.242577,-765.703232,-440.279358,-9801.001370
7131.245145,-1359.123237,1263.410333,-9743.573627
7131.247713,2105.683888,861.416136,-9303.294269
7131.250281,2354.537438,669.990328,-9973.284597
7131.252848,4307.080680,210.568389,-10796.415571
7131.255416,-478.564520,1205.982590,-8958.727814
7131.257984,-1703.689691,1129.412267,-9245.866526
7131.260551,-3598.805190,-114.855485,-10126.425243
7131.263120,-1301.695494,2890.529701,-10011.569758
7131.265688,3579.662610,-2392.822600,-10451.849117
7131.268256,153.140646,2794.816797,-8556.733618
7131.270824,-3101.098090,-440.279358,-10068.997501
7131.273393,-153.140646,-57.427742,-9533.005238
7131.275961,-382.851616,2928.814862,-9705.288466
7131.278529,-1148.554848,-191.425808,-11083.554283
7131.281097,-631.705166,1110.269686,-9111.868461
7131.283665,842.273555,803.988394,-9169.296203
7131.286234,1033.699363,153.140646,-10394.421374
7131.288802,-1607.976787,2392.822600,-10088.140082
7131.291370,-1244.267752,-784.845813,-10126.425243
7131.293938,-861.416136,1397.408398,-9054.440718
7131.296507,1665.404530,631.705166,-9801.001370
7131.299075,363.709035,76.570323,-9992.427178
7131.301643,-1091.127106,1990.828403,-9820.143950
7131.304211,689.132909,172.283227,-10030.712339
7131.306779,-2833.101958,1263.410333,-9418.149754
7131.309348,-1856.830338,344.566454,-10088.140082
7131.311916,918.843878,746.560651,-9705.288466
7131.314484,1761.117434,1378.265818,-9628.718142
7131.317052,-3158.525832,-937.986459,-10317.851051
7131.319621,-1990.828403,2431.107762,-8901.300072
7131.322189,2545.963246,153.140646,-10068.997501
7131.324757,-1665.404530,38.285162,-10624.132344
7131.327325,-957.129040,2220.539373,-8901.300072
7131.329893,1684.547110,114.855485,-10049.854920
7131.332462,-2775.674216,-2565.105827,-10624.132344
7131.335030,3177.668413,5474.778109,-8556.733618
7131.337598,1071.984525,-4326.223261,-11083.554283
7131.340166,2124.826469,3407.379382,-8518.448456
7131.342735,1493.121302,2679.961312,-9647.860723
7131.345303,-478.564520,-2871.387120,-11026.126541
7131.347871,2143.969050,4804.787781,-8269.594906
7131.350439,2067.398726,-1627.119368,-11447.263318
7131.353007,-1263.410333,1071.984525,-9513.862658
7131.355576,899.701298,1933.400661,-8863.014910
7131.358144,1435.693560,689.132909,-10164.710405
7131.360712,5187.639397,2373.680019,-9322.436850
7131.363280,-133.998066,-2392.822600,-10241.280728
7131.365849,-2622.533570,2928.814862,-9073.583299
7131.368418,2450.250342,325.423874,-10049.854920
7131.370987,2392.822600,-114.855485,-10796.415571
7131.373556,1646.261949,2431.107762,-9265.009107
7131.376124,555.134843,-593.420005,-9513.862658
7131.378693,1167.697429,1263.410333,-9743.573627
7131.381262,2507.678085,516.849682,-9628.718142
7131.383831,2928.814862,746.560651,-10222.138147
7131.386400,1454.836141,708.275490,-10049.854920
7131.388969,1435.693560,1071.984525,-9188.438784
7131.391537,1148.554848,478.564520,-9686.145885
7131.394106,2163.111630,1052.841944,-9915.856854
7131.396675,2009.970984,497.707101,-10222.138147
7131.399244,-363.709035,1952.543242,-9839.286531
7131.401813,229.710970,-1205.982590,-9743.573627
7131.404381,612.562586,1837.687757,-8709.874264
7131.406950,2737.389054,3254.238736,-10336.993632
7131.409519,4173.082614,-3235.096155,-10796.415571
7131.412088,-3694.518094,4689.932296,-8327.022648
7131.414657,325.423874,-4115.654872,-10949.556218
7131.417226,-2852.244539,2775.674216,-9092.725880
7131.419794,1052.841944,1320.838075,-10260.423309
7131.422363,535.992262,-1684.547110,-10470.991698
7131.424932,-516.849682,4517.649069,-8288.737486
7131.427501,976.271621,-5111.069074,-11389.835576
7131.430070,-1875.972918,4632.504554,-8595.018779
7131.432638,287.138712,-306.281293,-10375.278794
7131.435207,-1033.699363,-344.566454,-11179.267187
7131.437776,-899.701298,3081.955509,-8327.022648
7131.440345,478.564520,-1569.691626,-9265.009107
7131.442914,382.851616,1282.552914,-10432.706536
7131.445482,-1301.695494,1761.117434,-10107.282662
7131.448051,-612.562586,-976.271621,-10183.852986
7131.450620,-1071.984525,2048.256146,-9111.868461
7131.453189,1378.265818,-210.568389,-10088.140082
7131.455758,-1741.974853,861.416136,-10241.280728
7131.458327,650.847747,1435.693560,-9437.292334
7131.460895,-2297.109696,-38.285162,-10126.425243
7131.463464,-1799.402595,1014.556782,-9667.003304
7131.466033,-306.281293,727.418070,-9839.286531
7131.468565,1780.260014,784.845813,-9877.571693
7131.471096,-2201.396792,-19.142581,-9743.573627
7131.473628,-2297.109696,1186.840010,-9762.716208
7131.476159,1263.410333,1569.691626,-10088.140082
7131.478691,-1186.840010,-2354.537438,-10470.991698
7131.481222,-746.560651,2488.535504,-8843.872330
7131.483754,19.142581,1799.402595,-9418.149754
7131.486285,-1378.265818,-3273.381317,-11179.267187
7131.488817,3828.516160,5417.350366,-8441.878133
7131.491348,1148.554848,-3235.096155,-10777.272990
7131.493880,1607.976787,2029.113565,-8901.300072
7131.496411,1933.400661,3694.518094,-8882.157491
7131.498943,1684.547110,-957.129040,-10030.712339
7131.501474,1971.685822,4153.940034,-9226.723946
7131.504006,1416.550979,-3637.090352,-11389.835576
7131.506537,-861.416136,3215.953574,-8307.880067
7131.509069,1378.265818,-440.279358,-9915.856854
7131.511600,3483.949706,-267.996131,-10585.847182
7131.514132,5321.637462,2545.963246,-9322.436850
7131.516663,-1110.269686,-2086.541307,-10356.136213
7131.519195,-823.130974,2201.396792,-8824.729749
7131.521726,1952.543242,937.986459,-9667.003304
7131.524258,3330.809059,727.418070,-10585.847182
7131.526789,-38.285162,1780.260014,-9360.722011
7131.529321,306.281293,-899.701298,-9590.432981
7131.531852,2756.531635,1550.549045,-9475.577496
7131.534384,631.705166,248.853550,-9705.288466
7131.536915,2335.394858,-38.285162,-10279.565890
7131.539447,4421.936165,2660.818731,-9839.286531
7131.541978,382.851616,-650.847747,-9628.718142
7131.544510,2163.111630,-153.140646,-9494.720077
7131.547041,1263.410333,1205.982590,-9839.286531
7131.549573,-95.712904,976.271621,-10528.419440
7131.552104,-267.996131,-248.853550,-10088.140082
7131.554636,2048.256146,1646.261949,-8422.735552
7131.557167,4211.367776,1052.841944,-9667.003304
7131.559699,3579.662610,-1186.840010,-11217.552349
7131.562230,-2813.959378,2718.246474,-8920.442653
7131.564762,-708.275490,153.140646,-9915.856854
7131.567293,-2258.824534,344.566454,-9781.858789
7131.569832,114.855485,2469.392923,-9609.575562
7131.572370,1895.115499,-2603.390989,-10356.136213
7131.574909,-765.703232,3541.377448,-8633.303941
7131.577448,-3292.523898,-689.132909,-10834.700733
7131.579986,114.855485,325.423874,-9456.434915
7131.582525,1071.984525,2545.963246,-9207.581365
7131.585063,-1110.269686,-555.134843,-10777.272990
7131.587602,-2756.531635,1895.115499,-9379.864592
7131.590141,1033.699363,401.994197,-9724.431046
7131.592679,1167.697429,1531.406464,-9801.001370
7131.595218,-937.986459,1416.550979,-10413.563955
7131.597756,-440.279358,-574.277424,-9915.856854
7131.600295,-1167.697429,1186.840010,-9169.296203
7131.602834,593.420005,287.138712,-10030.712339
7131.605372,248.853550,1091.127106,-10260.423309
7131.607911,-1473.978722,1014.556782,-9724.431046
7131.610449,-2316.252277,-191.425808,-9628.718142
7131.612988,-1148.554848,1320.838075,-9609.575562
7131.615526,306.281293,344.566454,-10490.134278
7131.618065,-2622.533570,-114.855485,-9896.714274
7131.620604,-114.855485,2258.824534,-9111.868461
7131.623142,1722.832272,-784.845813,-10470.991698
7131.625681,-535.992262,3349.951640,-9399.007173
7131.628219,-2756.531635,-1990.828403,-9839.286531
7131.630758,1895.115499,1167.697429,-9418.149754
7131.633297,-3101.098090,669.990328,-10911.271056
7131.635835,2450.250342,-172.283227,-9552.147819
7131.638374,306.281293,3158.525832,-9303.294269
7131.640912,4019.941968,-2526.820666,-10509.276859
7131.643451,1971.685822,3751.945837,-8863.014910
7131.645990,-1110.269686,-3675.375514,-10796.415571
7131.648528,4039.084549,2794.816797,-9265.009107
7131.651067,3924.229064,1588.834206,-10068.997501
7131.653605,-2086.541307,-2794.816797,-10336.993632
7131.656144,-1071.984525,5647.061336,-8039.883936
7131.658683,5647.061336,-3101.098090,-10796.415571
7131.661221,937.986459,3139.383251,-10049.854920
7131.663760,2335.394858,1416.550979,-9954.142016
7131.666298,1512.263883,-1895.115499,-9226.723946
7131.668837,-1971.685822,3043.670347,-9188.438784
7131.671382,1301.695494,-727.418070,-10796.415571
7131.673927,3292.523898,1397.408398,-9858.429112
7131.676471,-114.855485,-76.570323,-9896.714274
7131.679016,784.845813,669.990328,-9169.296203
7131.681561,1856.830338,1359.123237,-9571.290400
7131.684106,2813.959378,-57.427742,-10126.425243
7131.686651,2928.814862,1550.549045,-9915.856854
7131.689195,3637.090352,650.847747,-9781.858789
7131.691740,1339.980656,287.138712,-9054.440718
7131.694285,-248.853550,861.416136,-9667.003304
7131.696830,-976.271621,2182.254211,-10107.282662
7131.699375,4192.225195,-2335.394858,-10585.847182
7131.701919,1186.840010,2718.246474,-8805.587168
7131.704464,3560.520029,2373.680019,-9647.860723
7131.707009,4575.076811,-3675.375514,-10700.702667
7131.709554,-6317.051664,4689.932296,-8537.591037
7131.712099,631.705166,-3062.812928,-11064.411702
7131.714644,-574.277424,2124.826469,-9667.003304
7131.717188,459.421939,2354.537438,-9456.434915
7131.719733,2277.967115,-2699.103893,-9954.142016
7131.722278,-937.986459,3483.949706,-8537.591037
7131.724823,-1205.982590,-3503.092286,-11542.976222
7131.727368,-976.271621,3924.229064,-9207.581365
7131.729912,1320.838075,267.996131,-9686.145885
7131.732457,-382.851616,-248.853550,-10202.995566
7131.735002,-3541.377448,3177.668413,-8977.870395
7131.737547,727.418070,-1914.258080,-10030.712339
7131.740092,727.418070,2105.683888,-9877.571693
7131.742637,210.568389,1512.263883,-10260.423309
7131.745181,-114.855485,-842.273555,-9858.429112
7131.747726,-2029.113565,2048.256146,-8977.870395
7131.750271,1129.412267,-440.279358,-10356.136213
7131.752816,287.138712,1512.263883,-10241.280728
7131.755361,-2239.681954,574.277424,-10317.851051
7131.757905,-478.564520,-325.423874,-9245.866526
7131.760450,-2526.820666,2048.256146,-9245.866526
7131.762995,-2297.109696,-650.847747,-10853.843314
7131.765540,631.705166,1780.260014,-9322.436850
7131.768085,1033.699363,612.562586,-10260.423309
7131.770629,459.421939,1875.972918,-9992.427178
7131.773146,-3235.096155,-1493.121302,-9341.579430
7131.775662,-421.136778,1799.402595,-9322.436850
7131.778178,-1684.547110,3024.527766,-10030.712339
7131.780695,899.701298,-2201.396792,-10949.556218
7131.783211,2928.814862,5359.922624,-8614.161360
7131.785727,1263.410333,-4651.647134,-10298.708470
7131.788243,2105.683888,3349.951640,-9054.440718
7131.790760,-344.566454,1110.269686,-10585.847182
7131.793276,4173.082614,1914.258080,-9169.296203
7131.795792,2928.814862,2679.961312,-9839.286531
7131.798309,516.849682,-4536.791650,-10624.132344
7131.800825,-516.849682,5072.783912,-7886.743290
7131.803341,1588.834206,-1799.402595,-10719.845248
7131.805857,3024.527766,899.701298,-10336.993632
7131.808374,4957.928427,2813.959378,-9552.147819
7131.810890,1301.695494,-2029.113565,-10107.282662
7131.813406,-957.129040,1646.261949,-8441.878133
7131.815923,-287.138712,784.845813,-10872.985894
7131.818439,2163.111630,880.558717,-10547.562021
7131.820955,2067.398726,1837.687757,-9284.151688
7131.823472,382.851616,-823.130974,-9533.005238
7131.825988,440.279358,1091.127106,-9092.725880
7131.828504,3235.096155,1512.263883,-9992.427178
7131.831020,3177.668413,363.709035,-10604.989763
7131.833537,4096.512291,727.418070,-9762.716208
7131.836053,2009.970984,1646.261949,-9092.725880
7131.838569,-1971.685822,-1550.549045,-10107.282662
7131.841086,-2373.680019,3024.527766,-9954.142016
7131.843602,5704.489078,-1378.265818,-10451.849117
7131.846118,3981.656806,1014.556782,-9399.007173
7131.848634,746.560651,1722.832272,-9781.858789
7131.851151,1071.984525,-1837.687757,-9399.007173
7131.853667,-2258.824534,4364.508422,-9016.155557
7131.856183,-1933.400661,-3847.658741,-12002.398162
7131.858700,-669.990328,4460.221326,-8863.014910
7131.861216,3732.803256,-1148.554848,-10432.706536
7131.863732,-3177.668413,1588.834206,-8575.876198
7131.866248,-3885.943902,4058.227130,-9207.581365
7131.868765,1282.552914,-4900.500685,-11983.255581
7131.871281,-248.853550,5819.344563,-8824.729749
7131.873807,-172.283227,-1952.543242,-10202.995566
7131.876334,344.566454,689.132909,-9858.429112
7131.878860,-3483.949706,2775.674216,-8709.874264
7131.881387,133.998066,-2584.248408,-10336.993632
7131.883913,1435.693560,3273.381317,-10432.706536
7131.886440,-95.712904,497.707101,-10317.851051
7131.888966,-1129.412267,-497.707101,-9341.579430
7131.891493,516.849682,2545.963246,-8518.448456
7131.894019,-459.421939,-1052.841944,-11026.126541
7131.896546,1512.263883,2469.392923,-9992.427178
7131.899072,-1244.267752,421.136778,-10030.712339
7131.901599,-3809.373579,344.566454,-9456.434915
7131.904125,-2794.816797,1416.550979,-9379.864592
7131.906652,-401.994197,0.000000,-10279.565890
7131.909178,1052.841944,1550.549045,-10202.995566
7131.911705,1091.127106,1473.978722,-9839.286531
7131.914231,-3139.383251,-2086.541307,-9360.722011
7131.916758,-1780.260014,2182.254211,-8709.874264
7131.919284,-1818.545176,1914.258080,-10279.565890
7131.921811,76.570323,-1722.832272,-11121.839445
7131.924337,5398.207786,4747.360038,-9016.155557
7131.926864,1071.984525,-4402.793584,-10222.138147
7131.929390,937.986459,3369.094221,-8078.169098
7131.931917,-248.853550,2373.680019,-10356.136213
7131.934443,3062.812928,746.560651,-9743.573627
7131.936970,3445.664544,3215.953574,-9571.290400
7131.939496,1971.685822,-3560.520029,-10604.989763
7131.942023,-1148.554848,3349.951640,-7867.600709
7131.944549,-899.701298,-708.275490,-10356.136213
7131.947076,4307.080680,38.285162,-10872.985894
7131.949602,4536.791650,3292.523898,-9743.573627
7131.952129,727.418070,-2641.676150,-10279.565890
7131.954665,-38.285162,2105.683888,-7867.600709
7131.957200,784.845813,344.566454,-10758.130410
7131.959735,1129.412267,210.568389,-11121.839445
7131.962270,1512.263883,2584.248408,-9379.864592
7131.964805,1282.552914,-708.275490,-9590.432981
7131.967340,1684.547110,957.129040,-8977.870395
7131.969875,1971.685822,689.132909,-9762.716208
7131.972410,3349.951640,325.423874,-10777.272990
7131.974946,4326.223261,2009.970984,-9934.999435
7131.977481,1320.838075,-401.994197,-9801.001370
7131.980016,-2067.398726,516.849682,-8748.159426
7131.982551,708.275490,-421.136778,-9839.286531
7131.985086,2488.535504,1895.115499,-10566.704602
7131.987621,5149.354235,2469.392923,-9762.716208
7131.990156,4192.225195,-2565.105827,-10413.563955
7131.992691,-4268.795518,2565.105827,-8307.880067
7131.995227,-1550.549045,248.853550,-9724.431046
7131.997762,-1780.260014,133.998066,-10604.989763
7132.000297,114.855485,5359.922624,-9705.288466
7132.002832,5111.069074,-4555.934230,-10662.417506
7132.005367,-1359.123237,3081.955509,-8193.024582
7132.007902,-5302.494882,248.853550,-10451.849117
7132.010437,842.273555,-708.275490,-10164.710405
7132.012973,2794.816797,4096.512291,-9667.003304
7132.015508,-1761.117434,-2928.814862,-11121.839445
7132.018043,-2699.103893,2775.674216,-8250.452325
7132.020578,-1244.267752,38.285162,-9379.864592
7132.023113,516.849682,133.998066,-10738.987829
7132.025648,210.568389,3464.807125,-10202.995566
7132.028183,1263.410333,-1205.982590,-10088.140082
7132.030718,-497.707101,1167.697429,-8690.731683
7132.033254,-765.703232,287.138712,-9475.577496
7132.035789,1569.691626,593.420005,-10547.562021
7132.038324,-1550.549045,2124.826469,-10394.421374
7132.040859,-2086.541307,-880.558717,-9877.571693
7132.043394,-4230.510357,1014.556782,-8537.591037
7132.045929,-1129.412267,306.281293,-10088.140082
7132.048464,3503.092286,727.418070,-10241.280728
7132.050999,1588.834206,2890.529701,-9934.999435
7132.053535,-3426.521963,-3024.527766,-10241.280728
7132.056077,-1607.976787,3235.096155,-7752.745224
7132.058620,-2603.390989,1665.404530,-10030.712339
7132.061162,-248.853550,-2507.678085,-11236.694930
7132.063705,5876.772306,6355.336826,-8882.157491
7132.066248,3177.668413,-4843.072942,-10777.272990
7132.068790,1071.984525,3541.377448,-8346.165229
7132.071333,-1971.685822,-1186.840010,-10317.851051
7132.073876,3273.381317,382.851616,-10164.710405
7132.076418,3503.092286,3713.660675,-9801.001370
7132.078961,2297.109696,-3330.809059,-10700.702667
7132.081504,-880.558717,3081.955509,-7925.028451
7132.084046,-1378.265818,-689.132909,-9858.429112
7132.086589,4613.361973,-287.138712,-10662.417506
7132.089132,4134.797453,3522.234867,-10049.854920
7132.091674,593.420005,-3254.238736,-10126.425243
7132.094217,-1110.269686,3292.523898,-7714.460062
7132.096760,1454.836141,-153.140646,-10394.421374
7132.099302,689.132909,153.140646,-10834.700733
7132.101845,1646.261949,2603.390989,-9743.573627
7132.104388,842.273555,-880.558717,-10126.425243
7132.106930,2201.396792,650.847747,-8518.448456
7132.109473,2067.398726,1397.408398,-9379.864592
7132.112016,5264.209720,1052.841944,-10336.993632
7132.114558,3981.656806,1186.840010,-10317.851051
7132.117101,-2163.111630,-153.140646,-9647.860723
7132.119644,-4536.791650,1588.834206,-8920.442653
7132.122186,5225.924558,-267.996131,-9188.438784
7132.124729,5761.916821,459.421939,-10700.702667
7132.127271,1225.125171,2182.254211,-10547.562021
7132.129814,153.140646,-1129.412267,-8729.016845
7132.132357,-2105.683888,3024.527766,-8863.014910
7132.134899,-2928.814862,-3215.953574,-11255.837510
7132.137442,306.281293,4823.930362,-9705.288466
7132.139985,5761.916821,-2890.529701,-11332.407834
7132.142527,-2775.674216,1148.554848,-8824.729749
7132.145070,-4536.791650,3541.377448,-8671.589102
7132.147613,555.134843,-4670.789715,-11389.835576
7132.150155,-95.712904,5359.922624,-9150.153622
7132.152698,823.130974,-1071.984525,-10815.558152
7132.155241,440.279358,535.992262,-9858.429112
7132.157789,-2967.100024,2029.113565,-8901.300072
7132.160337,-1818.545176,-1971.685822,-10509.276859
7132.162885,1071.984525,3330.809059,-10183.852986
7132.165434,2526.820666,-172.283227,-10796.415571
7132.167982,-1359.123237,-191.425808,-9513.862658
7132.170530,-593.420005,1780.260014,-8250.452325
7132.173079,1473.978722,-880.558717,-10107.282662
7132.175627,-2565.105827,1837.687757,-10509.276859
7132.178175,-1301.695494,727.418070,-10241.280728
7132.180723,-3215.953574,-19.142581,-9667.003304
7132.183272,-2545.963246,1014.556782,-9284.151688
7132.185820,3120.240670,-248.853550,-10202.995566
7132.188368,2431.107762,3369.094221,-9915.856854
7132.190916,-3579.662610,-2603.390989,-10585.847182
7132.193465,-1531.406464,2775.674216,-8346.165229
7132.196013,-2565.105827,2584.248408,-9877.571693
7132.198561,344.566454,-2852.244539,-10834.700733
7132.201109,3809.373579,6355.336826,-8824.729749
7132.203658,2718.246474,-4575.076811,-11332.407834
7132.206206,1339.980656,3254.238736,-8882.157491
7132.208754,-2431.107762,-2239.681954,-10068.997501
7132.211302,3407.379382,1761.117434,-9475.577496
7132.213851,3541.377448,2775.674216,-10222.138147
7132.216399,1952.543242,-3311.666478,-10719.845248
7132.218947,-459.421939,4192.225195,-7963.313613
7132.221495,-631.705166,-1914.258080,-10451.849117
7132.224044,3962.514226,440.279358,-10145.567824
7132.226592,3943.371645,3483.949706,-9896.714274
7132.229140,631.705166,-2890.529701,-11102.696864
7132.231689,-2373.680019,3388.236802,-7905.885870
7132.234237,1761.117434,-535.992262,-10394.421374
7132.236785,1875.972918,535.992262,-10336.993632
7132.239333,555.134843,2277.967115,-9781.858789
7132.241882,2392.822600,-918.843878,-9992.427178
7132.244430,555.134843,1818.545176,-8920.442653
7132.246978,4670.789715,-344.566454,-9820.143950
7132.249526,5704.489078,1167.697429,-10126.425243
7132.252075,-669.990328,1033.699363,-10470.991698
7132.254623,-3962.514226,1761.117434,-9571.290400
7132.257171,3541.377448,-1703.689691,-9303.294269
7132.259725,1339.980656,2450.250342,-9628.718142
7132.262278,4728.217458,2335.394858,-10624.132344
7132.264831,6431.907149,-2469.392923,-10375.278794
7132.267385,-7082.754896,2947.957443,-8307.880067
7132.269938,-803.988394,-2067.398726,-10317.851051
7132.272492,-861.416136,1952.543242,-10068.997501
7132.275045,-478.564520,2526.820666,-9973.284597
7132.277598,4345.365842,-2143.969050,-9781.858789
7132.280152,-363.709035,2775.674216,-8480.163294
7132.282705,-4881.358104,-1837.687757,-10585.847182
7132.285259,-1014.556782,2411.965181,-9322.436850
7132.287812,3579.662610,1435.693560,-10068.997501
7132.290366,-2029.113565,-1761.117434,-11160.124606
7132.292919,-1435.693560,3464.807125,-8288.737486
7132.295472,-1033.699363,-555.134843,-9265.009107
7132.298026,-918.843878,191.425808,-10222.138147
7132.300579,937.986459,1818.545176,-10241.280728
7132.303133,440.279358,-1244.267752,-10336.993632
7132.305686,-516.849682,1952.543242,-9035.298138
7132.308239,95.712904,-555.134843,-9513.862658
7132.310793,-918.843878,1148.554848,-10202.995566
7132.313346,-1110.269686,2105.683888,-10107.282662
7132.315900,-2871.387120,-918.843878,-10049.854920
7132.318453,-4019.941968,2067.398726,-9150.153622
7132.321006,3369.094221,-880.558717,-9801.001370
7132.323560,2775.674216,2603.390989,-9801.001370
7132.326113,-4230.510357,-1435.693560,-10643.274925
7132.328667,-1837.687757,1359.123237,-9226.723946
7132.331220,-2316.252277,2833.101958,-9820.143950
7132.333774,1646.261949,-2143.969050,-10834.700733
7132.336327,2067.398726,5168.496816,-8556.733618
7132.338880,3905.086483,-4077.369710,-10911.271056
7132.341434,1837.687757,3158.525832,-9169.296203
7132.343987,-2086.541307,-784.845813,-10126.425243
7132.346541,1837.687757,95.712904,-9628.718142
7132.349094,4115.654872,2182.254211,-9839.286531
7132.351647,995.414202,-3866.801322,-10815.558152
7132.354201,-440.279358,5359.922624,-8020.741355
7132.356754,-95.712904,-2699.103893,-10509.276859
7132.359308,3120.240670,1473.978722,-10049.854920
7132.361865,4900.500685,2852.244539,-9992.427178
7132.364422,344.566454,-2871.387120,-10394.421374
7132.366979,-574.277424,3541.377448,-7848.458128
7132.369536,516.849682,-440.279358,-10470.991698
7132.372093,1071.984525,593.420005,-10164.710405
7132.374650,3062.812928,2507.678085,-9839.286531
7132.377207,-287.138712,-1071.984525,-10183.852986
7132.379764,4192.225195,1052.841944,-8537.591037
7132.382321,4594.219392,1320.838075,-9724.431046
7132.384878,3483.949706,-172.283227,-10892.128475
7132.387435,-344.566454,1512.263883,-9494.720077
7132.389993,-3617.947771,899.701298,-9552.147819
7132.392550,3235.096155,-57.427742,-8977.870395
7132.395107,5225.924558,918.843878,-9494.720077
7132.397664,4689.932296,-593.420005,-11332.407834
7132.400221,-3120.240670,2220.539373,-8595.018779
7132.402778,-2086.541307,1339.980656,-9399.007173
7132.405335,-3790.230998,-1205.982590,-10490.134278
7132.407892,-535.992262,4804.787781,-9092.725880
7132.410449,5398.207786,-3560.520029,-11428.120738
7132.413006,-2316.252277,2143.969050,-8882.157491
7132.415563,-3981.656806,3349.951640,-8958.727814
7132.418120,612.562586,-4709.074877,-11351.550414
7132.420677,957.129040,5359.922624,-8748.159426
7132.423234,-1110.269686,-2660.818731,-11485.548480
7132.425791,401.994197,2029.113565,-9226.723946
7132.428349,-2507.678085,976.271621,-9245.866526
7132.430906,-2086.541307,-957.129040,-10279.565890
7132.433463,1818.545176,4536.791650,-9437.292334
7132.436020,1703.689691,-2603.390989,-11542.976222
7132.438577,-1799.402595,2201.396792,-8786.444587
7132.441134,1033.699363,995.414202,-8824.729749
7132.443691,-248.853550,-1205.982590,-10911.271056
7132.446248,-3101.098090,3101.098090,-9724.431046
7132.448805,-2699.103893,-957.129040,-10279.565890
7132.451362,-3732.803256,1167.697429,-9724.431046
7132.453919,2373.680019,172.283227,-9475.577496
7132.456476,2411.965181,1263.410333,-9801.001370
7132.459033,-3905.086483,650.847747,-10011.569758
7132.461590,-1531.406464,-114.855485,-10030.712339
7132.464151,-2852.244539,1550.549045,-10241.280728
7132.466711,2411.965181,-363.709035,-9954.142016
7132.469271,1780.260014,2947.957443,-9150.153622
7132.471832,4689.932296,-2411.965181,-10451.849117
7132.474392,2354.537438,3177.668413,-9207.581365
7132.476952,-2431.107762,-2871.387120,-10700.702667
7132.479512,2699.103893,4632.504554,-8843.872330
7132.482073,4364.508422,1186.840010,-10049.854920
7132.484633,497.707101,-3637.090352,-10738.987829
7132.487193,-325.423874,5972.485210,-7867.600709
7132.489753,421.136778,-2986.242605,-10834.700733
7132.492314,2967.100024,2201.396792,-10011.569758
7132.494874,4747.360038,2316.252277,-9743.573627
7132.497434,-114.855485,-2354.537438,-10145.567824
7132.499994,-172.283227,3445.664544,-8384.450390
7132.502555,1493.121302,-708.275490,-10432.706536
7132.505115,3043.670347,1225.125171,-10279.565890
7132.507675,-1091.127106,1531.406464,-10202.995566
7132.510235,3675.375514,-1071.984525,-9360.722011
7132.512796,3885.943902,1799.402595,-8863.014910
7132.515356,3694.518094,-210.568389,-10260.423309
7132.517916,287.138712,382.851616,-10356.136213
7132.520477,-3062.812928,2890.529701,-10068.997501
7132.523037,3541.377448,-2335.394858,-9686.145885
7132.525597,3464.807125,1339.980656,-9131.011042
7132.528157,1588.834206,1952.543242,-10987.841379
7132.530718,3981.656806,-1627.119368,-9513.862658
7132.533278,-3292.523898,3751.945837,-8786.444587
7132.535838,-2565.105827,-3732.803256,-11408.978157
7132.538398,-784.845813,3407.379382,-8709.874264
7132.540959,1665.404530,363.709035,-10566.704602
7132.543519,823.130974,-823.130974,-10126.425243
7132.546079,382.851616,3483.949706,-8327.022648
7132.548639,-4881.358104,-1091.127106,-10872.985894
7132.551200,-1473.978722,4230.510357,-8863.014910
7132.553760,3196.810994,0.000000,-9858.429112
7132.556320,-2354.537438,-1148.554848,-11083.554283
7132.558881,-1971.685822,4575.076811,-8307.880067
7132.561441,746.560651,-2220.539373,-9552.147819
7132.564001,-57.427742,1569.691626,-10088.140082
7132.566564,-325.423874,2488.535504,-9743.573627
7132.569127,1569.691626,-2009.970984,-10624.132344
7132.571690,-995.414202,2507.678085,-8997.012976
7132.574253,-440.279358,-1205.982590,-10260.423309
7132.576817,-2775.674216,1359.123237,-10183.852986
7132.579380,-2297.109696,1378.265818,-9820.143950
7132.581943,-3273.381317,-287.138712,-10126.425243
7132.584506,1550.549045,1091.127106,-9552.147819
7132.587069,2947.957443,1435.693560,-9705.288466
7132.589632,-3081.955509,-1129.412267,-10030.712339
7132.592195,-1225.125171,2450.250342,-9169.296203
7132.594758,-2029.113565,1531.406464,-10336.993632
7132.597321,287.138712,-1052.841944,-9571.290400
7132.599884,1665.404530,2048.256146,-9284.151688
7132.602447,4689.932296,-2545.963246,-10470.991698
7132.605011,2411.965181,3943.371645,-8977.870395
7132.607574,-1722.832272,-3694.518094,-10911.271056
7132.610137,2565.105827,2947.957443,-9092.725880
7132.612700,2833.101958,1818.545176,-9992.427178
7132.615263,2105.683888,-2852.244539,-10604.989763
7132.617826,229.710970,4134.797453,-8116.454259
7132.620389,-957.129040,-1837.687757,-10624.132344
7132.622952,2450.250342,2890.529701,-10030.712339
7132.625515,6087.340694,1722.832272,-9839.286531
7132.628078,229.710970,-2431.107762,-9858.429112
7132.630641,-2086.541307,3235.096155,-8480.163294
7132.633205,2163.111630,-306.281293,-10298.708470
7132.635768,937.986459,382.851616,-10222.138147
7132.638331,612.562586,2488.535504,-10049.854920
7132.640894,4575.076811,-1091.127106,-9839.286531
7132.643457,3809.373579,1301.695494,-8901.300072
7132.646020,2258.824534,382.851616,-10107.282662
7132.648583,842.273555,1320.838075,-9877.571693
7132.651146,-650.847747,497.707101,-10470.991698
7132.653709,2431.107762,861.416136,-9188.438784
7132.656272,4881.358104,95.712904,-8882.157491
7132.658836,1952.543242,880.558717,-10758.130410
7132.661399,-1454.836141,612.562586,-9418.149754
7132.663962,267.996131,3560.520029,-9207.581365
7132.666525,-3330.809059,-2967.100024,-11389.835576
7132.669090,-1148.554848,4613.361973,-8901.300072
7132.671655,4555.934230,-3598.805190,-10968.698798
7132.674220,-2622.533570,2258.824534,-9303.294269
7132.676786,-3445.664544,3043.670347,-9571.290400
7132.679351,1205.982590,-4402.793584,-11179.267187
7132.681916,-612.562586,5379.065205,-8633.303941
7132.684481,1665.404530,-2009.970984,-10432.706536
7132.687046,-2335.394858,306.281293,-10356.136213
7132.689612,-2584.248408,3828.516160,-8786.444587
7132.692177,823.130974,-3024.527766,-10298.708470
7132.694742,1091.127106,3541.377448,-9073.583299
7132.697307,287.138712,-401.994197,-10700.702667
7132.699872,-1320.838075,287.138712,-9724.431046
7132.702438,114.855485,2048.256146,-9092.725880
7132.705003,-1550.549045,-861.416136,-10566.704602
7132.707568,-3043.670347,1990.828403,-9801.001370
7132.710133,-3560.520029,210.568389,-10107.282662
7132.712698,1091.127106,229.710970,-9743.573627
7132.715263,1684.547110,2909.672282,-9399.007173
7132.717829,-2852.244539,-2967.100024,-10719.845248
7132.720394,-727.418070,3675.375514,-8307.880067
7132.722959,-2182.254211,2067.398726,-10222.138147
7132.725524,-1263.410333,-2890.529701,-11083.554283
7132.728089,3369.094221,6431.907149,-8212.167163
7132.730655,3081.955509,-5379.065205,-11217.552349
7132.733220,2048.256146,3981.656806,-8824.729749
7132.735785,-210.568389,1971.685822,-9743.573627
7132.738350,-114.855485,-2852.244539,-10509.276859
7132.740915,2603.390989,2718.246474,-9667.003304
7132.743481,2967.100024,-2297.109696,-10662.417506
7132.746046,-172.283227,2794.816797,-8556.733618
7132.748611,-593.420005,-306.281293,-10030.712339
7132.751176,1933.400661,191.425808,-10145.567824
7132.753741,5206.781978,2143.969050,-9992.427178
7132.756307,1397.408398,-1033.699363,-10279.565890
7132.758872,-421.136778,976.271621,-9092.725880
7132.761437,-650.847747,1186.840010,-9801.001370
7132.764002,1052.841944,363.709035,-9954.142016
7132.766567,3235.096155,1378.265818,-10068.997501
7132.769133,2833.101958,-38.285162,-10088.140082
7132.771700,4134.797453,880.558717,-8805.587168
7132.774267,-57.427742,478.564520,-9915.856854
7132.776834,-172.283227,1627.119368,-9954.142016
7132.779401,574.277424,57.427742,-10222.138147
7132.781968,2526.820666,1780.260014,-9628.718142
7132.784535,3924.229064,-344.566454,-9322.436850
7132.787102,2679.961312,535.992262,-9973.284597
7132.789669,-4134.797453,2373.680019,-9781.858789
7132.792236,-1416.550979,57.427742,-9820.143950
7132.794803,-1722.832272,248.853550,-9877.571693
7132.797370,-1684.547110,3924.229064,-9571.290400
7132.799937,4555.934230,-3885.943902,-10451.849117
7132.802504,-2641.676150,2737.389054,-9054.440718
7132.805071,-4555.934230,2565.105827,-10241.280728
7132.807639,2048.256146,-4364.508422,-11045.269122
7132.810206,267.996131,5532.205851,-8518.448456
7132.812773,-1454.836141,-2603.390989,-10930.413637
7132.815340,-2182.254211,1378.265818,-9265.009107
7132.817907,-2565.105827,2009.970984,-9781.858789
7132.820474,191.425808,-2201.396792,-10681.560086
7132.823041,2201.396792,3503.092286,-9303.294269
7132.825608,-459.421939,-803.988394,-10758.130410
7132.828175,-1952.543242,440.279358,-9322.436850
7132.830742,440.279358,2890.529701,-9035.298138
7132.833309,-2431.107762,-2105.683888,-10930.413637
7132.835876,-4039.084549,1990.828403,-9762.716208
7132.838443,76.570323,76.570323,-10030.712339
7132.841010,1033.699363,1512.263883,-9418.149754
7132.843577,-497.707101,-861.416136,-10202.995566
7132.846145,-803.988394,1856.830338,-9533.005238
7132.848712,-995.414202,2316.252277,-9781.858789
7132.851279,-2909.672282,-4383.651003,-11198.409768
7132.853846,4517.649069,6374.479406,-7637.889739
7132.856413,2450.250342,-3369.094221,-11294.122672
7132.858980,2029.113565,1761.117434,-9188.438784
7132.861547,1186.840010,5302.494882,-8288.737486
7132.864114,-574.277424,-5111.069074,-11638.689126
7132.866681,2029.113565,5072.783912,-8269.594906
7132.869248,4421.936165,631.705166,-10317.851051
7132.871815,-631.705166,-3062.812928,-9973.284597
7132.874383,-957.129040,3924.229064,-8288.737486
7132.876952,2967.100024,-1895.115499,-10777.272990
7132.879520,1990.828403,2679.961312,-9858.429112
7132.882088,3426.521963,650.847747,-9341.579430
7132.884656,1129.412267,-612.562586,-9667.003304
7132.887224,-2297.109696,2794.816797,-9437.292334
7132.889793,1856.830338,-803.988394,-10107.282662
7132.892361,2794.816797,1512.263883,-9877.571693
7132.894929,3771.088418,401.994197,-10107.282662
7132.897497,3924.229064,344.566454,-9360.722011
7132.900066,-727.418070,287.138712,-9513.862658
7132.902634,-1033.699363,1990.828403,-9724.431046
7132.905202,2641.676150,-1052.841944,-10758.130410
7132.907770,1512.263883,2794.816797,-9609.575562
7132.910338,3617.947771,440.279358,-9379.864592
7132.912907,4498.506488,-1014.556782,-10049.854920
7132.915475,-4019.941968,2354.537438,-9360.722011
7132.918043,-1091.127106,555.134843,-10298.708470
7132.920611,-555.134843,1684.547110,-9667.003304
7132.923180,-1627.119368,2718.246474,-9762.716208
7132.925748,3771.088418,-3043.670347,-9801.001370
7132.928316,-1895.115499,2775.674216,-8939.585234
7132.930884,-5627.918755,1512.263883,-10719.845248
7132.933452,2239.681954,-2852.244539,-10394.421374
7132.936021,1435.693560,5168.496816,-8767.302006
7132.938589,267.996131,-2813.959378,-10796.415571
7132.941157,-1397.408398,1225.125171,-9379.864592
7132.943725,-1397.408398,1512.263883,-9647.860723
7132.946293,363.709035,-1627.119368,-10719.845248
7132.948862,1263.410333,3330.809059,-9379.864592
7132.951430,650.847747,-746.560651,-10356.136213
7132.953998,-1148.554848,631.705166,-9226.723946
7132.956566,-1416.550979,1454.836141,-9418.149754
7132.959135,-3292.523898,248.853550,-10547.562021
7132.961703,-2220.539373,1493.121302,-9934.999435
7132.964271,1225.125171,-287.138712,-9801.001370
7132.966839,708.275490,2163.111630,-9016.155557
7132.969407,-3369.094221,-1359.123237,-10202.995566
7132.971976,248.853550,1665.404530,-9647.860723
7132.974544,-1837.687757,3503.092286,-9992.427178
7132.977112,248.853550,-3024.527766,-10892.128475
7132.979681,2239.681954,5627.918755,-8097.311678
7132.982250,2411.965181,-4785.645200,-10777.272990
7132.984819,2488.535504,3598.805190,-9265.009107
7132.987388,-191.425808,1837.687757,-10222.138147
7132.989957,229.710970,-2565.105827,-10413.563955
7132.992526,2507.678085,1952.543242,-9609.575562
7132.995095,3522.234867,-1359.123237,-10394.421374
7132.997664,-153.140646,2316.252277,-8977.870395
7133.000234,-612.562586,-229.710970,-10107.282662
7133.002803,3062.812928,803.988394,-9877.571693
7133.005372,4019.941968,1550.549045,-10049.854920
7133.007941,1091.127106,-937.986459,-10068.997501
7133.010510,823.130974,1990.828403,-8843.872330
7133.013079,287.138712,574.277424,-10107.282662
7133.015648,1933.400661,823.130974,-9705.288466
7133.018217,4345.365842,1990.828403,-9647.860723
7133.020786,4555.934230,-478.564520,-9992.427178
7133.023355,421.136778,918.843878,-9150.153622
7133.025925,784.845813,1473.978722,-9475.577496
7133.028494,-2009.970984,-382.851616,-10585.847182
7133.031063,4019.941968,1722.832272,-9609.575562
7133.033632,5647.061336,-248.853550,-9762.716208
7133.036201,267.996131,1014.556782,-10030.712339
7133.038770,-3503.092286,2507.678085,-8824.729749
7133.041339,-344.566454,899.701298,-10317.851051
7133.043908,-2756.531635,-229.710970,-10547.562021
7133.046477,-1703.689691,4019.941968,-8901.300072
7133.049046,4862.215523,-3732.803256,-10872.985894
7133.051616,-2967.100024,3101.098090,-8882.157491
7133.054185,-2124.826469,1952.543242,-9552.147819
7133.056754,-1339.980656,-2967.100024,-11370.692995
7133.059323,-1033.699363,4766.502619,-8901.300072
7133.061892,2947.957443,-2833.101958,-10930.413637
7133.064461,-1052.841944,1129.412267,-9360.722011
7133.067030,-4153.940034,2220.539373,-9169.296203
7133.069599,1627.119368,-1225.125171,-10585.847182
7133.072168,957.129040,2182.254211,-9915.856854
7133.074737,114.855485,248.853550,-9839.286531
7133.077307,-133.998066,172.283227,-9571.290400
7133.079877,-2603.390989,1186.840010,-9456.434915
7133.082447,-3751.945837,153.140646,-10375.278794
7133.085017,-1952.543242,1761.117434,-10049.854920
7133.087587,1665.404530,-248.853550,-9954.142016
7133.090157,823.130974,1627.119368,-9360.722011
7133.092727,-4134.797453,-76.570323,-9341.579430
7133.095297,-133.998066,497.707101,-9973.284597
7133.097868,-1378.265818,3426.521963,-10241.280728
7133.100438,497.707101,-2239.681954,-10758.130410
7133.103008,2220.539373,4594.219392,-8403.592971
7133.105578,2048.256146,-4268.795518,-10547.562021
7133.108148,2737.389054,3062.812928,-9399.007173
7133.110718,-1205.982590,-2335.394858,-10911.271056
7133.113288,2507.678085,2507.678085,-9169.296203
7133.115858,2239.681954,995.414202,-9762.716208
7133.118429,3656.232933,-1052.841944,-10068.997501
7133.120999,-114.855485,2660.818731,-8977.870395
7133.123569,-957.129040,-650.847747,-10394.421374
7133.126139,1607.976787,1378.265818,-9820.143950
7133.128709,4096.512291,1244.267752,-9992.427178
7133.131279,1569.691626,-708.275490,-9915.856854
7133.133849,1512.263883,1607.976787,-8824.729749
7133.136419,267.996131,-535.992262,-10719.845248
7133.138990,2450.250342,727.418070,-9896.714274
7133.141560,5551.348432,1856.830338,-9590.432981
7133.144130,3885.943902,-574.277424,-10030.712339
7133.146700,-497.707101,229.710970,-9226.723946
7133.149270,-1129.412267,2660.818731,-9647.860723
7133.151840,3081.955509,-1665.404530,-10758.130410
7133.154410,1397.408398,3158.525832,-9552.147819
7133.156980,3254.238736,1205.982590,-9820.143950
7133.159551,6355.336826,-3043.670347,-9571.290400
7133.162121,-4747.360038,3349.951640,-8709.874264
7133.164692,-535.992262,-2354.537438,-11581.261384
7133.167262,-995.414202,2718.246474,-9437.292334
7133.169833,-1359.123237,2450.250342,-9954.142016
7133.172404,2890.529701,-3560.520029,-9934.999435
7133.174974,-1148.554848,3426.521963,-8690.731683
7133.177545,-5685.346498,1091.127106,-11006.983960
7133.180115,1378.265818,-2488.535504,-10126.425243
7133.182686,2067.398726,2622.533570,-9016.155557
7133.185257,-727.418070,-1933.400661,-10930.413637
7133.187827,-1952.543242,2488.535504,-8882.157491
7133.190398,-1014.556782,497.707101,-9609.575562
7133.192968,-555.134843,-612.562586,-10585.847182
7133.195539,1818.545176,3081.955509,-9590.432981
7133.198110,401.994197,-803.988394,-10260.423309
7133.200680,-2354.537438,210.568389,-9284.151688
7133.203251,-3292.523898,2029.113565,-9322.436850
7133.205821,-2718.246474,363.709035,-10700.702667
7133.208392,1531.406464,1091.127106,-10011.569758
7133.210963,1646.261949,1646.261949,-9437.292334
7133.213533,-3713.660675,-1627.119368,-9647.860723
7133.216104,76.570323,2641.676150,-8958.727814
7133.218674,-1071.984525,2967.100024,-10011.569758
7133.221245,-2450.250342,-3254.238736,-11332.407834
7133.223816,4804.787781,5283.352301,-8288.737486
7133.226386,2163.111630,-3120.240670,-10432.706536
7133.228957,1990.828403,2335.394858,-9533.005238
7133.231527,-325.423874,746.560651,-10509.276859
7133.234098,401.994197,-478.564520,-10068.997501
7133.236669,2986.242605,2105.683888,-9379.864592
7133.239239,4230.510357,-478.564520,-10241.280728
7133.241810,-267.996131,-57.427742,-9245.866526
7133.244380,-631.705166,2086.541307,-9265.009107
7133.246951,1895.115499,-689.132909,-10509.276859
7133.249522,2852.244539,2277.967115,-9896.714274
7133.252092,1282.552914,-95.712904,-9743.573627
7133.254663,1799.402595,1665.404530,-8709.874264
7133.257233,823.130974,574.277424,-10107.282662
7133.259804,421.136778,727.418070,-10298.708470
7133.262375,5053.641331,1531.406464,-9781.858789
7133.264946,4039.084549,-153.140646,-9858.429112
7133.267517,861.416136,1588.834206,-8824.729749
7133.270088,-2048.256146,689.132909,-10164.710405
7133.272659,3522.234867,325.423874,-9934.999435
7133.275230,3349.951640,1339.980656,-9896.714274
7133.277801,382.851616,1952.543242,-10509.276859
7133.280372,4728.217458,-2163.111630,-8958.727814
7133.282944,-2603.390989,2967.100024,-8384.450390
7133.285515,-1320.838075,-2622.533570,-11925.827838
7133.288086,-1473.978722,3024.527766,-9628.718142
7133.290657,2297.109696,-1473.978722,-10547.562021
7133.293228,-363.709035,918.843878,-9437.292334
7133.295799,306.281293,2316.252277,-8518.448456
7133.298370,-4039.084549,-861.416136,-11121.839445
7133.300941,-1052.841944,2239.681954,-9456.434915
7133.303512,2373.680019,1397.408398,-9571.290400
7133.306084,-1933.400661,-1435.693560,-11026.126541
7133.308655,-899.701298,2967.100024,-8575.876198
7133.311226,-1550.549045,-421.136778,-9647.860723
7133.313797,-95.712904,-172.283227,-10490.134278
7133.316368,937.986459,1665.404530,-9705.288466
7133.318939,-478.564520,-1301.695494,-10356.136213
7133.321510,-2545.963246,1665.404530,-9092.725880
7133.324081,-2737.389054,516.849682,-9513.862658
7133.326652,-746.560651,440.279358,-10853.843314
7133.329224,-172.283227,2143.969050,-10011.569758
7133.331795,1052.841944,-1014.556782,-9973.284597
7133.334366,-3215.953574,1263.410333,-8939.585234
7133.336937,421.136778,-612.562586,-10164.710405
7133.339508,-3522.234867,-1799.402595,-11006.983960
7133.342079,3101.098090,3637.090352,-8977.870395
7133.344650,1703.689691,-1186.840010,-10202.995566
7133.347221,3522.234867,382.851616,-9399.007173
7133.349793,2928.814862,4115.654872,-8518.448456
7133.352364,-516.849682,-4689.932296,-11523.833642
7133.354935,1588.834206,5742.774240,-8729.016845
7133.357506,2756.531635,0.000000,-10317.851051
7133.360077,2756.531635,-1569.691626,-9992.427178
7133.362648,784.845813,4364.508422,-7944.171032
7133.365219,1052.841944,-2947.957443,-11026.126541
7133.367790,1550.549045,3292.523898,-10107.282662
7133.370362,3885.943902,382.851616,-9801.001370
7133.372933,210.568389,-1052.841944,-9724.431046
7133.375504,650.847747,2584.248408,-8805.587168
7133.378075,1933.400661,-631.705166,-10164.710405
7133.380646,2124.826469,918.843878,-10126.425243
7133.383217,4938.785846,1588.834206,-10049.854920
7133.385789,1320.838075,-1454.836141,-9781.858789
7133.388360,-2143.969050,2029.113565,-9533.005238
7133.390931,3732.803256,-746.560651,-9609.575562
7133.393502,1493.121302,1741.974853,-10107.282662
7133.396073,363.709035,2794.816797,-10566.704602
7133.398644,6987.041992,-2871.387120,-9571.290400
7133.401216,-3062.812928,2431.107762,-8556.733618
7133.403787,-669.990328,-957.129040,-10490.134278
7133.406358,-1263.410333,1205.982590,-10126.425243
7133.408929,-2852.244539,1359.123237,-10145.567824
7133.411500,1263.410333,-1722.832272,-9647.860723
7133.414071,497.707101,2431.107762,-8595.018779
7133.416643,-5532.205851,574.277424,-10853.843314
7133.419214,1071.984525,-842.273555,-9839.286531
7133.421785,1110.269686,4287.938099,-9016.155557
7133.424356,-1167.697429,-2373.680019,-11121.839445
7133.426927,287.138712,2258.824534,-8633.303941
7133.429498,-1493.121302,1148.554848,-9322.436850
7133.432070,-1205.982590,-1703.689691,-10624.132344
7133.434641,669.990328,2947.957443,-9839.286531
7133.437212,248.853550,-784.845813,-10049.854920
7133.439783,-3062.812928,1129.412267,-8939.585234
7133.442354,-4019.941968,1071.984525,-9437.292334
7133.444925,-76.570323,-248.853550,-10662.417506
7133.447496,-325.423874,2737.389054,-9915.856854
7133.450068,-555.134843,-1875.972918,-10470.991698
7133.452639,-1493.121302,2239.681954,-8480.163294
7133.455210,1799.402595,-210.568389,-9801.001370
7133.457781,-2947.957443,-2794.816797,-11006.983960
7133.460352,3081.955509,5091.926493,-8843.872330
7133.462923,2067.398726,-2450.250342,-10815.558152
7133.465495,2909.672282,1684.547110,-8499.305875
7133.468066,2450.250342,4230.510357,-8518.448456
7133.470637,-267.996131,-4766.502619,-11638.689126
7133.473208,1339.980656,6029.912952,-8480.163294
7133.475780,2450.250342,-248.853550,-10585.847182
7133.478351,2584.248408,-1588.834206,-10241.280728
7133.480922,421.136778,4249.652938,-7867.600709
7133.483493,1091.127106,-2450.250342,-11006.983960
7133.486065,1148.554848,3101.098090,-10030.712339
7133.488636,2871.387120,421.136778,-9915.856854
7133.491207,1129.412267,-708.275490,-9820.143950
7133.493779,-669.990328,2163.111630,-8939.585234
7133.496350,2239.681954,-421.136778,-9973.284597
7133.498921,4058.227130,1339.980656,-10145.567824
7133.501492,2316.252277,1129.412267,-10298.708470
7133.504064,3790.230998,267.996131,-9284.151688
7133.506635,880.558717,-459.421939,-9475.577496
7133.509206,306.281293,1550.549045,-9705.288466
7133.511778,3924.229064,-153.140646,-10317.851051
7133.514349,2143.969050,2009.970984,-10509.276859
7133.516920,-574.277424,-306.281293,-8920.442653
7133.519491,1761.117434,2679.961312,-8575.876198
7133.522063,-2258.824534,-2201.396792,-11485.548480
7133.524634,-3407.379382,3483.949706,-9226.723946
7133.527205,1665.404530,-459.421939,-10700.702667
7133.529776,133.998066,2335.394858,-8882.157491
7133.532348,-210.568389,2048.256146,-8920.442653
7133.534919,-2067.398726,-2488.535504,-11006.983960
7133.537490,-1895.115499,3560.520029,-9150.153622
7133.540062,2201.396792,-114.855485,-10126.425243
7133.542633,-784.845813,-382.851616,-11179.267187
7133.545204,-1282.552914,2603.390989,-8154.739421
7133.547775,-210.568389,-1110.269686,-9245.866526
7133.550347,-133.998066,1186.840010,-10643.274925
7133.552918,-1684.547110,765.703232,-10451.849117
7133.555489,-708.275490,38.285162,-10030.712339
7133.558060,-3981.656806,1607.976787,-8997.012976
7133.560632,-1990.828403,-401.994197,-9992.427178
7133.563203,-363.709035,1895.115499,-10279.565890
7133.565774,708.275490,306.281293,-10643.274925
7133.568346,-2928.814862,459.421939,-9284.151688
7133.570917,459.421939,-153.140646,-9686.145885
7133.573465,-1971.685822,1339.980656,-10145.567824
7133.576013,1244.267752,-133.998066,-8939.585234
7133.578561,1091.127106,153.140646,-10700.702667
7133.581109,4077.369710,-880.558717,-9954.142016
7133.583657,4000.799387,3713.660675,-8614.161360
7133.586206,-287.138712,-4938.785846,-10911.271056
7133.588754,1129.412267,5053.641331,-8767.302006
7133.591302,2565.105827,229.710970,-10911.271056
7133.593850,4230.510357,-1091.127106,-9973.284597
7133.596398,382.851616,2947.957443,-8499.305875
7133.598946,-267.996131,-1014.556782,-9973.284597
7133.601494,1091.127106,2890.529701,-9877.571693
7133.604042,2794.816797,918.843878,-10279.565890
7133.606591,765.703232,-823.130974,-9992.427178
7133.609139,1703.689691,2086.541307,-9035.298138
7133.611687,1569.691626,-708.275490,-10222.138147
7133.614235,3254.238736,976.271621,-9475.577496
7133.616783,3847.658741,1761.117434,-10088.140082
7133.619331,3139.383251,267.996131,-10049.854920
7133.621879,-382.851616,708.275490,-9150.153622
7133.624427,2067.398726,1569.691626,-9169.296203
7133.626975,1761.117434,-555.134843,-10394.421374
7133.629524,2545.963246,1761.117434,-10394.421374
7133.632072,-191.425808,612.562586,-9513.862658
7133.634620,1569.691626,2182.254211,-8671.589102
7133.637168,-2105.683888,-1665.404530,-10566.704602
7133.639716,-3483.949706,3062.812928,-9207.581365
7133.642264,1550.549045,-995.414202,-10834.700733
7133.644812,-363.709035,1378.265818,-9934.999435
7133.647360,1129.412267,1607.976787,-8614.161360
7133.649909,-1703.689691,-2603.390989,-10719.845248
7133.652457,-1895.115499,3713.660675,-8977.870395
7133.655005,1780.260014,-440.279358,-10317.851051
7133.657553,-133.998066,-76.570323,-11121.839445
7133.660101,-2297.109696,2526.820666,-8556.733618
7133.662649,1110.269686,-1205.982590,-9265.009107
7133.665197,-172.283227,1550.549045,-10068.997501
7133.667745,-382.851616,1110.269686,-10202.995566
7133.670294,-497.707101,-210.568389,-10279.565890
7133.672842,-4173.082614,2220.539373,-8997.012976
7133.675371,-382.851616,-1550.549045,-10049.854920
7133.677900,-114.855485,3062.812928,-9513.862658
7133.680429,-1588.834206,-1569.691626,-11006.983960
7133.682958,-76.570323,2450.250342,-8824.729749
7133.685487,-401.994197,3196.810994,-9092.725880
7133.688016,-2679.961312,-4345.365842,-10987.841379
7133.690545,3541.377448,5685.346498,-8327.022648
7133.693074,1493.121302,-3005.385186,-11504.691061
7133.695603,2813.959378,2373.680019,-9054.440718
7133.698132,2679.961312,4249.652938,-8518.448456
7133.700661,210.568389,-5111.069074,-11255.837510
7133.703190,784.845813,5532.205851,-8116.454259
7133.705719,2258.824534,-287.138712,-11179.267187
7133.708248,1761.117434,-172.283227,-9877.571693
7133.710777,746.560651,2526.820666,-8480.163294
7133.713306,1512.263883,-1684.547110,-10624.132344
7133.715835,1148.554848,2143.969050,-9628.718142
7133.718364,2431.107762,861.416136,-9743.573627
7133.720893,1033.699363,133.998066,-10049.854920
7133.723422,2220.539373,1512.263883,-9073.583299
7133.725951,612.562586,-421.136778,-9686.145885
7133.728480,5206.781978,1110.269686,-9781.858789
7133.731009,4689.932296,1607.976787,-9896.714274
7133.733539,-497.707101,57.427742,-10107.282662
7133.736068,2258.824534,727.418070,-8863.014910
7133.738597,2277.967115,114.855485,-9571.290400
7133.741126,-1263.410333,2450.250342,-11026.126541
7133.743655,5072.783912,-995.414202,-9667.003304
7133.746184,-631.705166,1665.404530,-9016.155557
7133.748713,-19.142581,-1397.408398,-10566.704602
7133.751242,-2775.674216,1780.260014,-9303.294269
7133.753771,-2297.109696,-382.851616,-10624.132344
7133.756300,535.992262,1148.554848,-9973.284597
7133.758829,1339.980656,1244.267752,-8882.157491
7133.761358,-4441.078746,267.996131,-10509.276859
7133.763887,-937.986459,421.136778,-9092.725880
7133.766416,593.420005,2545.963246,-9054.440718
7133.768945,-708.275490,-995.414202,-11466.405899
7133.771474,593.420005,2450.250342,-9169.296203
7133.774003,-1512.263883,114.855485,-9226.723946
7133.776539,-899.701298,842.273555,-9858.429112
7133.779075,593.420005,2009.970984,-9820.143950
7133.781611,-918.843878,-727.418070,-10892.128475
7133.784147,-4345.365842,1818.545176,-9303.294269
7133.786682,-497.707101,-306.281293,-9399.007173
7133.789218,-708.275490,1684.547110,-9992.427178
7133.791754,-2488.535504,-1033.699363,-10528.419440
7133.794290,823.130974,2565.105827,-9092.725880
7133.796826,2335.394858,1052.841944,-9896.714274
7133.799362,-3713.660675,-4460.221326,-10834.700733
7133.801898,2871.387120,5723.631659,-8154.739421
7133.804433,1512.263883,-2660.818731,-11389.835576
7133.806969,3081.955509,1856.830338,-9284.151688
7133.809505,3043.670347,5053.641331,-8346.165229
7133.812041,210.568389,-5359.922624,-11389.835576
7133.814577,76.570323,5532.205851,-7925.028451
7133.817113,2163.111630,-229.710970,-10738.987829
7133.819649,3637.090352,-765.703232,-10777.272990
7133.822184,765.703232,3426.521963,-8250.452325
7133.824720,306.281293,-1665.404530,-10375.278794
7133.827256,976.271621,2392.822600,-9609.575562
7133.829792,3235.096155,516.849682,-9877.571693
7133.832328,1129.412267,191.425808,-10241.280728
7133.834864,1359.123237,1799.402595,-9169.296203
7133.837400,2679.961312,-210.568389,-9590.432981
7133.839935,1110.269686,172.283227,-9896.714274
7133.842471,4460.221326,2507.678085,-9456.434915
7133.845007,1646.261949,-153.140646,-10643.274925
7133.847543,95.712904,1646.261949,-9150.153622
7133.850079,1033.699363,-650.847747,-9533.005238
7133.852615,2048.256146,1588.834206,-10317.851051
7133.855151,-382.851616,612.562586,-9533.005238
7133.857686,2775.674216,2143.969050,-9533.005238
7133.860222,-459.421939,-1818.545176,-11083.554283
7133.862758,-5053.641331,2526.820666,-8709.874264
7133.865294,95.712904,-631.705166,-10336.993632
7133.867830,612.562586,1416.550979,-9992.427178
7133.870366,976.271621,1033.699363,-9245.866526
7133.872902,-3043.670347,-957.129040,-10470.991698
7133.875437,-1799.402595,2603.390989,-8652.446522
7133.877979,669.990328,-382.851616,-9724.431046
7133.880520,-650.847747,306.281293,-11274.980091
7133.883061,-1627.119368,2392.822600,-9131.011042
7133.885603,-306.281293,-976.271621,-9533.005238
7133.888144,1397.408398,1148.554848,-9686.145885
7133.890685,-1856.830338,1627.119368,-9705.288466
7133.893227,-1167.697429,-555.134843,-10700.702667
7133.895768,-1761.117434,2392.822600,-8939.585234
7133.898309,-2622.533570,-133.998066,-10107.282662
7133.900851,-555.134843,957.129040,-10030.712339
7133.903392,-1875.972918,421.136778,-9475.577496
7133.905934,1033.699363,-306.281293,-10164.710405
7133.908475,-440.279358,3503.092286,-9877.571693
7133.911016,-421.136778,-2392.822600,-10470.991698
7133.913558,516.849682,4326.223261,-8652.446522
7133.916099,1416.550979,-3560.520029,-10930.413637
7133.918640,5149.354235,3369.094221,-9571.290400
7133.921182,1110.269686,-2431.107762,-10604.989763
7133.923723,-191.425808,1933.400661,-8958.727814
7133.926264,2086.541307,1033.699363,-9820.143950
7133.928806,3311.666478,-574.277424,-10470.991698
7133.931347,1550.549045,1895.115499,-9418.149754
7133.933888,1359.123237,95.712904,-9609.575562
7133.936430,95.712904,669.990328,-9571.290400
7133.938971,2411.965181,1359.123237,-9954.142016
7133.941512,995.414202,76.570323,-9590.432981
7133.944054,995.414202,1646.261949,-9494.720077
7133.946595,1033.699363,-191.425808,-10375.278794
7133.949136,2258.824534,918.843878,-9111.868461
7133.951678,4843.072942,1282.552914,-9590.432981
7133.954219,1052.841944,114.855485,-10490.134278
7133.956760,4364.508422,842.273555,-9169.296203
7133.959302,382.851616,421.136778,-9552.147819
7133.961843,-2316.252277,2048.256146,-10336.993632
7133.964384,6240.481341,-1282.552914,-10202.995566
7133.966926,746.560651,1607.976787,-9609.575562
7133.969467,784.845813,-1473.978722,-10777.272990
7133.972008,-3369.094221,2182.254211,-8767.302006
7133.974550,-2928.814862,957.129040,-10298.708470
7133.977091,1339.980656,-593.420005,-10030.712339
7133.979638,325.423874,1933.400661,-9169.296203
7133.982184,-2947.957443,593.420005,-10777.272990
7133.984730,-172.283227,-861.416136,-9303.294269
7133.987277,-1990.828403,3426.521963,-8958.727814
7133.989823,-1665.404530,-689.132909,-11236.694930
7133.992369,1359.123237,2584.248408,-9131.011042
7133.994916,-363.709035,-267.996131,-9494.720077
7133.997462,-1818.545176,-287.138712,-9762.716208
7134.000008,1339.980656,2450.250342,-9494.720077
7134.002555,-689.132909,-287.138712,-10796.415571
7134.005101,-3522.234867,1531.406464,-9609.575562
7134.007647,-1684.547110,631.705166,-9552.147819
7134.010194,-382.851616,746.560651,-9954.142016
7134.012740,-4019.941968,306.281293,-9552.147819
7134.015286,1933.400661,-535.992262,-10624.132344
7134.017833,-650.847747,2565.105827,-9915.856854
7134.020379,-191.425808,-1225.125171,-9954.142016
7134.022925,-421.136778,3426.521963,-8901.300072
7134.025472,1569.691626,-3503.092286,-10662.417506
7134.028018,4766.502619,2947.957443,-9743.573627
7134.030564,2220.539373,650.847747,-10183.852986
7134.033111,-363.709035,-1186.840010,-9628.718142
7134.035657,2124.826469,2373.680019,-8939.585234
7134.038203,2947.957443,-267.996131,-10222.138147
7134.040749,1627.119368,2067.398726,-9724.431046
7134.043296,1971.685822,-382.851616,-9724.431046
7134.045842,708.275490,1416.550979,-9092.725880
7134.048388,363.709035,631.705166,-10336.993632
7134.050935,1435.693560,401.994197,-9839.286531
7134.053481,3694.518094,1378.265818,-9437.292334
7134.056027,1244.267752,57.427742,-9992.427178
7134.058574,1167.697429,803.988394,-9571.290400
7134.061120,4594.219392,2277.967115,-9475.577496
7134.063666,3407.379382,-1014.556782,-10528.419440
7134.066213,1435.693560,1990.828403,-9265.009107
7134.068759,1818.545176,-765.703232,-9801.001370
7134.071305,-746.560651,2009.970984,-10049.854920
7134.073852,937.986459,-421.136778,-9609.575562
7134.076398,1971.685822,2469.392923,-9284.151688
7134.078944,459.421939,-1933.400661,-11523.833642
7134.081495,-3522.234867,2392.822600,-8633.303941
7134.084046,497.707101,-2105.683888,-10815.558152
7134.086596,-382.851616,2450.250342,-9628.718142
7134.089147,1320.838075,957.129040,-9322.436850
7134.091698,-3522.234867,-593.420005,-10796.415571
7134.094249,-861.416136,1895.115499,-8748.159426
7134.096799,669.990328,1359.123237,-9245.866526
7134.099350,-478.564520,612.562586,-10834.700733
7134.101901,-248.853550,2679.961312,-9016.155557
7134.104452,-325.423874,-1607.976787,-10030.712339
7134.107002,172.283227,1550.549045,-9379.864592
7134.109553,-1205.982590,1550.549045,-9552.147819
7134.112104,-2756.531635,-861.416136,-11160.124606
7134.114655,-976.271621,1799.402595,-9111.868461
7134.117205,-1186.840010,937.986459,-9628.718142
7134.119756,-4613.361973,-708.275490,-10107.282662
7134.122307,1339.980656,2029.113565,-9169.296203
7134.124857,2679.961312,2450.250342,-9896.714274
7134.127408,-2641.676150,-3024.527766,-10624.132344
7134.129959,1320.838075,3809.373579,-8422.735552
7134.132510,535.992262,-1320.838075,-10643.274925
7134.135060,3120.240670,1167.697429,-9590.432981
7134.137611,3694.518094,4326.223261,-8920.442653
7134.140162,1167.697429,-4230.510357,-11121.839445
7134.142713,1110.269686,3349.951640,-8441.878133
7134.145263,995.414202,-344.566454,-10777.272990
7134.147814,3809.373579,497.707101,-10183.852986
7134.150365,1607.976787,1703.689691,-8997.012976
7134.152916,-248.853550,-1014.556782,-10394.421374
7134.155466,2411.965181,2316.252277,-9265.009107
7134.158017,1512.263883,-287.138712,-10145.567824
7134.160568,-382.851616,669.990328,-10145.567824
7134.163118,3828.516160,1914.258080,-9341.579430
7134.165669,1895.115499,535.992262,-9724.431046
7134.168220,4441.078746,1607.976787,-9552.147819
7134.170771,3139.383251,-363.709035,-9973.284597
7134.173321,3349.951640,1225.125171,-9686.145885
7134.175872,1244.267752,-114.855485,-9724.431046
7134.178423,-1990.828403,2584.248408,-10107.282662
7134.180974,3828.516160,-1646.261949,-10222.138147
7134.183528,306.281293,2105.683888,-8882.157491
7134.186083,1071.984525,-1301.695494,-11083.554283
7134.188638,-2622.533570,1263.410333,-9322.436850
7134.191193,-1684.547110,-382.851616,-10049.854920
7134.193747,803.988394,1033.699363,-10298.708470
7134.196302,555.134843,1186.840010,-9265.009107
7134.198857,-3062.812928,229.710970,-10375.278794
7134.201412,-612.562586,421.136778,-9226.723946
7134.203966,-1473.978722,2316.252277,-8997.012976
7134.206521,153.140646,-1167.697429,-11083.554283
7134.209076,497.707101,2718.246474,-9647.860723
7134.211631,-382.851616,248.853550,-9533.005238
7134.214185,-1378.265818,650.847747,-9724.431046
7134.216740,574.277424,2143.969050,-9360.722011
7134.219295,-2316.252277,-689.132909,-10949.556218
7134.221850,-2201.396792,1052.841944,-9724.431046
7134.224405,-976.271621,1627.119368,-9341.579430
7134.226959,-4287.938099,-1531.406464,-10317.851051
7134.229514,669.990328,3196.810994,-8958.727814
7134.232069,4192.225195,1282.552914,-9954.142016
7134.234624,-2526.820666,-2182.254211,-10738.987829
7134.237178,153.140646,3503.092286,-8518.448456
7134.239733,-727.418070,-1952.543242,-10432.706536
7134.242288,4134.797453,1895.115499,-9628.718142
7134.244843,3924.229064,3560.520029,-9207.581365
7134.247397,842.273555,-3541.377448,-10815.558152
7134.249952,229.710970,4862.215523,-8001.598774
7134.252507,1952.543242,-1129.412267,-10509.276859
7134.255062,4307.080680,459.421939,-10317.851051
7134.257616,669.990328,2258.824534,-9188.438784
7134.260171,1971.685822,-1071.984525,-10088.140082
7134.262726,937.986459,1588.834206,-9418.149754
7134.265281,918.843878,-229.710970,-10011.569758
7134.267835,3694.518094,1531.406464,-9801.001370
7134.270390,1684.547110,612.562586,-9705.288466
7134.272945,478.564520,-229.710970,-9667.003304
7134.275500,3751.945837,2163.111630,-9456.434915
7134.278054,4517.649069,-842.273555,-10011.569758
7134.280609,1684.547110,1627.119368,-9628.718142
7134.283164,1952.543242,0.000000,-10126.425243
7134.285701,1435.693560,1359.123237,-9207.581365
7134.288237,-555.134843,823.130974,-9954.142016
7134.290774,2545.963246,2584.248408,-9494.720077
7134.293310,765.703232,-1856.830338,-10509.276859
7134.295847,-4460.221326,2967.100024,-8939.585234
7134.298383,-803.988394,-1129.412267,-10375.278794
7134.300920,746.560651,1435.693560,-9858.429112
7134.303457,535.992262,1110.269686,-9418.149754
7134.305993,-3483.949706,-95.712904,-10432.706536
7134.308530,-287.138712,2679.961312,-9073.583299
7134.311066,-191.425808,57.427742,-9724.431046
7134.313603,-1091.127106,153.140646,-10892.128475
7134.316139,918.843878,2833.101958,-9284.151688
7134.318676,-306.281293,-1512.263883,-9992.427178
7134.321213,-2297.109696,995.414202,-9552.147819
7134.323749,-287.138712,2029.113565,-9399.007173
7134.326286,-727.418070,-803.988394,-10987.841379
7134.328822,-4211.367776,2201.396792,-9456.434915
7134.331359,-76.570323,-1473.978722,-10126.425243
7134.333896,-1741.974853,1914.258080,-9169.296203
7134.336432,2335.394858,-823.130974,-10643.274925
7134.338969,-631.705166,1895.115499,-10298.708470
7134.341505,1244.267752,823.130974,-9456.434915
7134.344042,-1186.840010,1684.547110,-9360.722011
7134.346578,669.990328,-2105.683888,-10030.712339
7134.349115,4766.502619,2890.529701,-9858.429112
7134.351652,2928.814862,-995.414202,-10796.415571
7134.354188,-267.996131,899.701298,-9188.438784
7134.356725,2679.961312,-957.129040,-10202.995566
7134.359261,2163.111630,38.285162,-9934.999435
7134.361798,2029.113565,3177.668413,-9437.292334
7134.364334,1569.691626,-1397.408398,-10202.995566
7134.366871,440.279358,1952.543242,-9054.440718
7134.369408,765.703232,153.140646,-10375.278794
7134.371944,1033.699363,382.851616,-9743.573627
7134.374481,3349.951640,1761.117434,-9494.720077
7134.377017,382.851616,-516.849682,-10145.567824
7134.379554,3694.518094,2469.392923,-9073.583299
7134.382090,4728.217458,114.855485,-9801.001370
7134.384627,3254.238736,516.849682,-9839.286531
7134.387170,478.564520,899.701298,-9513.862658
7134.389712,-1397.408398,2431.107762,-10336.993632
7134.392255,2756.531635,-1741.974853,-10011.569758
7134.394798,555.134843,1665.404530,-8958.727814
7134.397340,1741.974853,-574.277424,-10834.700733
7134.399883,-2603.390989,1091.127106,-9590.432981
7134.402425,-3828.516160,2871.387120,-9169.296203
7134.404968,918.843878,95.712904,-10413.563955
7134.407511,-76.570323,1703.689691,-9399.007173
7134.410053,-2354.537438,784.845813,-10298.708470
7134.412596,-1627.119368,-382.851616,-9322.436850
7134.415139,-1091.127106,2794.816797,-8977.870395
7134.417681,516.849682,-1569.691626,-11179.267187
7134.420224,-344.566454,2201.396792,-9743.573627
7134.422767,-401.994197,823.130974,-9322.436850
7134.425309,440.279358,-1014.556782,-9609.575562
7134.427852,459.421939,2201.396792,-9456.434915
7134.430394,-1512.263883,-535.992262,-10815.558152
7134.432937,-3866.801322,2239.681954,-9609.575562
7134.435480,-2029.113565,-57.427742,-9801.001370
7134.438022,-3483.949706,344.566454,-9647.860723
7134.440565,1780.260014,459.421939,-10049.854920
7134.443108,1512.263883,2450.250342,-10049.854920
7134.445650,-76.570323,-1110.269686,-10030.712339
7134.448193,478.564520,2928.814862,-9131.011042
7134.450736,746.560651,-2469.392923,-10451.849117
7134.453278,5283.352301,3713.660675,-9513.862658
7134.455821,2737.389054,-2143.969050,-11102.696864
7134.458363,-593.420005,1703.689691,-8824.729749
7134.460906,2718.246474,1148.554848,-9571.290400
7134.463449,1071.984525,-516.849682,-10470.991698
7134.465991,3541.377448,2507.678085,-9360.722011
7134.468534,1761.117434,-1033.699363,-10049.854920
7134.471077,-1435.693560,1167.697429,-9647.860723
7134.473619,1780.260014,344.566454,-10375.278794
7134.476162,2316.252277,153.140646,-9724.431046
7134.478704,2277.967115,2048.256146,-9667.003304
7134.481247,1282.552914,-976.271621,-10336.993632
7134.483790,4747.360038,2411.965181,-8958.727814
7134.486332,3196.810994,-555.134843,-10049.854920
7134.488880,2928.814862,1110.269686,-9533.005238
7134.491428,1512.263883,325.423874,-10049.854920
7134.493976,-1914.258080,2335.394858,-9896.714274
7134.496524,2833.101958,-1282.552914,-9667.003304
7134.499072,2603.390989,2392.822600,-9494.720077
7134.501621,803.988394,-1665.404530,-11102.696864
7134.504169,-4096.512291,2411.965181,-8843.872330
7134.506717,-2660.818731,19.142581,-9954.142016
7134.509265,1110.269686,267.996131,-10336.993632
7134.511813,57.427742,1646.261949,-9188.438784
7134.514361,-3637.090352,-516.849682,-10566.704602
7134.516909,-727.418070,1646.261949,-9016.155557
7134.519457,114.855485,1588.834206,-9265.009107
7134.522005,-172.283227,-727.418070,-11370.692995
7134.524553,784.845813,2641.676150,-8997.012976
7134.527101,-344.566454,-593.420005,-9552.147819
7134.529649,-1722.832272,421.136778,-9934.999435
7134.532197,-803.988394,2009.970984,-9533.005238
7134.534745,-1569.691626,-574.277424,-10853.843314
7134.537293,-1014.556782,2756.531635,-9322.436850
7134.539841,-6010.770371,-1818.545176,-10088.140082
7134.542389,-229.710970,2660.818731,-8997.012976
7134.544937,4996.213589,1646.261949,-9915.856854
7134.547485,-1875.972918,-2775.674216,-11083.554283
7134.550033,-421.136778,4077.369710,-8154.739421
7134.552581,287.138712,-248.853550,-9915.856854
7134.555129,2354.537438,-76.570323,-10030.712339
7134.557677,3579.662610,4039.084549,-9035.298138
7134.560225,1627.119368,-4230.510357,-11121.839445
7134.562773,191.425808,5761.916821,-7867.600709
7134.565321,2488.535504,-1895.115499,-10241.280728
7134.567869,3617.947771,363.709035,-10164.710405
7134.570421,1167.697429,3273.381317,-9341.579430
7134.572974,1990.828403,-2297.109696,-10241.280728
7134.575526,-1493.121302,2928.814862,-9188.438784
7134.578078,2431.107762,-38.285162,-10241.280728
7134.580630,1416.550979,114.855485,-9590.432981
7134.583183,516.849682,114.855485,-10145.567824
7134.585735,3809.373579,1244.267752,-9609.575562
7134.588287,3790.230998,918.843878,-9762.716208
7134.590840,3349.951640,-344.566454,-10202.995566
7134.593392,1129.412267,1761.117434,-9150.153622
7134.595944,-765.703232,1780.260014,-10413.563955
7134.598496,2909.672282,-2182.254211,-10164.710405
7134.601049,899.701298,2431.107762,-8843.872330
7134.603601,497.707101,153.140646,-10681.560086
7134.606153,-2967.100024,803.988394,-9494.720077
7134.608705,-3694.518094,3483.949706,-9169.296203
7134.611258,1569.691626,-2679.961312,-10681.560086
7134.613810,-382.851616,2718.246474,-9131.011042
7134.616362,-995.414202,1550.549045,-10298.708470
7134.618915,-2928.814862,-1761.117434,-9954.142016
7134.621467,-459.421939,2986.242605,-8786.444587
7134.624019,1646.261949,-1320.838075,-10681.560086
7134.626571,-1205.982590,803.988394,-10394.421374
7134.629124,-669.990328,2009.970984,-9437.292334
7134.631676,-478.564520,-918.843878,-9628.718142
7134.634228,421.136778,2679.961312,-9571.290400
7134.636781,-1263.410333,-401.994197,-10796.415571
7134.639333,-2660.818731,1588.834206,-9571.290400
7134.641885,-4900.500685,-133.998066,-9934.999435
7134.644437,-2565.105827,1205.982590,-9399.007173
7134.646990,4900.500685,344.566454,-9820.143950
7134.649542,-727.418070,421.136778,-10853.843314
7134.652094,-765.703232,3637.090352,-8135.596840
7134.654646,-38.285162,459.421939,-9839.286531
7134.657199,2392.822600,-803.988394,-10413.563955
7134.659751,4843.072942,4632.504554,-8843.872330
7134.662303,2737.389054,-5053.641331,-11542.976222
7134.664856,-363.709035,4785.645200,-8231.309744
7134.667408,3101.098090,-612.562586,-9915.856854
7134.669960,1818.545176,-306.281293,-10241.280728
7134.672516,3158.525832,3713.660675,-9188.438784
7134.675073,1684.547110,-2354.537438,-10222.138147
7134.677629,382.851616,3081.955509,-9284.151688
7134.680185,555.134843,-210.568389,-10317.851051
7134.682741,3005.385186,535.992262,-9705.288466
7134.685297,57.427742,1416.550979,-9858.429112
7134.687854,4747.360038,153.140646,-9858.429112
7134.690410,3158.525832,1186.840010,-8958.727814
7134.692966,4498.506488,-287.138712,-10088.140082
7134.695522,1493.121302,1091.127106,-9475.577496
7134.698078,-1531.406464,1875.972918,-9973.284597
7134.700635,2967.100024,-2584.248408,-10356.136213
7134.703191,-287.138712,2163.111630,-8690.731683
7134.705747,2392.822600,-689.132909,-10930.413637
7134.708303,-2660.818731,765.703232,-9590.432981
7134.710859,-4173.082614,3503.092286,-9131.011042
7134.713416,1110.269686,-2947.957443,-10585.847182
7134.715972,-267.996131,2986.242605,-9035.298138
7134.718528,-325.423874,1148.554848,-10490.134278
7134.721084,-3579.662610,-1569.691626,-10183.852986
7134.723640,-1780.260014,2603.390989,-9552.147819
7134.726197,1205.982590,-957.129040,-11045.269122
7134.728753,421.136778,1454.836141,-10222.138147
7134.731309,-1397.408398,957.129040,-9226.723946
7134.733865,191.425808,-823.130974,-9494.720077
7134.736421,-2373.680019,1799.402595,-9839.286531
7134.738978,-1875.972918,-306.281293,-10604.989763
7134.741534,-1339.980656,1397.408398,-10030.712339
7134.744090,-5627.918755,-306.281293,-9877.571693
7134.746646,-1684.547110,1320.838075,-8977.870395
7134.749202,3828.516160,2947.957443,-9552.147819
7134.751759,-689.132909,-3656.232933,-11236.694930
7134.754315,-325.423874,3962.514226,-8327.022648
7134.756871,-19.142581,-574.277424,-10356.136213
7134.759427,3254.238736,287.138712,-9954.142016
7134.761984,4153.940034,4383.651003,-8652.446522
7134.764540,2105.683888,-4977.071008,-11447.263318
7134.767096,38.285162,5723.631659,-7944.171032
7134.769652,2890.529701,-1875.972918,-10222.138147
7134.772208,2029.113565,823.130974,-10049.854920
7134.774768,440.279358,3024.527766,-9226.723946
7134.777327,1263.410333,-1971.685822,-10088.140082
7134.779887,-497.707101,3158.525832,-9188.438784
7134.782447,689.132909,-535.992262,-10509.276859
7134.785006,2699.103893,976.271621,-9647.860723
7134.787566,3043.670347,1416.550979,-9801.001370
7134.790125,1397.408398,-478.564520,-10049.854920
7134.792685,5627.918755,1397.408398,-8786.444587
7134.795244,4747.360038,1320.838075,-9552.147819
7134.797804,-1129.412267,-363.709035,-10298.708470
7134.800364,-229.710970,2086.541307,-9628.718142
7134.802923,459.421939,-363.709035,-9590.432981
7134.805483,2679.961312,3273.381317,-9054.440718
7134.808042,497.707101,-1933.400661,-11064.411702
7134.810602,-3330.809059,2354.537438,-9054.440718
7134.813161,-2392.822600,267.996131,-9686.145885
7134.815721,574.277424,555.134843,-10164.710405
7134.818281,0.000000,976.271621,-9896.714274
7134.820840,-3254.238736,-267.996131,-10432.706536
7134.823400,-1761.117434,2009.970984,-8977.870395
7134.825959,-344.566454,516.849682,-9533.005238
7134.828519,267.996131,-363.709035,-11026.126541
7134.831078,421.136778,2718.246474,-9054.440718
7134.833638,401.994197,-765.703232,-9571.290400
7134.836198,-3292.523898,153.140646,-9973.284597
7134.838757,325.423874,2297.109696,-9360.722011
7134.841317,-3177.668413,-133.998066,-10796.415571
7134.843876,-5053.641331,478.564520,-9915.856854
7134.846436,-3177.668413,1225.125171,-8863.014910
7134.848995,4479.363907,-57.427742,-10030.712339
7134.851555,-1205.982590,1186.840010,-10624.132344
7134.854115,1378.265818,631.705166,-9150.153622
7134.856674,-784.845813,2928.814862,-9399.007173
7134.859234,-114.855485,-3235.096155,-10624.132344
7134.861793,4766.502619,3330.809059,-9150.153622
7134.864353,3292.523898,-784.845813,-11006.983960
7134.866912,-267.996131,4039.084549,-8556.733618
7134.869472,3656.232933,-172.283227,-9877.571693
7134.872032,1512.263883,38.285162,-9954.142016
7134.874591,2622.533570,3235.096155,-9092.725880
7134.877154,1627.119368,-2373.680019,-10566.704602
7134.879716,-1263.410333,2584.248408,-9054.440718
7134.882279,2009.970984,899.701298,-9954.142016
7134.884841,899.701298,-535.992262,-10375.278794
7134.887404,421.136778,2048.256146,-9456.434915
7134.889966,4938.785846,-287.138712,-10011.569758
7134.892529,6010.770371,899.701298,-9016.155557
7134.895091,3215.953574,1339.980656,-9705.288466
7134.897654,1033.699363,-1148.554848,-10336.993632
7134.900217,-1091.127106,4211.367776,-9379.864592
7134.902779,1875.972918,-2373.680019,-9992.427178
7134.905342,153.140646,2584.248408,-8805.587168
7134.907904,1799.402595,-1033.699363,-11255.837510
7134.910467,-2392.822600,746.560651,-9533.005238
7134.913029,-4307.080680,2622.533570,-9341.579430
7134.915592,440.279358,765.703232,-9992.427178
7134.918154,-248.853550,899.701298,-9533.005238
7134.920717,-2048.256146,842.273555,-10241.280728
7134.923279,-2354.537438,976.271621,-9456.434915
7134.925842,-1167.697429,1071.984525,-9379.864592
7134.928404,1512.263883,19.142581,-10509.276859
7134.930967,1205.982590,2411.965181,-9341.579430
7134.933530,-172.283227,-765.703232,-9820.143950
7134.936092,-3062.812928,535.992262,-9628.718142
7134.938655,-57.427742,1761.117434,-9475.577496
7134.941217,-2679.961312,-57.427742,-10662.417506
7134.943780,-6029.912952,574.277424,-9992.427178
7134.946342,-2048.256146,1531.406464,-9111.868461
7134.948905,3656.232933,-593.420005,-10164.710405
7134.951467,-1091.127106,-1186.840010,-10700.702667
7134.954030,-114.855485,2201.396792,-8671.589102
7134.956592,-172.283227,1761.117434,-9686.145885
7134.959155,1665.404530,-1722.832272,-10681.560086
7134.961718,4709.074877,3847.658741,-8805.587168
7134.964280,3024.527766,-3598.805190,-11236.694930
7134.966843,229.710970,3330.809059,-8595.018779
7134.969405,2718.246474,287.138712,-9724.431046
7134.971968,1167.697429,-95.712904,-10317.851051
7134.974530,2431.107762,3426.521963,-9131.011042
7134.977093,1301.695494,-2641.676150,-10356.136213
7134.979662,-535.992262,3292.523898,-8958.727814
7134.982227,1703.689691,-38.285162,-10279.565890
7134.984791,669.990328,-459.421939,-10298.708470
7134.987356,2277.967115,2947.957443,-9188.438784
7134.989920,2947.957443,-1110.269686,-10241.280728
7134.992485,5742.774240,535.992262,-9073.583299
7134.995050,4421.936165,2009.970984,-9494.720077
7134.997614,133.998066,248.853550,-10298.708470
7135.000179,1110.269686,478.564520,-9839.286531
7135.002743,-823.130974,708.275490,-9322.436850
7135.005308,1990.828403,2450.250342,-9724.431046
7135.007872,-38.285162,-1703.689691,-10509.276859
7135.010437,-4173.082614,2986.242605,-9360.722011
7135.013001,-19.142581,-1646.261949,-10451.849117
7135.015566,38.285162,2143.969050,-9456.434915
7135.018131,-267.996131,-153.140646,-10030.712339
7135.020695,-3062.812928,-784.845813,-10126.425243
7135.023260,-1761.117434,2794.816797,-8958.727814
7135.025824,459.421939,-478.564520,-10126.425243
7135.028389,880.558717,803.988394,-10624.132344
7135.030953,172.283227,1990.828403,-9399.007173
7135.033518,-1684.547110,-1148.554848,-9954.142016
7135.036082,-1282.552914,1205.982590,-9399.007173
7135.038647,-2009.970984,1665.404530,-10030.712339
7135.041211,-1895.115499,-153.140646,-10777.272990
7135.043776,-5513.063270,861.416136,-8920.442653
7135.046341,440.279358,-38.285162,-9877.571693
7135.048905,2067.398726,2622.533570,-10030.712339
7135.051470,76.570323,-2392.822600,-10222.138147
7135.054034,1205.982590,3215.953574,-9169.296203
7135.056599,-823.130974,-1588.834206,-10528.419440
7135.059163,3579.662610,1627.119368,-9207.581365
7135.061728,3177.668413,3809.373579,-9035.298138
7135.064292,2067.398726,-4115.654872,-11045.269122
7135.066857,-95.712904,5283.352301,-8269.594906
7135.069422,2852.244539,-1531.406464,-10872.985894
7135.071986,2526.820666,1301.695494,-9934.999435
7135.074551,1473.978722,1531.406464,-9724.431046
7135.077115,-114.855485,-1339.980656,-9820.143950
7135.079680,2182.254211,2890.529701,-9188.438784
7135.082246,555.134843,-1052.841944,-10547.562021
7135.084813,2699.103893,1033.699363,-9762.716208
7135.087379,3656.232933,1282.552914,-9628.718142
7135.089945,3101.098090,-440.279358,-9705.288466
7135.092512,4957.928427,2143.969050,-9475.577496
7135.095078,1665.404530,-1454.836141,-10585.847182
7135.097645,-1818.545176,4345.365842,-9705.288466
7135.100211,2699.103893,-2009.970984,-9705.288466
7135.102777,-401.994197,1761.117434,-8958.727814
7135.105344,1703.689691,-478.564520,-10834.700733
7135.107910,-1818.545176,689.132909,-9533.005238
7135.110477,-4307.080680,2603.390989,-9456.434915
7135.113043,918.843878,-1493.121302,-10126.425243
7135.115609,-497.707101,2450.250342,-9111.868461
7135.118176,-1837.687757,765.703232,-10394.421374
7135.120742,-3771.088418,937.986459,-9437.292334
7135.123309,-19.142581,421.136778,-9647.860723
7135.125875,1052.841944,-57.427742,-10375.278794
7135.128441,0.000000,1722.832272,-9858.429112
7135.131008,-497.707101,95.712904,-9647.860723
7135.133574,1052.841944,153.140646,-9379.864592
7135.136141,-2660.818731,1378.265818,-10049.854920
7135.138707,-1703.689691,382.851616,-10509.276859
7135.141273,-5398.207786,727.418070,-9379.864592
7135.143840,-1454.836141,1359.123237,-9513.862658
7135.146406,4421.936165,1320.838075,-9820.143950
7135.148973,57.427742,-1990.828403,-10700.702667
7135.151539,-153.140646,2641.676150,-8633.303941
7135.154105,-191.425808,976.271621,-9781.858789
7135.156672,2450.250342,-803.988394,-10604.989763
7135.159238,4613.361973,4077.369710,-8671.589102
7135.161805,2660.818731,-3981.656806,-11140.982026
7135.164371,114.855485,4977.071008,-8307.880067
7135.166938,3445.664544,-1359.123237,-10164.710405
7135.169504,1205.982590,880.558717,-10317.851051
7135.172070,1550.549045,2986.242605,-9265.009107
7135.174637,2469.392923,-1990.828403,-10011.569758
7135.177203,-689.132909,2622.533570,-9188.438784
7135.179770,191.425808,95.712904,-10183.852986
7135.182336,3809.373579,440.279358,-9973.284597
7135.184904,2182.254211,2297.109696,-9552.147819
7135.187472,4153.940034,-229.710970,-9590.432981
7135.190040,4709.074877,1818.545176,-8997.012976
7135.192608,1186.840010,-1167.697429,-10547.562021
7135.195177,-1761.117434,3885.943902,-9934.999435
7135.197745,3177.668413,-1741.974853,-10011.569758
7135.200313,-1320.838075,1225.125171,-9150.153622
7135.202881,2277.967115,-57.427742,-10356.136213
7135.205449,-1473.978722,899.701298,-9667.003304
7135.208017,-4479.363907,2679.961312,-9494.720077
7135.210585,937.986459,-2067.398726,-10202.995566
7135.213153,-746.560651,1646.261949,-9513.862658
7135.215722,-1569.691626,248.853550,-10470.991698
7135.218290,-3445.664544,976.271621,-9341.579430
7135.220858,-19.142581,937.986459,-9552.147819
7135.223426,1225.125171,38.285162,-10470.991698
7135.225994,937.986459,1722.832272,-9992.427178
7135.228562,-937.986459,344.566454,-9475.577496
7135.231130,-267.996131,19.142581,-9437.292334
7135.233698,-2488.535504,1856.830338,-9590.432981
7135.236267,-2526.820666,-114.855485,-10815.558152
7135.238835,-5321.637462,880.558717,-9552.147819
7135.241403,-421.136778,957.129040,-9705.288466
7135.243971,3349.951640,1722.832272,-9686.145885
7135.246539,287.138712,-2373.680019,-10509.276859
7135.249107,95.712904,2890.529701,-9016.155557
7135.251675,-593.420005,248.853550,-10107.282662
7135.254243,3024.527766,-38.285162,-10260.423309
7135.256811,4000.799387,3905.086483,-8537.591037
7135.259380,2469.392923,-4192.225195,-10509.276859
7135.261948,306.281293,4460.221326,-8537.591037
7135.264516,3464.807125,-1646.261949,-10432.706536
7135.267084,1359.123237,1071.984525,-10202.995566
7135.269652,1205.982590,2431.107762,-9418.149754
7135.272220,1531.406464,-1550.549045,-9839.286531
7135.274788,-172.283227,2124.826469,-9399.007173
7135.277356,1110.269686,210.568389,-10183.852986
7135.279925,2143.969050,976.271621,-10049.854920
7135.282493,2067.398726,746.560651,-9705.288466
7135.285061,5417.350366,-631.705166,-9475.577496
7135.287630,5072.783912,2622.533570,-9207.581365
7135.290200,995.414202,-1014.556782,-10585.847182
7135.292770,-1627.119368,2316.252277,-9552.147819
7135.295339,114.855485,669.990328,-9284.151688
7135.297909,2603.390989,1646.261949,-9533.005238
7135.300479,727.418070,-1416.550979,-10796.415571
7135.303048,-2392.822600,2565.105827,-9016.155557
7135.305618,-2737.389054,-421.136778,-10394.421374
7135.308188,19.142581,3273.381317,-9092.725880
7135.310757,-1167.697429,-210.568389,-10030.712339
7135.313327,-2086.541307,-57.427742,-10356.136213
7135.315897,-2986.242605,3024.527766,-8786.444587
7135.318466,-172.283227,-899.701298,-10145.567824
7135.321036,1780.260014,1186.840010,-10394.421374
7135.323606,631.705166,1627.119368,-9705.288466
7135.326175,-1550.549045,-976.271621,-9820.143950
7135.328745,133.998066,937.986459,-9437.292334
7135.331314,-1263.410333,1110.269686,-10049.854920
7135.333884,-5570.491013,-823.130974,-11064.411702
7135.336454,-4402.793584,2411.965181,-8939.585234
7135.339023,4096.512291,-669.990328,-9571.290400
7135.341593,-746.560651,2029.113565,-10394.421374
7135.344163,1397.408398,153.140646,-9399.007173
7135.346732,114.855485,2545.963246,-9379.864592
7135.349302,1091.127106,-1818.545176,-10738.987829
7135.351872,4326.223261,3464.807125,-8939.585234
7135.354441,3024.527766,-2392.822600,-10815.558152
7135.357011,593.420005,2029.113565,-8997.012976
7135.359581,2622.533570,1167.697429,-9647.860723
7135.362150,2029.113565,-344.566454,-10528.419440
7135.364720,2316.252277,1665.404530,-9590.432981
7135.367290,1646.261949,-631.705166,-9954.142016
7135.369859,153.140646,1952.543242,-9437.292334
7135.372429,669.990328,593.420005,-10164.710405
7135.374998,2450.250342,689.132909,-10030.712339
7135.377568,1646.261949,1473.978722,-9839.286531
7135.380138,4460.221326,-803.988394,-9954.142016
7135.382707,4977.071008,1531.406464,-8748.159426
7135.385277,1837.687757,-382.851616,-10451.849117
7135.387847,-1512.263883,3196.810994,-10107.282662
7135.390417,3369.094221,-1646.261949,-9131.011042
7135.392988,880.558717,1914.258080,-9360.722011
7135.395559,746.560651,-2067.398726,-11102.696864
7135.398130,-1895.115499,2488.535504,-8920.442653
7135.400701,-3541.377448,765.703232,-10164.710405
7135.403271,306.281293,-574.277424,-10088.140082
7135.405842,-727.418070,2526.820666,-9016.155557
7135.408413,-1244.267752,-363.709035,-10509.276859
7135.410984,-2775.674216,746.560651,-9418.149754
7135.413554,-555.134843,-401.994197,-9915.856854
7135.416125,2431.107762,708.275490,-10298.708470
7135.418696,114.855485,1895.115499,-9839.286531
7135.421267,-2163.111630,-669.990328,-9877.571693
7135.423838,1052.841944,842.273555,-9150.153622
7135.426408,-2143.969050,1914.258080,-9820.143950
7135.428979,-6355.336826,-612.562586,-10949.556218
7135.431550,-3503.092286,2067.398726,-9169.296203
7135.434121,1359.123237,-555.134843,-10088.140082
7135.436691,-229.710970,1339.980656,-10336.993632
7135.439262,1952.543242,708.275490,-9245.866526
7135.441833,133.998066,2718.246474,-9399.007173
7135.444404,-823.130974,-2335.394858,-10758.130410
7135.446974,3828.516160,2545.963246,-9437.292334
7135.449545,4058.227130,76.570323,-10260.423309
7135.452116,918.843878,-38.285162,-9475.577496
7135.454687,1646.261949,2143.969050,-9494.720077
7135.457258,3407.379382,-708.275490,-10490.134278
7135.459828,2603.390989,1512.263883,-9839.286531
7135.462399,1473.978722,-976.271621,-10068.997501
7135.464970,-669.990328,1531.406464,-8939.585234
7135.467541,1875.972918,746.560651,-9992.427178
7135.470111,2813.959378,689.132909,-10183.852986
7135.472682,823.130974,1512.263883,-9705.288466
7135.475253,4996.213589,-459.421939,-10049.854920
7135.477824,4996.213589,1569.691626,-8977.870395
7135.480395,1033.699363,-689.132909,-10317.851051
7135.482965,-1129.412267,3330.809059,-9858.429112
7135.485536,1359.123237,440.279358,-9265.009107
7135.488107,1129.412267,1493.121302,-9705.288466
7135.490678,516.849682,-1837.687757,-10815.558152
7135.493229,-1435.693560,2545.963246,-8824.729749
7135.495781,-3522.234867,593.420005,-10202.995566
7135.498333,267.996131,-516.849682,-10145.567824
7135.500885,-1091.127106,3158.525832,-9131.011042
7135.503437,-1761.117434,-746.560651,-10796.415571
7135.505989,-2890.529701,842.273555,-9245.866526
7135.508540,-497.707101,1703.689691,-9245.866526
7135.511092,1339.980656,344.566454,-10490.134278
7135.513644,267.996131,2009.970984,-9954.142016
7135.516196,-1588.834206,-516.849682,-9858.429112
7135.518748,-382.851616,1091.127106,-9456.434915
7135.521299,-2086.541307,1071.984525,-9877.571693
7135.523851,-6144.768437,-708.275490,-10738.987829
7135.526403,-4268.795518,2469.392923,-9494.720077
7135.528955,3120.240670,-803.988394,-9896.714274
7135.531507,-287.138712,2086.541307,-9858.429112
7135.534059,861.416136,1780.260014,-8939.585234
7135.536610,478.564520,1895.115499,-9705.288466
7135.539162,727.418070,-1359.123237,-10834.700733
7135.541714,3847.658741,2947.957443,-9322.436850
7135.544266,3043.670347,-1971.685822,-10585.847182
7135.546818,1033.699363,1895.115499,-8958.727814
7135.549369,2297.109696,593.420005,-9915.856854
7135.551921,2871.387120,19.142581,-10356.136213
7135.554473,3369.094221,1722.832272,-9513.862658
7135.557025,995.414202,-1301.695494,-9934.999435
7135.559577,-727.418070,1914.258080,-9016.155557
7135.562129,3196.810994,229.710970,-10317.851051
7135.564680,957.129040,574.277424,-10317.851051
7135.567232,1454.836141,2048.256146,-9399.007173
7135.569784,6221.338760,-1263.410333,-9954.142016
7135.572336,4881.358104,2009.970984,-9035.298138
7135.574888,689.132909,-191.425808,-9896.714274
7135.577439,-1052.841944,1091.127106,-10088.140082
7135.579991,-1148.554848,2297.109696,-9284.151688
7135.582543,1627.119368,1799.402595,-10049.854920
7135.585095,363.709035,-2182.254211,-10394.421374
7135.587647,-3579.662610,4153.940034,-8614.161360
7135.590199,-114.855485,-2507.678085,-11102.696864
7135.592750,-650.847747,2603.390989,-9571.290400
7135.595306,-1627.119368,459.421939,-9590.432981
7135.597861,-1320.838075,-325.423874,-10490.134278
7135.600416,-2163.111630,2756.531635,-8863.014910
7135.602972,38.285162,-842.273555,-10432.706536
7135.605527,823.130974,1550.549045,-10126.425243
7135.608082,-497.707101,1646.261949,-9801.001370
7135.610638,325.423874,-1052.841944,-9724.431046
7135.613193,-3235.096155,1875.972918,-9169.296203
7135.615748,-3177.668413,1320.838075,-9934.999435
7135.618304,-4862.215523,-344.566454,-10604.989763
7135.620859,-2067.398726,1952.543242,-9801.001370
7135.623414,2833.101958,1435.693560,-9399.007173
7135.625970,937.986459,-2699.103893,-10298.708470
7135.628525,2718.246474,2967.100024,-9360.722011
7135.631080,-1550.549045,-1205.982590,-10815.558152
7135.633636,3292.523898,1646.261949,-9379.864592
7135.636191,3503.092286,3215.953574,-9188.438784
7135.638746,1703.689691,-3426.521963,-10336.993632
7135.641302,899.701298,4651.647134,-8480.163294
7135.643857,4862.215523,-1895.115499,-10604.989763
7135.646412,861.416136,2258.824534,-10030.712339
7135.648968,1607.976787,1588.834206,-9628.718142
7135.651523,1378.265818,287.138712,-9111.868461
7135.654078,1225.125171,1588.834206,-9475.577496
7135.656634,2048.256146,-95.712904,-10241.280728
7135.659189,2526.820666,2086.541307,-9781.858789
7135.661744,5895.914886,-172.283227,-9667.003304
7135.664300,3617.947771,1205.982590,-8901.300072
7135.666855,2392.822600,-38.285162,-9915.856854
7135.669410,-689.132909,2833.101958,-10068.997501
7135.671966,3177.668413,-1856.830338,-10336.993632
7135.674521,-1761.117434,1952.543242,-9226.723946
7135.677076,899.701298,-2335.394858,-11026.126541
7135.679632,-1588.834206,2354.537438,-8748.159426
7135.682187,-3732.803256,1148.554848,-9839.286531
7135.684742,382.851616,-861.416136,-10470.991698
7135.687298,-497.707101,3254.238736,-9131.011042
7135.689853,-1875.972918,-1071.984525,-10624.132344
7135.692408,-2201.396792,555.134843,-9418.149754
7135.694964,-1167.697429,1990.828403,-9169.296203
7135.697503,2603.390989,612.562586,-10413.563955
7135.700042,-133.998066,1799.402595,-9973.284597
7135.702581,-2641.676150,-497.707101,-9973.284597
7135.705119,-842.273555,842.273555,-9169.296203
7135.707658,-1493.121302,1205.982590,-9839.286531
7135.710197,-6240.481341,-995.414202,-10738.987829
7135.712736,-3407.379382,2584.248408,-9628.718142
7135.715275,4173.082614,593.420005,-9743.573627
7135.717814,-746.560651,-1512.263883,-10183.852986
7135.720353,1359.123237,2048.256146,-8939.585234
7135.722892,248.853550,-382.851616,-10738.987829
7135.725431,2565.105827,765.703232,-10183.852986
7135.727970,3349.951640,3503.092286,-8920.442653
7135.730509,2067.398726,-4115.654872,-10700.702667
7135.733048,1933.400661,4938.785846,-8288.737486
7135.735587,3751.945837,-1818.545176,-10375.278794
7135.738126,574.277424,1703.689691,-9781.858789
7135.740665,2009.970984,2124.826469,-9724.431046
7135.743203,1110.269686,-1722.832272,-10202.995566
7135.745742,421.136778,2316.252277,-9169.296203
7135.748281,3139.383251,-229.710970,-10279.565890
7135.750820,1378.265818,1282.552914,-10030.712339
7135.753359,6125.625856,861.416136,-9552.147819
7135.755898,4881.358104,229.710970,-9341.579430
7135.758437,1493.121302,-344.566454,-9915.856854
7135.760976,-459.421939,3464.807125,-9571.290400
7135.763515,3483.949706,-2565.105827,-10758.130410
7135.766054,-248.853550,2335.394858,-9418.149754
7135.768593,669.990328,-2143.969050,-10911.271056
7135.771132,-1148.554848,2163.111630,-8767.302006
7135.773671,-3694.518094,1741.974853,-9647.860723
7135.776210,325.423874,-1550.549045,-10528.419440
7135.778749,-574.277424,3675.375514,-8901.300072
7135.781288,-2086.541307,-899.701298,-10758.130410
7135.783826,-2316.252277,1531.406464,-9035.298138
7135.786365,-861.416136,784.845813,-9437.292334
7135.788904,2603.390989,-172.283227,-10566.704602
7135.791443,-191.425808,2488.535504,-9858.429112
7135.793982,-1761.117434,-746.560651,-9934.999435
7135.796521,-746.560651,1550.549045,-9188.438784
7135.799065,-2335.394858,1186.840010,-9724.431046
7135.801610,-5302.494882,-574.277424,-10490.134278
7135.804154,-2565.105827,2507.678085,-9992.427178
7135.806698,1301.695494,2067.398726,-9724.431046
7135.809243,459.421939,-2833.101958,-9877.571693
7135.811787,3024.527766,3426.521963,-8939.585234
7135.814331,-555.134843,-1205.982590,-10892.128475
7135.816875,2584.248408,1722.832272,-9533.005238
7135.819420,3311.666478,3388.236802,-9131.011042
7135.821964,1780.260014,-3694.518094,-10509.276859
7135.824508,1607.976787,4862.215523,-8250.452325
7135.827052,4383.651003,-1856.830338,-10375.278794
7135.829597,-306.281293,2105.683888,-9820.143950
7135.832141,-497.707101,153.140646,-10164.710405
7135.834685,1454.836141,19.142581,-9188.438784
7135.837230,1588.834206,2009.970984,-9188.438784
7135.839774,1761.117434,-516.849682,-10375.278794
7135.842318,2220.539373,1971.685822,-9915.856854
7135.844862,5838.487144,248.853550,-9896.714274
7135.847407,5225.924558,57.427742,-9265.009107
7135.849951,1186.840010,382.851616,-9705.288466
7135.852495,-1225.125171,1493.121302,-10030.712339
7135.855039,-1244.267752,2009.970984,-9494.720077
7135.857584,1914.258080,2967.100024,-9934.999435
7135.860128,114.855485,-3043.670347,-10509.276859
7135.862672,-2986.242605,4058.227130,-8403.592971
7135.865217,-937.986459,-1799.402595,-10738.987829
7135.867761,-306.281293,1512.263883,-9743.573627
7135.870305,-1493.121302,2258.824534,-9609.575562
7135.872849,-2086.541307,-765.703232,-10643.274925
7135.875394,-1895.115499,1837.687757,-8958.727814
7135.877938,191.425808,-957.129040,-10030.712339
7135.880487,1703.689691,727.418070,-10356.136213
7135.883036,-363.709035,1971.685822,-9820.143950
7135.885585,-1320.838075,-842.273555,-9992.427178
7135.888134,-650.847747,1301.695494,-9111.868461
7135.890683,-5321.637462,172.283227,-10068.997501
7135.893232,-4709.074877,784.845813,-10298.708470
7135.895781,1512.263883,727.418070,-9992.427178
7135.898330,306.281293,2335.394858,-9801.001370
7135.900879,1263.410333,861.416136,-8843.872330
7135.903428,478.564520,2794.816797,-9169.296203
7135.905978,191.425808,-2584.248408,-11121.839445
7135.908527,2947.957443,3120.240670,-9379.864592
7135.911076,3196.810994,-497.707101,-10528.419440
7135.913625,1205.982590,248.853550,-9226.723946
7135.916174,1550.549045,1856.830338,-9265.009107
7135.918723,4153.940034,-1263.410333,-10700.702667
7135.921272,2488.535504,2813.959378,-9590.432981
7135.923821,-1761.117434,-2029.113565,-10566.704602
7135.926370,-363.709035,2373.680019,-8461.020714
7135.928919,4230.510357,401.994197,-9992.427178
7135.931468,746.560651,-267.996131,-10604.989763
7135.934017,4441.078746,2316.252277,-9341.579430
7135.936566,6393.621987,210.568389,-9724.431046
7135.939115,1014.556782,-401.994197,-9915.856854
7135.941664,-1607.976787,3751.945837,-9150.153622
7135.944213,4326.223261,-2660.818731,-10815.558152
7135.946763,-1990.828403,2411.965181,-9533.005238
7135.949312,1435.693560,-1186.840010,-10777.272990
7135.951861,-1550.549045,1167.697429,-8958.727814
7135.954410,-3751.945837,2890.529701,-9379.864592
7135.956959,1014.556782,-2679.961312,-10662.417506
7135.959508,-210.568389,4249.652938,-9226.723946
7135.962057,-2813.959378,-1588.834206,-10968.698798
7135.964606,-2029.113565,248.853550,-9456.434915
7135.967155,-1435.693560,2718.246474,-8901.300072
7135.969704,1110.269686,-1282.552914,-10298.708470
7135.972253,861.416136,2297.109696,-9801.001370
7135.974802,-2297.109696,38.285162,-9973.284597
7135.977351,-1397.408398,210.568389,-9647.860723
7135.979900,-4498.506488,1397.408398,-9456.434915
7135.982453,-3962.514226,-153.140646,-10164.710405
7135.985006,-1244.267752,1014.556782,-10394.421374
7135.987558,1531.406464,3081.955509,-9571.290400
7135.990111,95.712904,-3560.520029,-9896.714274
7135.992664,2545.963246,3215.953574,-8767.302006
7135.995217,-76.570323,-631.705166,-10719.845248
7135.997770,3120.240670,2545.963246,-9245.866526
7136.000323,3139.383251,2833.101958,-9705.288466
7136.002876,1282.552914,-3005.385186,-10241.280728
7136.005429,1091.127106,4326.223261,-8499.305875
