#time,accel_x,accel_y,accel_z
278.401937,937.986459,4115.654872,-9437.292334
278.404507,1205.982590,861.416136,-9379.864592
278.407077,689.132909,-2316.252277,-10643.274925
278.409647,-535.992262,957.129040,-9686.145885
278.412217,363.709035,-1033.699363,-10164.710405
278.414787,842.273555,2067.398726,-10011.569758
278.417357,669.990328,3177.668413,-9322.436850
278.419928,516.849682,1091.127106,-10088.140082
278.422498,210.568389,2163.111630,-9915.856854
278.425068,861.416136,344.566454,-9628.718142
278.427638,535.992262,-153.140646,-10011.569758
278.430208,325.423874,1416.550979,-10260.423309
278.432778,803.988394,727.418070,-10068.997501
278.435348,325.423874,287.138712,-9628.718142
278.437918,267.996131,382.851616,-10068.997501
278.440488,861.416136,1014.556782,-10049.854920
278.443058,1052.841944,210.568389,-10107.282662
278.445628,344.566454,1301.695494,-9781.858789
278.448198,727.418070,593.420005,-9762.716208
278.450768,880.558717,-57.427742,-10260.423309
278.453338,267.996131,2297.109696,-10164.710405
278.455908,937.986459,1339.980656,-9934.999435
278.458478,344.566454,2009.970984,-9954.142016
278.461048,344.566454,3024.527766,-9705.288466
278.463618,1052.841944,1282.552914,-9781.858789
278.466188,1493.121302,-631.705166,-10298.708470
278.468758,-995.414202,2124.826469,-9379.864592
278.471328,1129.412267,-3694.518094,-10585.847182
278.473898,-631.705166,2488.535504,-9973.284597
278.476468,2105.683888,2909.672282,-9801.001370
278.479038,937.986459,2048.256146,-9877.571693
278.481608,-1569.691626,2813.959378,-9628.718142
278.484178,2411.965181,-2737.389054,-10298.708470
278.486748,-1607.976787,2297.109696,-9820.143950
278.489318,133.998066,784.845813,-10375.278794
278.491888,1110.269686,-4039.084549,-9801.001370
278.494458,0.000000,1588.834206,-9628.718142
278.497054,1282.552914,1895.115499,-9743.573627
278.499649,2258.824534,-1531.406464,-10662.417506
278.502245,-2431.107762,3579.662610,-9915.856854
278.504840,1225.125171,-344.566454,-9992.427178
278.507436,1454.836141,1282.552914,-9437.292334
278.510031,133.998066,1263.410333,-9590.432981
278.512627,191.425808,-2909.672282,-10470.991698
278.515222,1052.841944,-38.285162,-9973.284597
278.517818,-459.421939,708.275490,-9954.142016
278.520413,899.701298,708.275490,-10049.854920
278.523009,593.420005,2545.963246,-9265.009107
278.525604,248.853550,746.560651,-10279.565890
278.528200,-114.855485,-382.851616,-10317.851051
278.530795,1033.699363,1627.119368,-9322.436850
278.533391,421.136778,-287.138712,-10413.563955
278.535986,746.560651,-114.855485,-9896.714274
278.538582,306.281293,1263.410333,-9954.142016
278.541177,593.420005,708.275490,-10068.997501
278.543773,669.990328,459.421939,-9762.716208
278.546368,210.568389,172.283227,-9839.286531
278.548964,210.568389,803.988394,-9743.573627
278.551559,1244.267752,-248.853550,-9992.427178
278.554155,555.134843,574.277424,-10088.140082
278.556750,-497.707101,-38.285162,-10030.712339
278.559346,363.709035,727.418070,-9839.286531
278.561941,1971.685822,-1225.125171,-10030.712339
278.564537,-229.710970,421.136778,-9590.432981
278.567132,593.420005,-1320.838075,-10432.706536
278.569728,306.281293,689.132909,-9801.001370
278.572323,899.701298,2124.826469,-9513.862658
278.574919,-1875.972918,-38.285162,-10490.134278
278.577514,2316.252277,4402.793584,-9360.722011
278.580110,2163.111630,1971.685822,-8997.012976
278.582705,1244.267752,-3101.098090,-10624.132344
278.585301,-1588.834206,2641.676150,-9762.716208
278.587896,2450.250342,1454.836141,-9954.142016
278.590492,-842.273555,-1569.691626,-10777.272990
278.593087,574.277424,3560.520029,-9016.155557
278.595683,1665.404530,842.273555,-9934.999435
278.598278,95.712904,4823.930362,-10068.997501
278.600886,-191.425808,1588.834206,-9609.575562
278.603495,1627.119368,-3024.527766,-10451.849117
278.606103,-95.712904,1301.695494,-9533.005238
278.608711,76.570323,-1761.117434,-10107.282662
278.611319,918.843878,957.129040,-10643.274925
278.613928,172.283227,2316.252277,-9399.007173
278.616536,803.988394,-191.425808,-10145.567824
278.619144,-76.570323,3962.514226,-9341.579430
278.621752,593.420005,2143.969050,-9973.284597
278.624361,957.129040,172.283227,-10088.140082
278.626969,-114.855485,880.558717,-9513.862658
278.629577,191.425808,1148.554848,-9877.571693
278.632185,669.990328,133.998066,-10375.278794
278.634794,344.566454,2009.970984,-9399.007173
278.637402,325.423874,95.712904,-9820.143950
278.640010,593.420005,1033.699363,-10049.854920
278.642618,497.707101,1531.406464,-10279.565890
278.645226,555.134843,-669.990328,-9724.431046
278.647835,114.855485,1569.691626,-9801.001370
278.650443,478.564520,861.416136,-10317.851051
278.653051,1263.410333,1493.121302,-9877.571693
278.655659,0.000000,2890.529701,-9781.858789
278.658268,593.420005,2029.113565,-10011.569758
278.660876,784.845813,1818.545176,-9456.434915
278.663484,842.273555,1033.699363,-9934.999435
278.666092,-842.273555,823.130974,-9647.860723
278.668701,1033.699363,-3771.088418,-10700.702667
278.671309,-823.130974,3790.230998,-10241.280728
278.673917,1780.260014,3120.240670,-9724.431046
278.676525,1512.263883,1761.117434,-9762.716208
278.679134,-1952.543242,3024.527766,-9533.005238
278.681742,2756.531635,-2450.250342,-10356.136213
278.684350,-1167.697429,1320.838075,-10068.997501
278.686958,1703.689691,1320.838075,-10260.423309
278.689567,2220.539373,-3215.953574,-9839.286531
278.692175,-995.414202,3254.238736,-9035.298138
278.694783,880.558717,3081.955509,-9322.436850
278.697391,2928.814862,-1818.545176,-10949.556218
278.700000,-1990.828403,3426.521963,-9915.856854
278.702608,382.851616,-459.421939,-9820.143950
278.705224,1818.545176,880.558717,-9590.432981
278.707840,708.275490,1033.699363,-9590.432981
278.710456,76.570323,-3043.670347,-10872.985894
278.713071,172.283227,-95.712904,-10011.569758
278.715687,287.138712,669.990328,-9877.571693
278.718303,1091.127106,574.277424,-9954.142016
278.720919,669.990328,1914.258080,-9667.003304
278.723535,76.570323,1895.115499,-9877.571693
278.726151,478.564520,-1148.554848,-10317.851051
278.728767,727.418070,823.130974,-9762.716208
278.731383,210.568389,-172.283227,-9820.143950
278.733999,784.845813,1186.840010,-9743.573627
278.736615,363.709035,727.418070,-10451.849117
278.739231,478.564520,401.994197,-9858.429112
278.741847,1091.127106,1110.269686,-9609.575562
278.744463,401.994197,382.851616,-10298.708470
278.747079,38.285162,1282.552914,-9820.143950
278.749695,995.414202,287.138712,-9628.718142
278.752310,746.560651,-708.275490,-10126.425243
278.754926,440.279358,344.566454,-10088.140082
278.757542,-19.142581,-1550.549045,-10298.708470
278.760158,1339.980656,-1684.547110,-9820.143950
278.762774,-459.421939,-593.420005,-10068.997501
278.765390,1359.123237,478.564520,-10145.567824
278.768006,-669.990328,4689.932296,-9360.722011
278.770622,1148.554848,2986.242605,-9973.284597
278.773238,-1359.123237,-2086.541307,-10336.993632
278.775854,401.994197,-1703.689691,-10356.136213
278.778470,650.847747,-669.990328,-9992.427178
278.781086,-880.558717,-2469.392923,-10930.413637
278.783702,1071.984525,3598.805190,-9513.862658
278.786318,2258.824534,1799.402595,-9131.011042
278.788934,-535.992262,1052.841944,-10126.425243
278.791549,172.283227,3713.660675,-9360.722011
278.794165,-401.994197,-153.140646,-11045.269122
278.796781,689.132909,5225.924558,-9265.009107
278.799397,1052.841944,210.568389,-9379.864592
278.802013,555.134843,-1607.976787,-10643.274925
278.804629,363.709035,1225.125171,-9647.860723
278.807245,880.558717,-823.130974,-10298.708470
278.809865,114.855485,2220.539373,-9915.856854
278.812486,803.988394,1531.406464,-9513.862658
278.815106,535.992262,1722.832272,-9915.856854
278.817727,-191.425808,2507.678085,-9781.858789
278.820347,1320.838075,-689.132909,-10356.136213
278.822967,1110.269686,1186.840010,-9552.147819
278.825588,-114.855485,1052.841944,-10202.995566
278.828208,363.709035,382.851616,-10336.993632
278.830829,957.129040,1416.550979,-9150.153622
278.833449,210.568389,-153.140646,-10126.425243
278.836069,478.564520,1129.412267,-10375.278794
278.838690,727.418070,1512.263883,-9954.142016
278.841310,325.423874,-95.712904,-9781.858789
278.843931,593.420005,1665.404530,-9552.147819
278.846551,593.420005,2488.535504,-9858.429112
278.849171,459.421939,2603.390989,-10126.425243
278.851792,727.418070,3101.098090,-9628.718142
278.854412,1129.412267,459.421939,-9724.431046
278.857033,-880.558717,861.416136,-9724.431046
278.859653,497.707101,-3369.094221,-10777.272990
278.862273,363.709035,4000.799387,-9418.149754
278.864894,1780.260014,1320.838075,-10336.993632
278.867514,-57.427742,3196.810994,-9801.001370
278.870135,-1646.261949,1397.408398,-9513.862658
278.872755,2507.678085,-2373.680019,-10317.851051
278.875375,-1627.119368,2603.390989,-9667.003304
278.877996,2679.961312,114.855485,-10202.995566
278.880616,1167.697429,-1646.261949,-10011.569758
278.883237,-2143.969050,2871.387120,-8977.870395
278.885857,1320.838075,-4268.795518,-10413.563955
278.888477,-19.142581,1071.984525,-10643.274925
278.891098,-191.425808,3311.666478,-9915.856854
278.893718,727.418070,248.853550,-9992.427178
278.896339,2182.254211,2354.537438,-9265.009107
278.898959,-172.283227,-1148.554848,-9686.145885
278.901579,0.000000,-1780.260014,-10796.415571
278.904200,0.000000,287.138712,-10088.140082
278.906820,899.701298,-823.130974,-9877.571693
278.909440,555.134843,1435.693560,-9724.431046
278.912061,267.996131,1129.412267,-9934.999435
278.914684,363.709035,2335.394858,-9628.718142
278.917306,746.560651,-612.562586,-10432.706536
278.919929,478.564520,287.138712,-9801.001370
278.922552,210.568389,459.421939,-9667.003304
278.925174,612.562586,803.988394,-9954.142016
278.927797,555.134843,708.275490,-10068.997501
278.930420,555.134843,-19.142581,-10011.569758
278.933042,153.140646,1397.408398,-10049.854920
278.935665,899.701298,133.998066,-9954.142016
278.938288,631.705166,-114.855485,-9896.714274
278.940910,-382.851616,478.564520,-9628.718142
278.943533,1818.545176,19.142581,-10049.854920
278.946156,287.138712,-1531.406464,-10432.706536
278.948778,57.427742,-1473.978722,-10068.997501
278.951401,669.990328,-1129.412267,-9820.143950
278.954024,1378.265818,95.712904,-10298.708470
278.956646,-1263.410333,4594.219392,-9533.005238
278.959269,1531.406464,2584.248408,-9781.858789
278.961892,-114.855485,-2048.256146,-10107.282662
278.964514,-229.710970,-1512.263883,-9934.999435
278.967137,1627.119368,-842.273555,-10030.712339
278.969760,-1320.838075,-1856.830338,-10796.415571
278.972382,1473.978722,3464.807125,-9303.294269
278.975005,2488.535504,1282.552914,-9399.007173
278.977628,-421.136778,689.132909,-10413.563955
278.980250,-497.707101,2411.965181,-9284.151688
278.982873,-38.285162,957.129040,-10719.845248
278.985496,1091.127106,4019.941968,-9150.153622
278.988119,1167.697429,-995.414202,-9628.718142
278.990741,976.271621,306.281293,-10490.134278
278.993364,-133.998066,497.707101,-9571.290400
278.995987,612.562586,-957.129040,-10413.563955
278.998609,191.425808,2584.248408,-10030.712339
279.001232,918.843878,1359.123237,-9686.145885
279.003855,95.712904,2201.396792,-9705.288466
279.006477,287.138712,1722.832272,-10107.282662
279.009100,689.132909,401.994197,-9954.142016
279.011723,727.418070,803.988394,-10126.425243
279.014345,-38.285162,1397.408398,-9934.999435
279.016968,497.707101,555.134843,-9915.856854
279.019589,669.990328,650.847747,-9839.286531
279.022211,210.568389,803.988394,-10049.854920
279.024832,574.277424,1435.693560,-9801.001370
279.027454,535.992262,459.421939,-10222.138147
279.030075,325.423874,1186.840010,-9820.143950
279.032697,172.283227,2373.680019,-9801.001370
279.035319,1014.556782,2182.254211,-10241.280728
279.037940,248.853550,2584.248408,-9762.716208
279.040562,1052.841944,172.283227,-9896.714274
279.043183,-95.712904,1569.691626,-9590.432981
279.045805,1052.841944,-2565.105827,-10164.710405
279.048426,-765.703232,2833.101958,-9820.143950
279.051048,1952.543242,2354.537438,-10336.993632
279.053669,497.707101,2182.254211,-9762.716208
279.056291,-2718.246474,2488.535504,-9724.431046
279.058912,2890.529701,-1780.260014,-10202.995566
279.061534,-1091.127106,1301.695494,-9781.858789
279.064155,899.701298,803.988394,-10662.417506
279.066777,2086.541307,-2565.105827,-9724.431046
279.069398,-593.420005,3024.527766,-8843.872330
279.072020,746.560651,-1799.402595,-10260.423309
279.074641,650.847747,-612.562586,-10777.272990
279.077263,-823.130974,3541.377448,-10241.280728
279.079884,191.425808,-401.994197,-9896.714274
279.082506,1607.976787,1263.410333,-9456.434915
279.085127,861.416136,-306.281293,-9552.147819
279.087749,-191.425808,-1933.400661,-10624.132344
279.090370,-57.427742,401.994197,-9877.571693
279.092992,612.562586,0.000000,-9954.142016
279.095613,689.132909,1875.972918,-9743.573627
279.098235,535.992262,-421.136778,-9954.142016
279.100856,57.427742,2297.109696,-10011.569758
279.103478,421.136778,440.279358,-10088.140082
279.106099,1110.269686,-344.566454,-9915.856854
279.108721,-267.996131,1244.267752,-9801.001370
279.111342,38.285162,631.705166,-9858.429112
279.113964,880.558717,-38.285162,-10145.567824
279.116585,306.281293,1818.545176,-9820.143950
279.119207,19.142581,325.423874,-10049.854920
279.121828,1339.980656,-344.566454,-9973.284597
279.124448,172.283227,1167.697429,-9456.434915
279.127068,669.990328,-2124.826469,-10451.849117
279.129688,899.701298,-440.279358,-10030.712339
279.132308,669.990328,-1263.410333,-9973.284597
279.134928,-229.710970,-1493.121302,-10241.280728
279.137548,1531.406464,1167.697429,-9762.716208
279.140168,-1091.127106,1205.982590,-10164.710405
279.142788,2124.826469,5532.205851,-9265.009107
279.145408,574.277424,-727.418070,-9954.142016
279.148027,421.136778,-2813.959378,-10566.704602
279.150647,-937.986459,1741.974853,-9552.147819
279.153267,574.277424,-1454.836141,-10681.560086
279.155887,-1722.832272,0.000000,-10585.847182
279.158507,2622.533570,4134.797453,-8767.302006
279.161127,1320.838075,918.843878,-10011.569758
279.163747,133.998066,4977.071008,-9533.005238
279.166367,-1014.556782,-172.283227,-10547.562021
279.168987,1129.412267,3522.234867,-9609.575562
279.171607,172.283227,1014.556782,-9667.003304
279.174227,823.130974,-2603.390989,-10777.272990
279.176846,191.425808,2029.113565,-9667.003304
279.179466,727.418070,-401.994197,-10279.565890
279.182086,1359.123237,1205.982590,-9915.856854
279.184706,-478.564520,3292.523898,-9245.866526
279.187326,248.853550,229.710970,-10375.278794
279.189946,440.279358,2756.531635,-9647.860723
279.192566,995.414202,-497.707101,-10202.995566
279.195186,535.992262,1129.412267,-9915.856854
279.197806,172.283227,1684.547110,-10030.712339
279.200426,593.420005,-325.423874,-10279.565890
279.203046,899.701298,1473.978722,-9533.005238
279.205665,478.564520,267.996131,-10279.565890
279.208285,229.710970,1052.841944,-10298.708470
279.210904,861.416136,1320.838075,-9571.290400
279.213523,708.275490,2086.541307,-9839.286531
279.216142,363.709035,1895.115499,-10126.425243
279.218761,784.845813,2890.529701,-9743.573627
279.221381,57.427742,-421.136778,-10030.712339
279.224000,-172.283227,-1033.699363,-10260.423309
279.226619,1818.545176,3254.238736,-9284.151688
279.229238,2067.398726,421.136778,-10241.280728
279.231857,-631.705166,3081.955509,-9934.999435
279.234477,669.990328,306.281293,-9781.858789
279.237096,95.712904,248.853550,-9954.142016
279.239715,1071.984525,2526.820666,-9801.001370
279.242334,1818.545176,-1052.841944,-10222.138147
279.244953,-459.421939,784.845813,-10298.708470
279.247573,-803.988394,-2469.392923,-10088.140082
279.250192,1703.689691,-6010.770371,-10872.985894
279.252811,57.427742,3675.375514,-9877.571693
279.255430,1722.832272,1473.978722,-9954.142016
279.258049,574.277424,1837.687757,-9399.007173
279.260669,-19.142581,2679.961312,-9667.003304
279.263288,95.712904,-2450.250342,-10528.419440
279.265907,765.703232,-516.849682,-9954.142016
279.268526,287.138712,-631.705166,-10260.423309
279.271145,172.283227,-191.425808,-10260.423309
279.273765,937.986459,1205.982590,-9858.429112
279.276384,401.994197,574.277424,-9877.571693
279.279003,823.130974,708.275490,-9781.858789
279.281622,421.136778,612.562586,-9858.429112
279.284241,478.564520,76.570323,-10413.563955
279.286861,593.420005,689.132909,-9915.856854
279.289480,421.136778,612.562586,-9877.571693
279.292099,765.703232,-95.712904,-10088.140082
279.294718,-172.283227,1569.691626,-9781.858789
279.297337,631.705166,1167.697429,-10260.423309
279.299957,0.000000,0.000000,-9934.999435
279.302576,746.560651,325.423874,-9667.003304
279.305195,267.996131,-631.705166,-9877.571693
279.307814,727.418070,-2239.681954,-10298.708470
279.310433,-95.712904,-325.423874,-10030.712339
279.312999,861.416136,-1282.552914,-10356.136213
279.315563,38.285162,3866.801322,-9303.294269
279.318128,306.281293,1607.976787,-9934.999435
279.320692,-574.277424,-2009.970984,-10470.991698
279.323257,306.281293,325.423874,-9743.573627
279.325821,1818.545176,-1359.123237,-9954.142016
279.328386,-1282.552914,-746.560651,-10624.132344
279.330951,2335.394858,4498.506488,-8863.014910
279.333515,459.421939,-248.853550,-9858.429112
279.336080,-382.851616,95.712904,-10509.276859
279.338644,401.994197,1914.258080,-9533.005238
279.341209,76.570323,2124.826469,-10853.843314
279.343773,401.994197,3790.230998,-9360.722011
279.346338,1473.978722,-210.568389,-9475.577496
279.348902,306.281293,1359.123237,-9973.284597
279.351467,-133.998066,-765.703232,-10202.995566
279.354031,689.132909,153.140646,-10336.993632
279.356596,153.140646,1761.117434,-9724.431046
279.359161,957.129040,-95.712904,-10049.854920
279.361725,95.712904,3120.240670,-9379.864592
279.364290,516.849682,3139.383251,-9475.577496
279.366854,1971.685822,-1186.840010,-10509.276859
279.369419,172.283227,1473.978722,-9360.722011
279.371983,-57.427742,1282.552914,-10068.997501
279.374548,937.986459,-248.853550,-10566.704602
279.377112,421.136778,1569.691626,-9265.009107
279.379677,133.998066,1014.556782,-9992.427178
279.382241,1225.125171,440.279358,-10241.280728
279.384806,-38.285162,2258.824534,-9839.286531
279.387371,267.996131,2507.678085,-9839.286531
279.389935,689.132909,1627.119368,-9992.427178
279.392500,1052.841944,976.271621,-9973.284597
279.395064,-363.709035,2545.963246,-9513.862658
279.397629,1588.834206,-1684.547110,-10490.134278
279.400193,-401.994197,1684.547110,-9973.284597
279.402758,1550.549045,2450.250342,-9647.860723
279.405322,803.988394,1359.123237,-10107.282662
279.407887,-1339.980656,1033.699363,-9724.431046
279.410451,1990.828403,-995.414202,-10260.423309
279.413016,-995.414202,918.843878,-10068.997501
279.415590,1071.984525,1244.267752,-10260.423309
279.418164,1722.832272,-2201.396792,-9877.571693
279.420738,-497.707101,2833.101958,-9131.011042
279.423313,823.130974,-2124.826469,-10145.567824
279.425887,191.425808,-708.275490,-10777.272990
279.428461,-708.275490,3273.381317,-9781.858789
279.431035,1780.260014,765.703232,-9360.722011
279.433609,1148.554848,1684.547110,-9743.573627
279.436183,1339.980656,-401.994197,-9781.858789
279.438758,-669.990328,-1531.406464,-10413.563955
279.441332,727.418070,-727.418070,-10356.136213
279.443906,114.855485,440.279358,-9743.573627
279.446480,842.273555,1378.265818,-9877.571693
279.449054,344.566454,440.279358,-10049.854920
279.451628,-38.285162,1148.554848,-9571.290400
279.454203,689.132909,689.132909,-9992.427178
279.456777,1014.556782,574.277424,-9858.429112
279.459351,306.281293,957.129040,-9494.720077
279.461925,401.994197,-267.996131,-10107.282662
279.464499,746.560651,899.701298,-9915.856854
279.467073,-153.140646,861.416136,-9915.856854
279.469648,172.283227,689.132909,-10107.282662
279.472222,1110.269686,-823.130974,-9820.143950
279.474796,440.279358,-1052.841944,-9647.860723
279.477370,-114.855485,-1244.267752,-10298.708470
279.479944,1225.125171,-1052.841944,-10145.567824
279.482518,1071.984525,1244.267752,-9896.714274
279.485092,-2124.826469,516.849682,-10470.991698
279.487667,2603.390989,4823.930362,-9111.868461
279.490241,746.560651,76.570323,-9322.436850
279.492815,-133.998066,-2086.541307,-11121.839445
279.495389,497.707101,669.990328,-9475.577496
279.497963,-727.418070,-2507.678085,-10585.847182
279.500537,363.709035,-631.705166,-10719.845248
279.503112,2277.967115,3790.230998,-8633.303941
279.505686,1110.269686,880.558717,-10107.282662
279.508260,229.710970,4230.510357,-9992.427178
279.510834,-861.416136,287.138712,-10222.138147
279.513408,823.130974,3120.240670,-9647.860723
279.515982,516.849682,-612.562586,-9781.858789
279.518564,746.560651,382.851616,-9992.427178
279.521146,153.140646,1052.841944,-9686.145885
279.523728,689.132909,-267.996131,-10126.425243
279.526310,689.132909,1320.838075,-10088.140082
279.528892,-57.427742,1205.982590,-9571.290400
279.531474,287.138712,3560.520029,-9494.720077
279.534056,1569.691626,153.140646,-10241.280728
279.536638,267.996131,1435.693560,-9954.142016
279.539220,555.134843,153.140646,-10011.569758
279.541801,574.277424,708.275490,-9801.001370
279.544383,287.138712,1952.543242,-9781.858789
279.546965,612.562586,823.130974,-9743.573627
279.549547,746.560651,1091.127106,-10241.280728
279.552129,306.281293,2048.256146,-9934.999435
279.554711,937.986459,1148.554848,-9705.288466
279.557293,708.275490,2775.674216,-9743.573627
279.559875,-516.849682,899.701298,-9858.429112
279.562457,-76.570323,823.130974,-9954.142016
279.565039,1493.121302,2526.820666,-9724.431046
279.567620,-248.853550,133.998066,-10241.280728
279.570202,-650.847747,2565.105827,-10011.569758
279.572784,1990.828403,861.416136,-9533.005238
279.575366,-2277.967115,995.414202,-9628.718142
279.577948,2450.250342,689.132909,-10011.569758
279.580530,-248.853550,-401.994197,-10470.991698
279.583112,-306.281293,1493.121302,-10260.423309
279.585694,1129.412267,-2928.814862,-9552.147819
279.588276,593.420005,1186.840010,-9781.858789
279.590858,937.986459,1665.404530,-9590.432981
279.593439,2316.252277,-765.703232,-10566.704602
279.596021,-746.560651,2048.256146,-9781.858789
279.598603,-555.134843,363.709035,-9533.005238
279.601185,1282.552914,-133.998066,-10470.991698
279.603767,1531.406464,-172.283227,-9839.286531
279.606349,-382.851616,325.423874,-9973.284597
279.608931,555.134843,-880.558717,-10490.134278
279.611513,823.130974,1837.687757,-9418.149754
279.614095,344.566454,267.996131,-9992.427178
279.616677,803.988394,669.990328,-9896.714274
279.619259,306.281293,1071.984525,-9724.431046
279.621845,421.136778,344.566454,-10681.560086
279.624432,746.560651,669.990328,-9667.003304
279.627018,401.994197,631.705166,-9437.292334
279.629605,287.138712,957.129040,-10260.423309
279.632191,995.414202,-19.142581,-10432.706536
279.634778,555.134843,421.136778,-9992.427178
279.637364,516.849682,-382.851616,-9954.142016
279.639950,535.992262,-2469.392923,-10222.138147
279.642537,421.136778,-1244.267752,-9896.714274
279.645123,459.421939,-1512.263883,-10375.278794
279.647710,976.271621,2392.822600,-10088.140082
279.650296,-593.420005,746.560651,-10049.854920
279.652883,248.853550,784.845813,-10126.425243
279.655469,2411.965181,2584.248408,-9035.298138
279.658056,1014.556782,-2679.961312,-10336.993632
279.660642,-1512.263883,2871.387120,-10145.567824
279.663229,2048.256146,1129.412267,-10164.710405
279.665815,-1473.978722,-1378.265818,-10566.704602
279.668402,937.986459,3445.664544,-8997.012976
279.670988,823.130974,1110.269686,-9839.286531
279.673575,1282.552914,3177.668413,-10222.138147
279.676161,-306.281293,1895.115499,-9590.432981
279.678748,1263.410333,1818.545176,-9820.143950
279.681334,-19.142581,-38.285162,-9571.290400
279.683921,421.136778,-1627.119368,-10317.851051
279.686507,535.992262,1588.834206,-10183.852986
279.689094,803.988394,-38.285162,-10126.425243
279.691680,765.703232,1512.263883,-10107.282662
279.694267,555.134843,3981.656806,-9188.438784
279.696853,612.562586,38.285162,-9992.427178
279.699440,497.707101,1741.974853,-9992.427178
279.702026,191.425808,325.423874,-10222.138147
279.704613,880.558717,1129.412267,-9762.716208
279.707199,191.425808,306.281293,-10068.997501
279.709786,172.283227,191.425808,-10011.569758
279.712372,899.701298,1761.117434,-9609.575562
279.714959,593.420005,114.855485,-10298.708470
279.717545,153.140646,2622.533570,-9839.286531
279.720132,1244.267752,2660.818731,-9437.292334
279.722718,363.709035,1416.550979,-9609.575562
279.725309,-382.851616,-267.996131,-10394.421374
279.727899,1512.263883,4307.080680,-9303.294269
279.730489,1339.980656,-133.998066,-10585.847182
279.733079,-669.990328,3541.377448,-9781.858789
279.735669,2067.398726,325.423874,-9571.290400
279.738259,-2316.252277,593.420005,-9820.143950
279.740849,1454.836141,1971.685822,-9724.431046
279.743439,1473.978722,-478.564520,-10490.134278
279.746029,-842.273555,842.273555,-10451.849117
279.748619,-516.849682,-2048.256146,-9552.147819
279.751209,650.847747,-2029.113565,-10164.710405
279.753799,1091.127106,3751.945837,-9513.862658
279.756389,1722.832272,-1014.556782,-10432.706536
279.758979,-1320.838075,2258.824534,-10183.852986
279.761570,95.712904,306.281293,-9743.573627
279.764160,267.996131,-1186.840010,-9896.714274
279.766750,1129.412267,-19.142581,-10164.710405
279.769340,57.427742,-995.414202,-10068.997501
279.771930,516.849682,-918.843878,-10202.995566
279.774520,114.855485,1684.547110,-9934.999435
279.777110,1033.699363,248.853550,-9781.858789
279.779700,918.843878,593.420005,-9571.290400
279.782290,-306.281293,1416.550979,-9954.142016
279.784880,1129.412267,-516.849682,-10509.276859
279.787470,1320.838075,1378.265818,-9647.860723
279.790060,-57.427742,-574.277424,-10030.712339
279.792650,133.998066,918.843878,-9705.288466
279.795241,1148.554848,421.136778,-10030.712339
279.797831,114.855485,-287.138712,-10566.704602
279.800421,535.992262,-1244.267752,-10088.140082
279.803011,784.845813,-1282.552914,-9494.720077
279.805601,0.000000,-1741.974853,-10164.710405
279.808191,1205.982590,1818.545176,-10030.712339
279.810781,-1875.972918,95.712904,-10432.706536
279.813371,1665.404530,3809.373579,-9475.577496
279.815961,1378.265818,1244.267752,-9111.868461
279.818551,459.421939,-2201.396792,-10356.136213
279.821141,-918.843878,1799.402595,-9494.720077
279.823731,114.855485,-1952.543242,-11102.696864
279.826321,-803.988394,1416.550979,-10356.136213
279.828914,2373.680019,3771.088418,-8575.876198
279.831508,1033.699363,861.416136,-9934.999435
279.834101,1282.552914,4345.365842,-9590.432981
279.836694,-1435.693560,784.845813,-10260.423309
279.839287,650.847747,2316.252277,-10011.569758
279.841880,803.988394,-535.992262,-9590.432981
279.844473,765.703232,210.568389,-10049.854920
279.847066,133.998066,1052.841944,-9934.999435
279.849659,708.275490,0.000000,-10107.282662
279.852252,153.140646,957.129040,-10222.138147
279.854845,-153.140646,516.849682,-9896.714274
279.857438,95.712904,3388.236802,-9418.149754
279.860031,1569.691626,-287.138712,-10298.708470
279.862624,210.568389,727.418070,-9973.284597
279.865217,133.998066,1799.402595,-9877.571693
279.867810,1301.695494,-899.701298,-10547.562021
279.870403,-95.712904,1416.550979,-9628.718142
279.872996,459.421939,1205.982590,-9533.005238
279.875589,1129.412267,-727.418070,-10470.991698
279.878182,229.710970,3483.949706,-9839.286531
279.880775,133.998066,1493.121302,-9724.431046
279.883368,650.847747,1569.691626,-9743.573627
279.885961,880.558717,2067.398726,-9379.864592
279.888554,-363.709035,861.416136,-10317.851051
279.891147,1244.267752,3196.810994,-10202.995566
279.893740,1052.841944,1435.693560,-9705.288466
279.896333,-1320.838075,-1359.123237,-10107.282662
279.898926,2182.254211,-1435.693560,-10068.997501
279.901519,-899.701298,1244.267752,-9667.003304
279.904112,1454.836141,1148.554848,-10834.700733
279.906705,1799.402595,-1148.554848,-9724.431046
279.909298,-880.558717,2871.387120,-8958.727814
279.911891,382.851616,-3273.381317,-10375.278794
279.914484,708.275490,555.134843,-10470.991698
279.917077,-287.138712,2373.680019,-10030.712339
279.919670,1282.552914,669.990328,-9743.573627
279.922263,1186.840010,1761.117434,-9513.862658
279.924856,631.705166,-76.570323,-9609.575562
279.927449,-38.285162,-2526.820666,-10585.847182
279.930042,612.562586,-57.427742,-10049.854920
279.932636,-19.142581,267.996131,-9992.427178
279.935230,401.994197,1722.832272,-10088.140082
279.937824,535.992262,-535.992262,-9858.429112
279.940418,306.281293,1263.410333,-9284.151688
279.943013,114.855485,306.281293,-10681.560086
279.945607,478.564520,1454.836141,-9934.999435
279.948201,593.420005,1588.834206,-9379.864592
279.950795,555.134843,-267.996131,-9896.714274
279.953389,516.849682,-57.427742,-10164.710405
279.955983,861.416136,535.992262,-9992.427178
279.958577,421.136778,-1780.260014,-10585.847182
279.961171,593.420005,-1473.978722,-10049.854920
279.963765,574.277424,-976.271621,-9379.864592
279.966359,-287.138712,1933.400661,-10049.854920
279.968953,459.421939,1895.115499,-10241.280728
279.971547,-631.705166,-823.130974,-10490.134278
279.974141,1646.261949,2105.683888,-9494.720077
279.976735,1722.832272,-1971.685822,-9896.714274
279.979330,-842.273555,2622.533570,-9801.001370
279.981924,2143.969050,3254.238736,-9896.714274
279.984518,-421.136778,-1933.400661,-10738.987829
279.987112,248.853550,2335.394858,-9456.434915
279.989706,-248.853550,1282.552914,-9494.720077
279.992300,1033.699363,2431.107762,-10107.282662
279.994894,-267.996131,2105.683888,-9781.858789
279.997488,1397.408398,2163.111630,-9801.001370
280.000082,497.707101,38.285162,-9781.858789
280.002676,287.138712,-842.273555,-10068.997501
280.005270,574.277424,880.558717,-10413.563955
280.007864,191.425808,535.992262,-9820.143950
280.010458,784.845813,842.273555,-10145.567824
280.013052,535.992262,3235.096155,-9513.862658
280.015647,746.560651,631.705166,-9801.001370
280.018241,267.996131,1339.980656,-9915.856854
280.020835,899.701298,-306.281293,-10068.997501
280.023429,421.136778,1722.832272,-9877.571693
280.026023,401.994197,1033.699363,-10183.852986
280.028617,1148.554848,-76.570323,-9513.862658
280.031211,306.281293,1818.545176,-9762.716208
280.033805,1186.840010,2124.826469,-10356.136213
280.036400,-19.142581,574.277424,-10260.423309
280.038995,-248.853550,2584.248408,-9590.432981
280.041589,1359.123237,2622.533570,-9207.581365
280.044184,363.709035,229.710970,-10394.421374
280.046779,-229.710970,4287.938099,-9743.573627
280.049374,1722.832272,210.568389,-9858.429112
280.051968,-1684.547110,-229.710970,-10030.712339
280.054563,1799.402595,-172.283227,-9705.288466
280.057158,-1186.840010,-267.996131,-10241.280728
280.059753,1684.547110,1722.832272,-10662.417506
280.062347,1397.408398,-1091.127106,-9475.577496
280.064942,-708.275490,2622.533570,-9494.720077
280.067537,995.414202,-1263.410333,-9973.284597
280.070132,306.281293,-631.705166,-10298.708470
280.072726,-1014.556782,1933.400661,-10413.563955
280.075321,57.427742,57.427742,-10011.569758
280.077916,1320.838075,1493.121302,-9437.292334
280.080511,880.558717,-229.710970,-9839.286531
280.083105,287.138712,-2641.676150,-10662.417506
280.085700,574.277424,57.427742,-9839.286531
280.088295,210.568389,995.414202,-10011.569758
280.090890,937.986459,-133.998066,-10451.849117
280.093485,267.996131,1014.556782,-9418.149754
280.096079,287.138712,382.851616,-10088.140082
280.098674,612.562586,574.277424,-10432.706536
280.101269,229.710970,1378.265818,-9781.858789
280.103864,382.851616,363.709035,-10049.854920
280.106458,957.129040,-555.134843,-9896.714274
280.109053,191.425808,631.705166,-9896.714274
280.111648,248.853550,-1205.982590,-10470.991698
280.114243,650.847747,-2067.398726,-10432.706536
280.116837,382.851616,-229.710970,-9552.147819
280.119432,708.275490,1512.263883,-9877.571693
280.122027,-306.281293,-727.418070,-10624.132344
280.124622,172.283227,1722.832272,-9877.571693
280.127216,2316.252277,2009.970984,-9418.149754
280.129811,861.416136,-1971.685822,-10451.849117
280.132406,-1454.836141,3196.810994,-9341.579430
280.135001,1033.699363,114.855485,-10528.419440
280.137595,-1397.408398,-497.707101,-10872.985894
280.140191,-229.710970,1684.547110,-10049.854920
280.142786,1301.695494,401.994197,-9896.714274
280.145381,2086.541307,3273.381317,-9609.575562
280.147976,-1416.550979,1665.404530,-9667.003304
280.150571,727.418070,1761.117434,-10088.140082
280.153166,382.851616,-191.425808,-9705.288466
280.155762,210.568389,555.134843,-9915.856854
280.158357,995.414202,708.275490,-10336.993632
280.160952,516.849682,421.136778,-9801.001370
280.163547,593.420005,2928.814862,-10126.425243
280.166142,823.130974,248.853550,-9992.427178
280.168737,-153.140646,2488.535504,-9437.292334
280.171333,574.277424,363.709035,-10356.136213
280.173928,861.416136,172.283227,-10030.712339
280.176523,382.851616,1588.834206,-9667.003304
280.179118,401.994197,133.998066,-10222.138147
280.181713,593.420005,1473.978722,-9839.286531
280.184308,287.138712,1875.972918,-9341.579430
280.186904,363.709035,-38.285162,-10604.989763
280.189499,689.132909,3541.377448,-9628.718142
280.192094,574.277424,421.136778,-9801.001370
280.194689,-574.277424,3905.086483,-9628.718142
280.197284,1837.687757,2048.256146,-9877.571693
280.199880,-306.281293,1665.404530,-10068.997501
280.202475,765.703232,440.279358,-10030.712339
280.205070,-363.709035,-344.566454,-9494.720077
280.207665,2201.396792,516.849682,-9743.573627
280.210260,1799.402595,0.000000,-10068.997501
280.212855,133.998066,363.709035,-10145.567824
280.215451,-1129.412267,-267.996131,-10011.569758
280.218046,287.138712,-3694.518094,-10566.704602
280.220641,1397.408398,3656.232933,-9322.436850
280.223236,1378.265818,-153.140646,-10088.140082
280.225831,-421.136778,1990.828403,-10011.569758
280.228426,57.427742,133.998066,-9877.571693
280.231022,555.134843,248.853550,-9973.284597
280.233617,1148.554848,-823.130974,-10011.569758
280.236212,306.281293,-1435.693560,-10088.140082
280.238807,-172.283227,248.853550,-10030.712339
280.241402,1110.269686,1320.838075,-9954.142016
280.243997,306.281293,-172.283227,-10049.854920
280.246592,210.568389,803.988394,-9533.005238
280.249187,650.847747,880.558717,-9934.999435
280.251782,555.134843,-229.710970,-10777.272990
280.254377,325.423874,1588.834206,-9743.573627
280.256971,325.423874,19.142581,-9667.003304
280.259566,574.277424,-153.140646,-10126.425243
280.262161,114.855485,-363.709035,-9954.142016
280.264756,574.277424,-1703.689691,-10222.138147
280.267351,823.130974,-1301.695494,-10164.710405
280.269946,823.130974,2297.109696,-9360.722011
280.272540,-784.845813,-1512.263883,-10413.563955
280.275135,1052.841944,2163.111630,-10030.712339
280.277730,1703.689691,2603.390989,-9035.298138
280.280325,1837.687757,-2086.541307,-10260.423309
280.282920,-1071.984525,2871.387120,-9896.714274
280.285515,2124.826469,3024.527766,-9418.149754
280.288110,-746.560651,-2201.396792,-10700.702667
280.290704,478.564520,2871.387120,-9686.145885
280.293299,880.558717,976.271621,-9705.288466
280.295894,1990.828403,3139.383251,-9877.571693
280.298489,-1569.691626,2009.970984,-9705.288466
280.301084,1110.269686,1722.832272,-9801.001370
280.303679,1091.127106,-344.566454,-10068.997501
280.306274,95.712904,440.279358,-10068.997501
280.308868,555.134843,1244.267752,-10183.852986
280.311463,1052.841944,669.990328,-9954.142016
280.314058,191.425808,-229.710970,-10126.425243
280.316653,153.140646,3426.521963,-9207.581365
280.319248,1569.691626,1014.556782,-10049.854920
280.321843,191.425808,344.566454,-9992.427178
280.324438,210.568389,1569.691626,-9839.286531
280.327032,1014.556782,861.416136,-10241.280728
280.329627,363.709035,516.849682,-9877.571693
280.332222,287.138712,3043.670347,-9169.296203
280.334817,1359.123237,287.138712,-10356.136213
280.337412,-708.275490,2545.963246,-9781.858789
280.340007,-57.427742,1569.691626,-10260.423309
280.342601,2105.683888,3656.232933,-9322.436850
280.345196,-612.562586,1780.260014,-9647.860723
280.347790,-689.132909,2450.250342,-10088.140082
280.350384,2239.681954,631.705166,-10068.997501
280.352979,-1990.828403,401.994197,-9724.431046
280.355574,2029.113565,-1320.838075,-10088.140082
280.358168,-861.416136,-401.994197,-9973.284597
280.360763,765.703232,1282.552914,-10547.562021
280.363358,1263.410333,-1971.685822,-9781.858789
280.365952,191.425808,2833.101958,-9322.436850
280.368547,516.849682,-210.568389,-10088.140082
280.371141,1856.830338,-1531.406464,-10241.280728
280.373736,-535.992262,1933.400661,-10145.567824
280.376331,-114.855485,19.142581,-9877.571693
280.378925,937.986459,631.705166,-9820.143950
280.381520,1071.984525,421.136778,-9973.284597
280.384114,0.000000,-1320.838075,-10356.136213
280.386709,363.709035,-1167.697429,-9992.427178
280.389304,229.710970,1512.263883,-9762.716208
280.391898,593.420005,1378.265818,-10049.854920
280.394493,937.986459,-382.851616,-9896.714274
280.397088,172.283227,1531.406464,-9494.720077
280.399682,-382.851616,689.132909,-10528.419440
280.402277,1282.552914,421.136778,-10202.995566
280.404871,727.418070,287.138712,-9705.288466
280.407466,-306.281293,57.427742,-9820.143950
280.410061,1205.982590,-1952.543242,-10432.706536
280.412655,516.849682,-1071.984525,-10260.423309
280.415250,746.560651,-1129.412267,-9896.714274
280.417845,-593.420005,669.990328,-10107.282662
280.420439,1799.402595,3885.943902,-9399.007173
280.423034,-459.421939,-1722.832272,-10183.852986
280.425628,708.275490,497.707101,-10088.140082
280.428223,2048.256146,-957.129040,-10030.712339
280.430785,-1186.840010,899.701298,-10241.280728
280.433346,2431.107762,4919.643266,-9207.581365
280.435908,440.279358,-1091.127106,-10030.712339
280.438470,-957.129040,401.994197,-10356.136213
280.441031,-401.994197,1569.691626,-9839.286531
280.443593,497.707101,1607.976787,-10298.708470
280.446154,555.134843,1971.685822,-9724.431046
280.448716,976.271621,2699.103893,-9207.581365
280.451278,746.560651,976.271621,-10126.425243
280.453839,555.134843,-95.712904,-10088.140082
280.456401,1091.127106,1550.549045,-9992.427178
280.458962,210.568389,516.849682,-9954.142016
280.461524,-248.853550,-153.140646,-10049.854920
280.464086,1282.552914,2488.535504,-9513.862658
280.466647,689.132909,1186.840010,-9743.573627
280.469209,38.285162,440.279358,-10356.136213
280.471771,765.703232,1320.838075,-9762.716208
280.474332,823.130974,1263.410333,-9705.288466
280.476894,631.705166,497.707101,-10145.567824
280.479455,880.558717,1167.697429,-9762.716208
280.482017,153.140646,2737.389054,-9877.571693
280.484579,-421.136778,-172.283227,-10604.989763
280.487140,1856.830338,4326.223261,-9131.011042
280.489702,95.712904,1550.549045,-9934.999435
280.492264,-344.566454,3254.238736,-9839.286531
280.494825,1856.830338,1818.545176,-9781.858789
280.497387,-1799.402595,76.570323,-9743.573627
280.499948,2048.256146,-937.986459,-10011.569758
280.502510,-708.275490,-842.273555,-10451.849117
280.505072,19.142581,957.129040,-10566.704602
280.507633,1339.980656,-1703.689691,-9437.292334
280.510195,535.992262,2316.252277,-9628.718142
280.512757,382.851616,306.281293,-10107.282662
280.515318,459.421939,-1186.840010,-10183.852986
280.517880,-248.853550,2048.256146,-10336.993632
280.520441,38.285162,-38.285162,-9590.432981
280.523003,746.560651,306.281293,-9934.999435
280.525565,1435.693560,267.996131,-10241.280728
280.528126,172.283227,-2220.539373,-10336.993632
280.530688,191.425808,344.566454,-9686.145885
280.533254,957.129040,114.855485,-10145.567824
280.535821,440.279358,1244.267752,-10068.997501
280.538387,440.279358,-478.564520,-10049.854920
280.540954,440.279358,1875.972918,-9341.579430
280.543520,440.279358,306.281293,-10413.563955
280.546087,937.986459,478.564520,-10413.563955
280.548653,650.847747,-421.136778,-9877.571693
280.551220,440.279358,-382.851616,-9820.143950
280.553786,727.418070,-2163.111630,-10336.993632
280.556353,363.709035,-1282.552914,-10451.849117
280.558919,765.703232,1263.410333,-9801.001370
280.561486,-1014.556782,-2373.680019,-10719.845248
280.564052,478.564520,114.855485,-10068.997501
280.566619,1205.982590,2909.672282,-9092.725880
280.569185,1512.263883,-2565.105827,-10777.272990
280.571752,-1148.554848,3905.086483,-9379.864592
280.574318,593.420005,765.703232,-10260.423309
280.576885,-1301.695494,-1225.125171,-10949.556218
280.579451,1550.549045,4307.080680,-8537.591037
280.582018,803.988394,191.425808,-10202.995566
280.584584,1091.127106,3407.379382,-9973.284597
280.587151,-1378.265818,2641.676150,-9533.005238
280.589717,1033.699363,1416.550979,-9973.284597
280.592284,842.273555,765.703232,-9322.436850
280.594850,-133.998066,344.566454,-9954.142016
280.597417,440.279358,440.279358,-10470.991698
280.599983,1167.697429,1722.832272,-9667.003304
280.602550,401.994197,-459.421939,-10088.140082
280.605116,-727.418070,2143.969050,-9724.431046
280.607683,1454.836141,1416.550979,-9954.142016
280.610249,1014.556782,459.421939,-10164.710405
280.612816,0.000000,995.414202,-9877.571693
280.615382,823.130974,363.709035,-10068.997501
280.617948,497.707101,1359.123237,-9877.571693
280.620515,191.425808,516.849682,-9801.001370
280.623081,191.425808,2507.678085,-9628.718142
280.625648,114.855485,976.271621,-10509.276859
280.628214,842.273555,4173.082614,-9686.145885
280.630781,880.558717,1990.828403,-9801.001370
280.633347,-344.566454,2488.535504,-9858.429112
280.635918,1416.550979,1550.549045,-9494.720077
280.638488,-1741.974853,382.851616,-9896.714274
280.641059,2297.109696,-1856.830338,-10566.704602
280.643629,-1339.980656,-421.136778,-9858.429112
280.646200,1033.699363,421.136778,-10624.132344
280.648770,1397.408398,-1646.261949,-9590.432981
280.651341,-267.996131,3101.098090,-9303.294269
280.653911,765.703232,2967.100024,-9839.286531
280.656482,1205.982590,-1129.412267,-10260.423309
280.659052,-210.568389,2354.537438,-9839.286531
280.661623,306.281293,-287.138712,-9896.714274
280.664193,612.562586,1339.980656,-9705.288466
280.666764,1186.840010,-650.847747,-10202.995566
280.669334,267.996131,-363.709035,-10279.565890
280.671905,842.273555,153.140646,-9705.288466
280.674475,38.285162,478.564520,-9762.716208
280.677046,-57.427742,689.132909,-9934.999435
280.679616,918.843878,823.130974,-9705.288466
280.682187,669.990328,-267.996131,-10126.425243
280.684757,191.425808,1684.547110,-9915.856854
280.687328,708.275490,-172.283227,-10030.712339
280.689898,153.140646,-57.427742,-9877.571693
280.692469,669.990328,-1205.982590,-9820.143950
280.695039,344.566454,-1933.400661,-10260.423309
280.697610,1339.980656,-650.847747,-10164.710405
280.700180,-669.990328,-497.707101,-10126.425243
280.702751,1722.832272,3809.373579,-9456.434915
280.705321,899.701298,-1263.410333,-9839.286531
280.707892,210.568389,-880.558717,-10451.849117
280.710462,727.418070,95.712904,-9877.571693
280.713033,-842.273555,-612.562586,-10547.562021
280.715603,2086.541307,5264.209720,-9035.298138
280.718174,727.418070,727.418070,-9131.011042
280.720744,95.712904,153.140646,-10260.423309
280.723315,-153.140646,2373.680019,-9647.860723
280.725885,-612.562586,1512.263883,-10624.132344
280.728456,1167.697429,669.990328,-10088.140082
280.731026,76.570323,3158.525832,-8843.872330
280.733597,1320.838075,516.849682,-10336.993632
280.736167,287.138712,172.283227,-9954.142016
280.738740,363.709035,440.279358,-9954.142016
280.741314,191.425808,2182.254211,-9915.856854
280.743887,1339.980656,746.560651,-9360.722011
280.746460,363.709035,1588.834206,-9686.145885
280.749033,191.425808,1588.834206,-10241.280728
280.751607,1052.841944,210.568389,-10145.567824
280.754180,401.994197,1416.550979,-9667.003304
280.756753,-363.709035,880.558717,-10126.425243
280.759326,1435.693560,708.275490,-9877.571693
280.761900,-421.136778,3369.094221,-9054.440718
280.764473,-593.420005,440.279358,-10585.847182
280.767046,325.423874,4441.078746,-9705.288466
280.769620,1895.115499,2909.672282,-9513.862658
280.772193,-133.998066,1588.834206,-10068.997501
280.774766,1435.693560,1454.836141,-9686.145885
280.777339,-1512.263883,191.425808,-9705.288466
280.779913,2067.398726,-1301.695494,-10336.993632
280.782486,-1014.556782,-248.853550,-10049.854920
280.785059,459.421939,267.996131,-10758.130410
280.787632,1110.269686,-1837.687757,-9360.722011
280.790206,535.992262,-574.277424,-10145.567824
280.792779,1550.549045,2699.103893,-9705.288466
280.795352,1665.404530,-421.136778,-10183.852986
280.797925,-421.136778,2335.394858,-10183.852986
280.800499,153.140646,-382.851616,-9647.860723
280.803072,344.566454,976.271621,-9590.432981
280.805645,803.988394,248.853550,-10260.423309
280.808218,746.560651,-823.130974,-10068.997501
280.810792,248.853550,-1416.550979,-10164.710405
280.813365,-76.570323,2316.252277,-9494.720077
280.815938,478.564520,842.273555,-10011.569758
280.818512,1148.554848,-918.843878,-10279.565890
280.821085,0.000000,2316.252277,-9207.581365
280.823658,344.566454,-344.566454,-10528.419440
280.826231,363.709035,421.136778,-10356.136213
280.828805,363.709035,1071.984525,-9207.581365
280.831378,401.994197,-3139.383251,-9973.284597
280.833951,669.990328,-267.996131,-10107.282662
280.836524,-478.564520,2545.963246,-9667.003304
280.839098,593.420005,-1225.125171,-10585.847182
280.841673,-114.855485,-459.421939,-10068.997501
280.844249,1282.552914,2182.254211,-8958.727814
280.846825,1359.123237,-2488.535504,-10509.276859
280.849401,-746.560651,4115.654872,-9877.571693
280.851977,1148.554848,2009.970984,-10011.569758
280.854553,-1454.836141,-1627.119368,-10643.274925
280.857128,1454.836141,3885.943902,-8920.442653
280.859704,114.855485,57.427742,-9705.288466
280.862280,1741.974853,2105.683888,-10528.419440
280.864856,-937.986459,2852.244539,-9609.575562
280.867432,1837.687757,1071.984525,-9781.858789
280.870007,1416.550979,823.130974,-9743.573627
280.872583,172.283227,612.562586,-9762.716208
280.875159,612.562586,1435.693560,-10241.280728
280.877735,191.425808,-957.129040,-10279.565890
280.880311,689.132909,2086.541307,-9801.001370
280.882886,669.990328,1722.832272,-9533.005238
280.885462,172.283227,650.847747,-9915.856854
280.888038,669.990328,153.140646,-9934.999435
280.890614,669.990328,2890.529701,-9513.862658
280.893190,1378.265818,-382.851616,-10490.134278
280.895766,-727.418070,459.421939,-9552.147819
280.898341,612.562586,2603.390989,-9341.579430
280.900917,976.271621,363.709035,-10566.704602
280.903493,-210.568389,4575.076811,-9896.714274
280.906069,1244.267752,3732.803256,-9552.147819
280.908645,478.564520,1110.269686,-9992.427178
280.911220,861.416136,1454.836141,-9647.860723
280.913796,-1244.267752,650.847747,-9571.290400
280.916372,1895.115499,1263.410333,-10222.138147
280.918948,1741.974853,-823.130974,-10509.276859
280.921524,-1091.127106,-19.142581,-9934.999435
280.924099,-248.853550,-1990.828403,-10030.712339
280.926675,689.132909,-1493.121302,-10241.280728
280.929251,1359.123237,3771.088418,-9437.292334
280.931827,1052.841944,-823.130974,-10528.419440
280.934403,-76.570323,2354.537438,-10145.567824
280.936978,382.851616,976.271621,-9456.434915
280.939554,669.990328,-1071.984525,-10336.993632
280.942130,765.703232,1225.125171,-9934.999435
280.944679,421.136778,-1569.691626,-10088.140082
280.947228,-191.425808,-153.140646,-10356.136213
280.949778,401.994197,1531.406464,-9628.718142
280.952327,861.416136,976.271621,-9609.575562
280.954876,172.283227,-555.134843,-10394.421374
280.957425,440.279358,1359.123237,-9628.718142
280.959974,57.427742,-440.279358,-10949.556218
280.962523,861.416136,421.136778,-9877.571693
280.965072,497.707101,-1167.697429,-9111.868461
280.967622,382.851616,-1875.972918,-10413.563955
280.970171,1339.980656,842.273555,-10126.425243
280.972720,-1493.121302,-1339.980656,-10547.562021
280.975269,1091.127106,3847.658741,-9513.862658
280.977818,1110.269686,-459.421939,-9399.007173
280.980367,76.570323,-1741.974853,-10375.278794
280.982916,-1129.412267,3656.232933,-9954.142016
280.985466,248.853550,-593.420005,-10566.704602
280.988015,-765.703232,535.992262,-10509.276859
280.990564,1627.119368,4421.936165,-8556.733618
280.993113,1531.406464,-19.142581,-9877.571693
280.995662,19.142581,3081.955509,-9609.575562
280.998211,-995.414202,1990.828403,-10585.847182
281.000761,1971.685822,-363.709035,-10413.563955
281.003310,-1110.269686,3407.379382,-8863.014910
281.005859,650.847747,172.283227,-10183.852986
281.008408,1301.695494,0.000000,-9992.427178
281.010957,937.986459,2852.244539,-9781.858789
281.013506,-382.851616,-1493.121302,-10662.417506
281.016055,650.847747,1531.406464,-9303.294269
281.018605,612.562586,1799.402595,-9801.001370
281.021154,133.998066,574.277424,-10241.280728
281.023703,612.562586,-38.285162,-9934.999435
281.026252,1435.693560,1952.543242,-9762.716208
281.028801,440.279358,191.425808,-10049.854920
281.031350,-191.425808,1990.828403,-9609.575562
281.033899,1761.117434,2526.820666,-9418.149754
281.036449,-210.568389,3043.670347,-9762.716208
281.038998,995.414202,3847.658741,-9954.142016
281.041547,363.709035,2699.103893,-9934.999435
281.044096,1091.127106,229.710970,-9801.001370
281.046651,-1052.841944,765.703232,-8920.442653
281.049207,1282.552914,1627.119368,-9743.573627
281.051762,1952.543242,-1416.550979,-10643.274925
281.054318,-937.986459,535.992262,-10222.138147
281.056873,-574.277424,-1569.691626,-9820.143950
281.059428,401.994197,-2565.105827,-9896.714274
281.061984,1416.550979,3541.377448,-9686.145885
281.064539,1320.838075,-401.994197,-10356.136213
281.067094,-153.140646,2354.537438,-9934.999435
281.069650,650.847747,-382.851616,-9839.286531
281.072205,593.420005,-1205.982590,-9896.714274
281.074761,1091.127106,421.136778,-10107.282662
281.077316,191.425808,-2488.535504,-10738.987829
281.079871,478.564520,1531.406464,-9705.288466
281.082427,957.129040,-172.283227,-10241.280728
281.084982,210.568389,593.420005,-9743.573627
281.087537,631.705166,1320.838075,-9437.292334
281.090093,631.705166,-995.414202,-10470.991698
281.092648,248.853550,1033.699363,-10164.710405
281.095204,803.988394,-708.275490,-10183.852986
281.097759,516.849682,-1665.404530,-10030.712339
281.100314,612.562586,-114.855485,-9552.147819
281.102870,-574.277424,727.418070,-10202.995566
281.105425,976.271621,1014.556782,-10470.991698
281.107980,-803.988394,-1703.689691,-10432.706536
281.110536,1033.699363,1454.836141,-9303.294269
281.113091,1550.549045,-1569.691626,-10011.569758
281.115647,-899.701298,3790.230998,-9858.429112
281.118202,1952.543242,6087.340694,-9475.577496
281.120757,669.990328,-363.709035,-9743.573627
281.123313,-842.273555,421.136778,-10049.854920
281.125868,-229.710970,344.566454,-9724.431046
281.128423,2565.105827,976.271621,-10451.849117
281.130979,-1493.121302,3215.953574,-9628.718142
281.133534,1799.402595,1129.412267,-10011.569758
281.136090,650.847747,1071.984525,-9590.432981
281.138645,-612.562586,459.421939,-9915.856854
281.141200,95.712904,172.283227,-10432.706536
281.143756,1627.119368,2354.537438,-9360.722011
281.146311,593.420005,287.138712,-10126.425243
281.148872,-708.275490,1129.412267,-10030.712339
281.151433,1454.836141,823.130974,-9379.864592
281.153994,497.707101,1033.699363,-9839.286531
281.156554,-95.712904,574.277424,-10700.702667
281.159115,861.416136,918.843878,-9686.145885
281.161676,363.709035,1493.121302,-9322.436850
281.164237,823.130974,574.277424,-10011.569758
281.166798,-421.136778,4804.787781,-9322.436850
281.169359,1416.550979,3981.656806,-9820.143950
281.171919,-401.994197,2947.957443,-9915.856854
281.174480,1301.695494,1205.982590,-9533.005238
281.177041,-1531.406464,478.564520,-9303.294269
281.179602,2737.389054,-689.132909,-10241.280728
281.182163,-555.134843,-1359.123237,-10413.563955
281.184724,-76.570323,1205.982590,-10336.993632
281.187284,-95.712904,-2086.541307,-10068.997501
281.189845,899.701298,-1588.834206,-9973.284597
281.192406,1225.125171,3694.518094,-9418.149754
281.194967,746.560651,-1129.412267,-10413.563955
281.197528,210.568389,2986.242605,-10030.712339
281.200089,191.425808,-133.998066,-9743.573627
281.202649,191.425808,19.142581,-9762.716208
281.205210,1416.550979,-248.853550,-9934.999435
281.207771,727.418070,-95.712904,-10126.425243
281.210332,650.847747,-880.558717,-10241.280728
281.212893,555.134843,1818.545176,-9743.573627
281.215454,631.705166,-57.427742,-10068.997501
281.218014,746.560651,-382.851616,-9801.001370
281.220575,325.423874,1837.687757,-9609.575562
281.223136,401.994197,-746.560651,-10968.698798
281.225697,689.132909,-133.998066,-9992.427178
281.228258,727.418070,-1722.832272,-9590.432981
281.230819,937.986459,-1167.697429,-10298.708470
281.233380,-1473.978722,-1091.127106,-10911.271056
281.235940,1799.402595,3541.377448,-9667.003304
281.238501,803.988394,-1952.543242,-9896.714274
281.241062,191.425808,-1435.693560,-10413.563955
281.243623,803.988394,1110.269686,-9533.005238
281.246184,-1359.123237,-478.564520,-10528.419440
281.248745,1914.258080,5130.211654,-9724.431046
281.251310,1148.554848,2182.254211,-9092.725880
281.253875,612.562586,-689.132909,-10202.995566
281.256440,19.142581,2143.969050,-9781.858789
281.259005,133.998066,1531.406464,-9973.284597
281.261570,382.851616,-401.994197,-10604.989763
281.264135,-344.566454,3751.945837,-9207.581365
281.266701,1933.400661,1301.695494,-9781.858789
281.269266,95.712904,-401.994197,-9915.856854
281.271831,478.564520,1033.699363,-10049.854920
281.274396,631.705166,1129.412267,-9762.716208
281.276961,1014.556782,382.851616,-10126.425243
281.279526,191.425808,1244.267752,-9992.427178
281.282091,650.847747,1052.841944,-9513.862658
281.284657,363.709035,76.570323,-10222.138147
281.287222,133.998066,1454.836141,-10049.854920
281.289787,401.994197,2048.256146,-9954.142016
281.292352,421.136778,497.707101,-9954.142016
281.294917,153.140646,4555.934230,-9150.153622
281.297482,1359.123237,3675.375514,-9667.003304
281.300047,19.142581,2890.529701,-10336.993632
281.302613,1301.695494,2737.389054,-9513.862658
281.305178,-1550.549045,210.568389,-9533.005238
281.307743,2182.254211,-2411.965181,-10432.706536
281.310308,-1301.695494,76.570323,-9992.427178
281.312873,-842.273555,76.570323,-10604.989763
281.315438,727.418070,-2277.967115,-10030.712339
281.318004,689.132909,1205.982590,-9494.720077
281.320569,899.701298,842.273555,-9743.573627
281.323134,325.423874,153.140646,-10088.140082
281.325699,114.855485,2297.109696,-10145.567824
281.328264,478.564520,19.142581,-9934.999435
281.330829,172.283227,2545.963246,-9437.292334
281.333394,1569.691626,153.140646,-10126.425243
281.335960,593.420005,-1091.127106,-9934.999435
281.338525,-38.285162,421.136778,-10126.425243
281.341090,555.134843,823.130974,-9992.427178
281.343655,555.134843,1263.410333,-9686.145885
281.346220,440.279358,-784.845813,-9915.856854
281.348785,497.707101,995.414202,-9667.003304
281.351350,382.851616,172.283227,-10413.563955
281.353921,344.566454,-899.701298,-10126.425243
281.356490,76.570323,-555.134843,-9418.149754
281.359059,1148.554848,153.140646,-9686.145885
281.361627,-995.414202,-1990.828403,-10700.702667
281.364196,995.414202,1914.258080,-10011.569758
281.366765,1473.978722,1148.554848,-9188.438784
281.369334,727.418070,-2277.967115,-10375.278794
281.371902,-765.703232,3656.232933,-9245.866526
281.374471,-440.279358,-803.988394,-10547.562021
281.377040,76.570323,1895.115499,-10643.274925
281.379609,650.847747,4249.652938,-8843.872330
281.382177,1167.697429,-344.566454,-9992.427178
281.384746,823.130974,2335.394858,-9858.429112
281.387315,-1167.697429,3024.527766,-9475.577496
281.389884,1952.543242,-1722.832272,-10758.130410
281.392452,-1473.978722,2947.957443,-9475.577496
281.395021,1225.125171,1627.119368,-9877.571693
281.397590,1014.556782,-631.705166,-9973.284597
281.400159,57.427742,1990.828403,-9781.858789
281.402727,287.138712,727.418070,-10068.997501
281.405296,535.992262,1799.402595,-9858.429112
281.407865,555.134843,-76.570323,-10030.712339
281.410434,784.845813,1550.549045,-9437.292334
281.413002,669.990328,612.562586,-10413.563955
281.415571,-153.140646,1110.269686,-10126.425243
281.418140,19.142581,1052.841944,-9533.005238
281.420709,1282.552914,2565.105827,-9762.716208
281.423277,210.568389,2909.672282,-9839.286531
281.425846,-325.423874,4307.080680,-9743.573627
281.428415,995.414202,3273.381317,-9762.716208
281.430984,-516.849682,-1588.834206,-10126.425243
281.433552,1129.412267,-2143.969050,-10202.995566
281.436121,-995.414202,2009.970984,-9418.149754
281.438690,3732.803256,-1588.834206,-10643.274925
281.441259,-459.421939,421.136778,-9667.003304
281.443827,-823.130974,153.140646,-9973.284597
281.446396,459.421939,-3522.234867,-10738.987829
281.448965,593.420005,2545.963246,-9781.858789
281.451534,631.705166,1263.410333,-10107.282662
281.454102,918.843878,918.843878,-9781.858789
281.456674,172.283227,1684.547110,-9609.575562
281.459245,363.709035,-2086.541307,-10375.278794
281.461816,957.129040,593.420005,-9839.286531
281.464388,497.707101,-1416.550979,-10145.567824
281.466959,-57.427742,1263.410333,-10088.140082
281.469530,459.421939,459.421939,-10202.995566
281.472101,574.277424,842.273555,-9533.005238
281.474673,421.136778,-1148.554848,-10011.569758
281.477244,-191.425808,1569.691626,-10088.140082
281.479815,995.414202,-287.138712,-10336.993632
281.482387,306.281293,-1780.260014,-9896.714274
281.484958,957.129040,2009.970984,-8939.585234
281.487529,-650.847747,-3254.238736,-10796.415571
281.490100,631.705166,3024.527766,-9858.429112
281.492672,1493.121302,2507.678085,-9169.296203
281.495243,1186.840010,-3483.949706,-10509.276859
281.497814,-478.564520,3962.514226,-9265.009107
281.500386,-650.847747,765.703232,-10222.138147
281.502957,-153.140646,440.279358,-11006.983960
281.505528,2105.683888,4996.213589,-8556.733618
281.508099,880.558717,-325.423874,-10049.854920
281.510671,-95.712904,2297.109696,-9724.431046
281.513242,440.279358,1473.978722,-9877.571693
281.515813,2048.256146,-1875.972918,-10777.272990
281.518385,-1875.972918,2431.107762,-9647.860723
281.520956,1741.974853,1435.693560,-9934.999435
281.523527,727.418070,114.855485,-10068.997501
281.526098,401.994197,2124.826469,-9552.147819
281.528670,669.990328,-535.992262,-10183.852986
281.531241,172.283227,1512.263883,-9801.001370
281.533812,842.273555,899.701298,-10107.282662
281.536384,1531.406464,574.277424,-9839.286531
281.538955,287.138712,1244.267752,-9801.001370
281.541526,-191.425808,210.568389,-10643.274925
281.544097,1493.121302,918.843878,-9743.573627
281.546669,19.142581,3254.238736,-9341.579430
281.549240,976.271621,2737.389054,-10432.706536
281.551811,210.568389,3330.809059,-9743.573627
281.554383,1091.127106,3579.662610,-9360.722011
281.556954,-1359.123237,153.140646,-9973.284597
281.559527,3349.951640,-1512.263883,-10088.140082
281.562101,-1359.123237,-1071.984525,-10260.423309
281.564674,19.142581,38.285162,-10681.560086
281.567248,2105.683888,-2909.672282,-9667.003304
281.569821,-114.855485,2679.961312,-9284.151688
281.572395,497.707101,-899.701298,-10719.845248
281.574968,937.986459,803.988394,-9762.716208
281.577542,401.994197,2411.965181,-9839.286531
281.580115,497.707101,-459.421939,-10222.138147
281.582689,210.568389,1225.125171,-9686.145885
281.585262,976.271621,-1531.406464,-10356.136213
281.587836,363.709035,76.570323,-10068.997501
281.590409,1071.984525,248.853550,-9628.718142
281.592983,459.421939,1531.406464,-9896.714274
281.595556,191.425808,-133.998066,-10413.563955
281.598130,880.558717,-459.421939,-9360.722011
281.600703,459.421939,1071.984525,-10107.282662
281.603277,114.855485,-593.420005,-10911.271056
281.605850,1052.841944,-1320.838075,-9781.858789
281.608424,1033.699363,478.564520,-9609.575562
281.610997,-880.558717,-2373.680019,-10432.706536
281.613571,1435.693560,3024.527766,-9743.573627
281.616144,861.416136,-976.271621,-10030.712339
281.618718,172.283227,-1933.400661,-10451.849117
281.621291,995.414202,842.273555,-9360.722011
281.623865,-1225.125171,344.566454,-10394.421374
281.626438,2354.537438,5666.203917,-9322.436850
281.629012,2182.254211,4421.936165,-8786.444587
281.631585,191.425808,-574.277424,-10375.278794
281.634159,-401.994197,1550.549045,-9437.292334
281.636732,842.273555,440.279358,-10241.280728
281.639306,-401.994197,516.849682,-10375.278794
281.641879,535.992262,3560.520029,-8920.442653
281.644453,1607.976787,1435.693560,-9973.284597
281.647026,-765.703232,1646.261949,-10145.567824
281.649600,746.560651,0.000000,-9839.286531
281.652173,382.851616,1454.836141,-9934.999435
281.654747,861.416136,440.279358,-10049.854920
281.657320,191.425808,229.710970,-10145.567824
281.659893,650.847747,1359.123237,-9781.858789
281.662444,478.564520,593.420005,-9896.714274
281.664994,153.140646,-210.568389,-10298.708470
281.667544,382.851616,1856.830338,-9571.290400
281.670094,555.134843,2890.529701,-9705.288466
281.672644,1320.838075,3024.527766,-9839.286531
281.675194,325.423874,4000.799387,-9207.581365
281.677745,1186.840010,1493.121302,-9992.427178
281.680295,-1799.402595,1588.834206,-9533.005238
281.682845,2909.672282,-1512.263883,-10126.425243
281.685395,-1301.695494,-1225.125171,-10336.993632
281.687945,363.709035,153.140646,-10528.419440
281.690496,1531.406464,-2354.537438,-9628.718142
281.693046,-57.427742,2526.820666,-9226.723946
281.695596,1339.980656,2048.256146,-9781.858789
281.698146,76.570323,-57.427742,-9896.714274
281.700696,440.279358,3005.385186,-10183.852986
281.703246,765.703232,-612.562586,-10011.569758
281.705797,-535.992262,-516.849682,-10088.140082
281.708347,421.136778,-1339.980656,-10547.562021
281.710897,1225.125171,650.847747,-9647.860723
281.713447,478.564520,19.142581,-10088.140082
281.715997,191.425808,708.275490,-10260.423309
281.718547,784.845813,248.853550,-9571.290400
281.721098,880.558717,650.847747,-9743.573627
281.723648,593.420005,-57.427742,-10624.132344
281.726198,880.558717,-1148.554848,-10260.423309
281.728748,1033.699363,-823.130974,-9934.999435
281.731298,-899.701298,555.134843,-9858.429112
281.733848,1033.699363,-325.423874,-10030.712339
281.736399,-114.855485,-2354.537438,-10796.415571
281.738949,976.271621,1550.549045,-9762.716208
281.741499,1550.549045,-1780.260014,-9934.999435
281.744049,-823.130974,4211.367776,-9552.147819
281.746599,746.560651,3388.236802,-9896.714274
281.749149,-1167.697429,-1014.556782,-10700.702667
281.751700,19.142581,1473.978722,-10260.423309
281.754250,210.568389,-267.996131,-9552.147819
281.756800,1990.828403,229.710970,-10451.849117
281.759350,-803.988394,4479.363907,-9303.294269
281.761900,2813.959378,-1167.697429,-10298.708470
281.764456,-1837.687757,1416.550979,-9743.573627
281.767011,459.421939,1627.119368,-10145.567824
281.769566,1818.545176,344.566454,-10222.138147
281.772122,287.138712,899.701298,-9609.575562
281.774677,-478.564520,76.570323,-10336.993632
281.777233,1339.980656,440.279358,-9896.714274
281.779788,689.132909,1914.258080,-9513.862658
281.782344,-555.134843,-229.710970,-10643.274925
281.784899,382.851616,784.845813,-9667.003304
281.787454,995.414202,1550.549045,-9590.432981
281.790010,-574.277424,2833.101958,-10183.852986
281.792565,1914.258080,2947.957443,-9571.290400
281.795121,-133.998066,4498.506488,-9667.003304
281.797676,1052.841944,1952.543242,-9973.284597
281.800231,-1914.258080,1722.832272,-9360.722011
281.802787,2794.816797,-1225.125171,-10126.425243
281.805342,-2067.398726,-1014.556782,-10279.565890
281.807898,1397.408398,-95.712904,-10585.847182
281.810453,1493.121302,-2124.826469,-9686.145885
281.813009,-459.421939,2411.965181,-9360.722011
281.815564,708.275490,-2239.681954,-10624.132344
281.818119,612.562586,2124.826469,-9877.571693
281.820675,153.140646,2584.248408,-9992.427178
281.823230,593.420005,-133.998066,-9934.999435
281.825786,114.855485,1052.841944,-9418.149754
281.828341,899.701298,133.998066,-9992.427178
281.830896,1091.127106,-2718.246474,-10643.274925
281.833452,-382.851616,2316.252277,-9494.720077
281.836007,421.136778,1129.412267,-10241.280728
281.838563,861.416136,-708.275490,-9973.284597
281.841118,114.855485,1435.693560,-8958.727814
281.843674,-267.996131,-363.709035,-11045.269122
281.846233,746.560651,0.000000,-10126.425243
281.848793,1703.689691,-1071.984525,-9265.009107
281.851353,-1320.838075,191.425808,-10145.567824
281.853913,1531.406464,612.562586,-9896.714274
281.856473,210.568389,-2833.101958,-10413.563955
281.859032,133.998066,1339.980656,-9954.142016
281.861592,1933.400661,-2220.539373,-10068.997501
281.864152,-631.705166,3885.943902,-9418.149754
281.866712,2086.541307,7121.040058,-8977.870395
281.869272,497.707101,535.992262,-9743.573627
281.871832,0.000000,1071.984525,-10470.991698
281.874391,-631.705166,-57.427742,-9954.142016
281.876951,2545.963246,-344.566454,-10279.565890
281.879511,-708.275490,4153.940034,-9150.153622
281.882071,2048.256146,-478.564520,-10413.563955
281.884631,-1301.695494,1473.978722,-9628.718142
281.887191,-1033.699363,1722.832272,-10107.282662
281.889750,1588.834206,478.564520,-9992.427178
281.892310,669.990328,1186.840010,-9399.007173
281.894870,-153.140646,535.992262,-10394.421374
281.897430,1014.556782,-191.425808,-10088.140082
281.899990,535.992262,2086.541307,-9303.294269
281.902550,287.138712,976.271621,-10241.280728
281.905109,-669.990328,-363.709035,-10432.706536
281.907669,1339.980656,2507.678085,-9092.725880
281.910229,1091.127106,1741.974853,-10336.993632
281.912789,-267.996131,4498.506488,-9724.431046
281.915349,765.703232,3675.375514,-9571.290400
281.917908,38.285162,-918.843878,-10241.280728
281.920468,784.845813,-19.142581,-9820.143950
281.923028,593.420005,1837.687757,-9475.577496
281.925588,2699.103893,-2871.387120,-10662.417506
281.928148,-1473.978722,-133.998066,-10088.140082
281.930708,-516.849682,-2565.105827,-10298.708470
281.933267,-172.283227,-3924.229064,-10738.987829
281.935827,2029.113565,3464.807125,-9609.575562
281.938387,248.853550,937.986459,-10202.995566
281.940947,287.138712,1665.404530,-9896.714274
281.943507,899.701298,1301.695494,-9552.147819
281.946067,210.568389,-1569.691626,-10413.563955
281.948630,593.420005,1627.119368,-9686.145885
281.951194,842.273555,-2699.103893,-10413.563955
281.953758,-210.568389,1914.258080,-9954.142016
281.956322,267.996131,401.994197,-10394.421374
281.958885,1071.984525,-976.271621,-9705.288466
281.961449,-76.570323,1875.972918,-9360.722011
281.964013,459.421939,-842.273555,-10681.560086
281.966577,1148.554848,-2029.113565,-10490.134278
281.969140,-401.994197,2775.674216,-9131.011042
281.971704,689.132909,-3005.385186,-10279.565890
281.974268,669.990328,-842.273555,-10566.704602
281.976832,650.847747,2813.959378,-9322.436850
281.979395,1091.127106,-2565.105827,-10566.704602
281.981959,19.142581,3158.525832,-9915.856854
281.984523,918.843878,4747.360038,-9092.725880
281.987087,-1301.695494,-1569.691626,-10930.413637
281.989650,1091.127106,4517.649069,-9207.581365
281.992214,669.990328,-95.712904,-9801.001370
281.994778,382.851616,1914.258080,-10164.710405
281.997342,267.996131,2852.244539,-9322.436850
281.999905,1129.412267,-2143.969050,-10547.562021
282.002469,-1607.976787,1780.260014,-9934.999435
282.005033,516.849682,2545.963246,-9762.716208
282.007597,1435.693560,-325.423874,-10375.278794
282.010160,-478.564520,1780.260014,-9820.143950
282.012724,918.843878,-57.427742,-9743.573627
282.015288,382.851616,1933.400661,-9552.147819
282.017852,-516.849682,459.421939,-10624.132344
282.020415,1607.976787,363.709035,-9801.001370
282.022979,-210.568389,1588.834206,-9686.145885
282.025543,-191.425808,2143.969050,-10222.138147
282.028107,976.271621,2545.963246,-9647.860723
282.030670,306.281293,4345.365842,-9513.862658
282.033234,267.996131,3062.812928,-10030.712339
282.035798,-153.140646,-765.703232,-10126.425243
282.038362,1397.408398,153.140646,-9858.429112
282.040925,-229.710970,1703.689691,-9667.003304
282.043489,3292.523898,-2067.398726,-10356.136213
282.046053,-1225.125171,-650.847747,-9571.290400
282.048617,-1416.550979,-57.427742,-9724.431046
282.051160,-344.566454,-3771.088418,-10930.413637
282.053703,2105.683888,3503.092286,-9475.577496
282.056247,478.564520,689.132909,-10068.997501
282.058790,76.570323,1684.547110,-9820.143950
282.061334,899.701298,1416.550979,-9647.860723
282.063877,344.566454,-1148.554848,-10202.995566
282.066421,880.558717,1301.695494,-9609.575562
282.068964,899.701298,-1129.412267,-9992.427178
282.071507,306.281293,344.566454,-9992.427178
282.074051,344.566454,2258.824534,-9743.573627
282.076594,803.988394,-287.138712,-9992.427178
282.079138,784.845813,-57.427742,-9667.003304
282.081681,210.568389,-612.562586,-10222.138147
282.084225,1473.978722,-1473.978722,-10394.421374
282.086768,-631.705166,-344.566454,-10126.425243
282.089311,842.273555,1895.115499,-9475.577496
282.091855,1148.554848,-2105.683888,-10145.567824
282.094398,593.420005,-1799.402595,-10719.845248
282.096942,497.707101,803.988394,-9801.001370
282.099485,-918.843878,76.570323,-10356.136213
282.102029,2641.676150,6336.194245,-9188.438784
282.104572,287.138712,2316.252277,-9131.011042
282.107116,-153.140646,-19.142581,-10566.704602
282.109659,-708.275490,803.988394,-9801.001370
282.112202,555.134843,-363.709035,-10202.995566
282.114746,-401.994197,1225.125171,-10336.993632
282.117289,1512.263883,2660.818731,-9131.011042
282.119833,803.988394,535.992262,-9858.429112
282.122376,-516.849682,2431.107762,-9992.427178
282.124920,1339.980656,-287.138712,-10336.993632
282.127463,708.275490,1397.408398,-9552.147819
282.130006,-344.566454,-382.851616,-10202.995566
282.132550,535.992262,957.129040,-9705.288466
282.135093,823.130974,1416.550979,-9973.284597
282.137637,-765.703232,-574.277424,-10566.704602
282.140180,1914.258080,2067.398726,-9341.579430
282.142724,-229.710970,2833.101958,-9686.145885
282.145267,-535.992262,3617.947771,-10356.136213
282.147810,2105.683888,3866.801322,-9303.294269
282.150354,133.998066,-497.707101,-10107.282662
282.152904,-172.283227,-229.710970,-10164.710405
282.155453,995.414202,1665.404530,-9513.862658
282.158003,2794.816797,-1837.687757,-10298.708470
282.160552,-1569.691626,-1167.697429,-10317.851051
282.163102,-631.705166,-2469.392923,-10241.280728
282.165652,555.134843,-976.271621,-10145.567824
282.168201,1569.691626,1531.406464,-9839.286531
282.170751,421.136778,363.709035,-10164.710405
282.173300,555.134843,2603.390989,-9571.290400
282.175850,746.560651,995.414202,-9647.860723
282.178400,248.853550,765.703232,-10049.854920
282.180949,1033.699363,-1416.550979,-10088.140082
282.183499,-57.427742,-1205.982590,-10107.282662
282.186048,-153.140646,2220.539373,-10088.140082
282.188598,1071.984525,1588.834206,-10030.712339
282.191148,229.710970,-1952.543242,-9858.429112
282.193697,-306.281293,2718.246474,-9379.864592
282.196247,842.273555,-1454.836141,-10547.562021
282.198796,1052.841944,-727.418070,-10317.851051
282.201346,-1512.263883,267.996131,-9647.860723
282.203896,1818.545176,976.271621,-9265.009107
282.206445,746.560651,-1837.687757,-9973.284597
282.208995,-229.710970,-1493.121302,-10872.985894
282.211544,1244.267752,497.707101,-9724.431046
282.214094,-1416.550979,401.994197,-10202.995566
282.216644,937.986459,3790.230998,-9743.573627
282.219193,2813.959378,5111.069074,-8193.024582
282.221743,669.990328,76.570323,-10643.274925
282.224292,-708.275490,1741.974853,-9934.999435
282.226842,1052.841944,-574.277424,-10049.854920
282.229392,-363.709035,1263.410333,-10183.852986
282.231941,880.558717,2622.533570,-9092.725880
282.234491,1493.121302,1244.267752,-9590.432981
282.237040,-76.570323,1875.972918,-10164.710405
282.239590,516.849682,1071.984525,-9686.145885
282.242140,401.994197,-248.853550,-10126.425243
282.244689,459.421939,401.994197,-9762.716208
282.247239,1071.984525,2297.109696,-9609.575562
282.249788,-95.712904,-363.709035,-10585.847182
282.252338,-612.562586,1186.840010,-9590.432981
282.254870,1263.410333,2986.242605,-9131.011042
282.257402,1129.412267,1129.412267,-10356.136213
282.259934,-478.564520,5091.926493,-9360.722011
282.262467,1454.836141,3158.525832,-9667.003304
282.264999,-1052.841944,-631.705166,-10432.706536
282.267531,2297.109696,-1799.402595,-10183.852986
282.270063,-1512.263883,1473.978722,-9399.007173
282.272595,3062.812928,-1378.265818,-10834.700733
282.275128,918.843878,-995.414202,-9552.147819
282.277660,-1282.552914,363.709035,-9494.720077
282.280192,-574.277424,-3713.660675,-11026.126541
282.282724,2335.394858,2392.822600,-9571.290400
282.285256,516.849682,1607.976787,-10126.425243
282.287789,-440.279358,267.996131,-10088.140082
282.290321,1148.554848,1454.836141,-9494.720077
282.292853,784.845813,325.423874,-9858.429112
282.295385,210.568389,-1703.689691,-10528.419440
282.297917,325.423874,172.283227,-9705.288466
282.300450,-133.998066,2048.256146,-9915.856854
282.302982,248.853550,-133.998066,-10490.134278
282.305514,842.273555,1588.834206,-9207.581365
282.308046,823.130974,-1454.836141,-10566.704602
282.310578,287.138712,-823.130974,-10470.991698
282.313111,133.998066,784.845813,-9590.432981
282.315643,1205.982590,57.427742,-9973.284597
282.318175,-497.707101,-3828.516160,-10585.847182
282.320707,803.988394,574.277424,-9801.001370
282.323239,1435.693560,-1148.554848,-10241.280728
282.325772,-631.705166,3196.810994,-9858.429112
282.328304,2450.250342,7063.612315,-9226.723946
282.330836,210.568389,555.134843,-9456.434915
282.333368,-95.712904,1263.410333,-10145.567824
282.335900,-76.570323,746.560651,-10030.712339
282.338433,2105.683888,-38.285162,-10547.562021
282.340965,-95.712904,3464.807125,-9092.725880
282.343497,1416.550979,-1320.838075,-10432.706536
282.346029,-784.845813,1167.697429,-9667.003304
282.348561,-172.283227,1186.840010,-9801.001370
282.351093,650.847747,1952.543242,-10241.280728
282.353626,1167.697429,1129.412267,-9552.147819
282.356167,172.283227,-229.710970,-9992.427178
282.358708,555.134843,2316.252277,-9801.001370
282.361248,593.420005,612.562586,-9992.427178
282.363789,-440.279358,382.851616,-10049.854920
282.366329,708.275490,3464.807125,-9647.860723
282.368870,1607.976787,1435.693560,-10222.138147
282.371410,-440.279358,4594.219392,-9494.720077
282.373951,957.129040,3522.234867,-9513.862658
282.376491,-574.277424,-1033.699363,-10202.995566
282.379032,2124.826469,-1205.982590,-10317.851051
282.381572,-1301.695494,2029.113565,-9494.720077
282.384113,3464.807125,-2143.969050,-10317.851051
282.386653,440.279358,-631.705166,-9647.860723
282.389194,-1301.695494,-1397.408398,-10164.710405
282.391734,-210.568389,-3062.812928,-10566.704602
282.394275,2239.681954,2890.529701,-9667.003304
282.396815,363.709035,1320.838075,-9915.856854
282.399356,-133.998066,1741.974853,-9743.573627
282.401896,937.986459,2871.387120,-9360.722011
282.404437,1014.556782,-612.562586,-9992.427178
282.406977,-784.845813,-1378.265818,-10528.419440
282.409518,382.851616,325.423874,-9934.999435
282.412058,1282.552914,976.271621,-9743.573627
282.414599,38.285162,-287.138712,-10394.421374
282.417139,-344.566454,1110.269686,-9609.575562
282.419680,1282.552914,-306.281293,-9762.716208
282.422220,746.560651,-650.847747,-10375.278794
282.424761,-976.271621,-708.275490,-10145.567824
282.427301,1607.976787,2124.826469,-9226.723946
282.429842,765.703232,-3292.523898,-10413.563955
282.432383,-95.712904,-823.130974,-10470.991698
282.434923,957.129040,344.566454,-9686.145885
282.437464,-325.423874,1875.972918,-10145.567824
282.440004,2545.963246,5857.629725,-9265.009107
282.442545,995.414202,3407.379382,-8556.733618
282.445085,-612.562586,-38.285162,-10643.274925
282.447626,-497.707101,861.416136,-9877.571693
282.450166,1837.687757,-746.560651,-10432.706536
282.452707,-689.132909,3062.812928,-9762.716208
282.455247,1895.115499,421.136778,-9801.001370
282.457795,287.138712,76.570323,-9954.142016
282.460342,-631.705166,2105.683888,-9801.001370
282.462890,1110.269686,2009.970984,-10030.712339
282.465437,1301.695494,1129.412267,-9877.571693
282.467985,-459.421939,76.570323,-9934.999435
282.470533,497.707101,1205.982590,-9705.288466
282.473080,574.277424,995.414202,-10030.712339
282.475628,363.709035,574.277424,-10260.423309
282.478175,440.279358,2373.680019,-9858.429112
282.480723,899.701298,4096.512291,-9552.147819
282.483270,287.138712,2909.672282,-9839.286531
282.485818,1378.265818,2124.826469,-9781.858789
282.488366,-1493.121302,3215.953574,-9245.866526
282.490913,2335.394858,-1722.832272,-10375.278794
282.493461,-478.564520,-880.558717,-10451.849117
282.496008,-210.568389,-382.851616,-10260.423309
282.498556,1665.404530,-3445.664544,-9839.286531
282.501103,325.423874,2316.252277,-9418.149754
282.503651,95.712904,-1856.830338,-10604.989763
282.506199,784.845813,1646.261949,-9858.429112
282.508746,708.275490,2392.822600,-9724.431046
282.511294,229.710970,-287.138712,-9762.716208
282.513841,57.427742,1033.699363,-9801.001370
282.516389,1282.552914,880.558717,-9954.142016
282.518936,1033.699363,-1493.121302,-10470.991698
282.521484,-306.281293,-76.570323,-9820.143950
282.524032,497.707101,1780.260014,-9667.003304
282.526579,823.130974,-1110.269686,-10413.563955
282.529127,382.851616,1359.123237,-9399.007173
282.531674,1435.693560,-1052.841944,-10030.712339
282.534222,-765.703232,-1091.127106,-10509.276859
282.536769,823.130974,1320.838075,-9475.577496
282.539317,995.414202,-3962.514226,-10432.706536
282.541865,95.712904,-803.988394,-10298.708470
282.544412,899.701298,57.427742,-9858.429112
282.546960,-229.710970,2316.252277,-10164.710405
282.549507,2431.107762,6680.760699,-9131.011042
282.552055,-38.285162,-555.134843,-9992.427178
282.554602,248.853550,2354.537438,-9743.573627
282.557150,516.849682,516.849682,-9762.716208
282.559703,1301.695494,38.285162,-10700.702667
282.562256,-19.142581,3828.516160,-9667.003304
282.564810,1531.406464,-38.285162,-9743.573627
282.567363,38.285162,-210.568389,-9934.999435
282.569916,19.142581,3905.086483,-9418.149754
282.572469,1531.406464,-1186.840010,-10758.130410
282.575022,19.142581,1665.404530,-9743.573627
282.577575,1244.267752,823.130974,-10107.282662
282.580129,899.701298,-401.994197,-9877.571693
282.582682,-1071.984525,612.562586,-9743.573627
282.585235,1091.127106,2163.111630,-9973.284597
282.587788,1033.699363,1033.699363,-9934.999435
282.590341,38.285162,4077.369710,-9705.288466
282.592895,650.847747,4249.652938,-9628.718142
282.595448,1627.119368,421.136778,-9781.858789
282.598001,-2086.541307,3617.947771,-9379.864592
282.600554,3062.812928,76.570323,-10126.425243
282.603107,-593.420005,-1531.406464,-10547.562021
282.605660,-459.421939,-210.568389,-10279.565890
282.608214,1837.687757,-3962.514226,-10183.852986
282.610767,555.134843,-899.701298,-9801.001370
282.613320,1646.261949,593.420005,-10202.995566
282.615873,555.134843,612.562586,-10145.567824
282.618426,784.845813,2105.683888,-9533.005238
282.620980,248.853550,-535.992262,-9992.427178
282.623533,401.994197,1875.972918,-9858.429112
282.626086,823.130974,-1320.838075,-10011.569758
282.628639,555.134843,-1607.976787,-10585.847182
282.631192,-306.281293,1971.685822,-9954.142016
282.633745,574.277424,267.996131,-10049.854920
282.636299,1435.693560,478.564520,-9762.716208
282.638852,516.849682,133.998066,-9877.571693
282.641405,306.281293,0.000000,-10356.136213
282.643958,-229.710970,-2488.535504,-10528.419440
282.646511,593.420005,2029.113565,-9322.436850
282.649064,650.847747,-3771.088418,-10222.138147
282.651618,478.564520,-1378.265818,-10317.851051
282.654171,689.132909,1837.687757,-9858.429112
282.656724,-2029.113565,248.853550,-10566.704602
282.659277,2507.678085,5570.491013,-9418.149754
282.661835,1052.841944,3943.371645,-8480.163294
282.664393,-478.564520,-133.998066,-10528.419440
282.666952,-287.138712,1110.269686,-9724.431046
282.669510,1550.549045,-842.273555,-10604.989763
282.672068,19.142581,2737.389054,-9896.714274
282.674626,1397.408398,344.566454,-9647.860723
282.677184,1014.556782,172.283227,-9934.999435
282.679742,-172.283227,2986.242605,-9513.862658
282.682300,1320.838075,784.845813,-10183.852986
282.684858,459.421939,842.273555,-9915.856854
282.687416,-38.285162,306.281293,-9801.001370
282.689975,727.418070,1301.695494,-9820.143950
282.692533,823.130974,114.855485,-10011.569758
282.695091,0.000000,1512.263883,-10030.712339
282.697649,746.560651,2871.387120,-9934.999435
282.700207,650.847747,3464.807125,-9494.720077
282.702765,765.703232,3426.521963,-9590.432981
282.705323,-957.129040,689.132909,-9781.858789
282.707881,2086.541307,-1933.400661,-10375.278794
282.710440,-1703.689691,2373.680019,-9590.432981
282.712998,3503.092286,-1225.125171,-10375.278794
282.715556,650.847747,-823.130974,-9839.286531
282.718114,-1416.550979,-1320.838075,-9781.858789
282.720672,-38.285162,-3694.518094,-10719.845248
282.723230,1780.260014,2679.961312,-9571.290400
282.725788,191.425808,1091.127106,-10164.710405
282.728346,-421.136778,1588.834206,-10011.569758
282.730904,918.843878,1761.117434,-9207.581365
282.733463,248.853550,-593.420005,-10049.854920
282.736021,1071.984525,957.129040,-9973.284597
282.738579,1225.125171,-899.701298,-9973.284597
282.741137,-344.566454,1550.549045,-9992.427178
282.743695,267.996131,344.566454,-10030.712339
282.746253,708.275490,-535.992262,-9437.292334
282.748811,1167.697429,593.420005,-9896.714274
282.751369,-133.998066,-2277.967115,-10911.271056
282.753928,344.566454,1052.841944,-9571.290400
282.756486,727.418070,-3713.660675,-10260.423309
282.759044,-95.712904,57.427742,-9992.427178
282.761602,1320.838075,-1033.699363,-9705.288466
282.764164,-344.566454,3541.377448,-9973.284597
282.766727,2584.248408,6470.192310,-9437.292334
282.769290,-19.142581,1014.556782,-9322.436850
282.771852,210.568389,1110.269686,-10279.565890
282.774415,-133.998066,612.562586,-9647.860723
282.776977,1684.547110,-229.710970,-10394.421374
282.779540,306.281293,3694.518094,-9705.288466
282.782102,1665.404530,-57.427742,-10126.425243
282.784665,-918.843878,1914.258080,-9456.434915
282.787227,574.277424,401.994197,-9705.288466
282.789790,746.560651,-382.851616,-10604.989763
282.792352,-248.853550,1339.980656,-9896.714274
282.794915,823.130974,1225.125171,-9934.999435
282.797478,248.853550,-1014.556782,-10126.425243
282.800040,746.560651,1837.687757,-9226.723946
282.802603,880.558717,1722.832272,-10279.565890
282.805165,516.849682,2775.674216,-10164.710405
282.807728,172.283227,3809.373579,-9475.577496
282.810290,957.129040,3062.812928,-9934.999435
282.812853,-880.558717,1052.841944,-9743.573627
282.815415,2124.826469,-1875.972918,-10413.563955
282.817978,-1205.982590,1378.265818,-9858.429112
282.820540,3005.385186,-133.998066,-10260.423309
282.823103,1282.552914,-1588.834206,-9954.142016
282.825665,-1454.836141,-650.847747,-9647.860723
282.828228,-229.710970,-3866.801322,-10758.130410
282.830791,2009.970984,2488.535504,-9915.856854
282.833353,-95.712904,382.851616,-10241.280728
282.835916,-708.275490,1473.978722,-10030.712339
282.838478,1052.841944,803.988394,-9360.722011
282.841041,382.851616,1225.125171,-9609.575562
282.843603,689.132909,-133.998066,-10490.134278
282.846166,497.707101,-535.992262,-9973.284597
282.848728,-210.568389,1780.260014,-9781.858789
282.851291,937.986459,1091.127106,-10011.569758
282.853853,842.273555,-880.558717,-10030.712339
282.856416,784.845813,957.129040,-9418.149754
282.858979,-937.986459,-2239.681954,-10681.560086
282.861541,1359.123237,765.703232,-9762.716208
282.864104,823.130974,-2526.820666,-9934.999435
282.866669,306.281293,-2871.387120,-10470.991698
282.869235,1244.267752,746.560651,-9628.718142
282.871801,-765.703232,1569.691626,-10356.136213
282.874367,2469.392923,7274.180704,-9418.149754
282.876933,19.142581,1339.980656,-9265.009107
282.879499,229.710970,803.988394,-10317.851051
282.882065,-612.562586,957.129040,-9590.432981
282.884630,957.129040,-842.273555,-10700.702667
282.887196,459.421939,2507.678085,-10222.138147
282.889762,746.560651,1588.834206,-9054.440718
282.892328,708.275490,1761.117434,-9743.573627
282.894894,191.425808,516.849682,-9954.142016
282.897460,669.990328,1186.840010,-10030.712339
282.900026,0.000000,1378.265818,-9992.427178
282.902591,861.416136,880.558717,-10068.997501
282.905157,555.134843,-421.136778,-9609.575562
282.907723,765.703232,2239.681954,-9820.143950
282.910289,765.703232,1703.689691,-10490.134278
282.912855,-191.425808,3120.240670,-9762.716208
282.915421,535.992262,4709.074877,-9456.434915
282.917987,1512.263883,1263.410333,-10011.569758
282.920552,-2316.252277,3081.955509,-8729.016845
282.923118,2105.683888,-1186.840010,-10394.421374
282.925684,-1320.838075,-325.423874,-10604.989763
282.928250,-1320.838075,-38.285162,-10030.712339
282.930816,1091.127106,-3866.801322,-10375.278794
282.933382,708.275490,440.279358,-9552.147819
282.935948,823.130974,-1014.556782,-9973.284597
282.938513,593.420005,1780.260014,-10202.995566
282.941079,1282.552914,1722.832272,-9896.714274
282.943645,669.990328,1703.689691,-9494.720077
282.946211,229.710970,-57.427742,-9954.142016
282.948777,229.710970,-555.134843,-10394.421374
282.951343,861.416136,-421.136778,-10413.563955
282.953909,689.132909,1091.127106,-9724.431046
282.956474,382.851616,803.988394,-9992.427178
282.959040,478.564520,172.283227,-9934.999435
282.961606,1186.840010,267.996131,-9533.005238
282.964172,-746.560651,-2163.111630,-10796.415571
282.966738,363.709035,1493.121302,-9896.714274
282.969307,1473.978722,-4441.078746,-10279.565890
282.971876,-306.281293,-842.273555,-10279.565890
282.974445,1148.554848,-1052.841944,-9781.858789
282.977014,0.000000,2833.101958,-9858.429112
282.979583,1378.265818,6278.766502,-9609.575562
282.982152,-784.845813,1818.545176,-9303.294269
282.984721,612.562586,918.843878,-10260.423309
282.987290,-746.560651,784.845813,-9686.145885
282.989859,1722.832272,-765.703232,-10547.562021
282.992428,459.421939,3426.521963,-9494.720077
282.994996,1110.269686,593.420005,-10298.708470
282.997565,-631.705166,803.988394,-9915.856854
283.000134,0.000000,1033.699363,-9628.718142
283.002703,1052.841944,650.847747,-10317.851051
283.005272,459.421939,1588.834206,-9992.427178
283.007841,306.281293,248.853550,-10317.851051
283.010410,-325.423874,976.271621,-9399.007173
283.012979,1225.125171,1780.260014,-9475.577496
283.015548,727.418070,1110.269686,-10566.704602
283.018117,-421.136778,4517.649069,-9647.860723
283.020686,842.273555,3522.234867,-9724.431046
283.023255,1531.406464,1799.402595,-10145.567824
283.025824,-2067.398726,3675.375514,-8805.587168
283.028393,1971.685822,1033.699363,-10107.282662
283.030962,1110.269686,-2411.965181,-10872.985894
283.033531,-1722.832272,153.140646,-10049.854920
283.036100,1301.695494,-4211.367776,-10470.991698
283.038669,957.129040,287.138712,-9724.431046
283.041238,114.855485,-957.129040,-9915.856854
283.043807,1091.127106,1722.832272,-10030.712339
283.046376,1339.980656,1167.697429,-10413.563955
283.048945,-708.275490,287.138712,-9667.003304
283.051514,-325.423874,-957.129040,-10260.423309
283.054083,248.853550,478.564520,-9973.284597
283.056652,1454.836141,267.996131,-9858.429112
283.059221,631.705166,1914.258080,-10049.854920
283.061790,-76.570323,-899.701298,-10509.276859
283.064359,689.132909,746.560651,-9054.440718
283.066928,1435.693560,287.138712,-9973.284597
283.069497,-995.414202,-1914.258080,-11064.411702
283.072068,401.994197,2431.107762,-9341.579430
283.074640,1799.402595,-3043.670347,-9915.856854
283.077212,76.570323,-3062.812928,-10566.704602
283.079783,555.134843,516.849682,-9686.145885
283.082355,-708.275490,1493.121302,-10394.421374
283.084927,2660.818731,7121.040058,-9399.007173
283.087498,325.423874,1933.400661,-9226.723946
283.090070,76.570323,1493.121302,-10088.140082
283.092641,-593.420005,574.277424,-9513.862658
283.095213,1148.554848,-1339.980656,-10528.419440
283.097785,382.851616,2565.105827,-9877.571693
283.100356,287.138712,2258.824534,-9322.436850
283.102928,1186.840010,593.420005,-9915.856854
283.105500,-727.418070,1761.117434,-9628.718142
283.108071,842.273555,153.140646,-10394.421374
283.110643,995.414202,1914.258080,-9437.292334
283.113215,-363.709035,593.420005,-10260.423309
283.115786,-306.281293,-133.998066,-10030.712339
283.118358,784.845813,2794.816797,-9379.864592
283.120930,1186.840010,1703.689691,-10164.710405
283.123501,-440.279358,3330.809059,-9992.427178
283.126073,440.279358,5072.783912,-9322.436850
283.128645,344.566454,-1703.689691,-10317.851051
283.131216,478.564520,497.707101,-9590.432981
283.133788,-229.710970,2928.814862,-9456.434915
283.136360,3943.371645,-2354.537438,-10719.845248
283.138931,-1493.121302,-172.283227,-10183.852986
283.141503,-1473.978722,-1263.410333,-10030.712339
283.144074,0.000000,-3847.658741,-10624.132344
283.146646,1722.832272,2450.250342,-9762.716208
283.149218,-306.281293,650.847747,-10394.421374
283.151789,803.988394,2813.959378,-9667.003304
283.154361,708.275490,2603.390989,-9245.866526
283.156933,153.140646,-2163.111630,-10375.278794
283.159504,459.421939,669.990328,-9896.714274
283.162076,1186.840010,19.142581,-10011.569758
283.164648,555.134843,1282.552914,-10336.993632
283.167219,823.130974,382.851616,-9820.143950
283.169791,1129.412267,-1244.267752,-9705.288466
283.172363,-478.564520,172.283227,-10107.282662
283.174936,1091.127106,-516.849682,-10202.995566
283.177510,612.562586,-4000.799387,-10681.560086
283.180083,76.570323,842.273555,-9571.290400
283.182657,1550.549045,-3771.088418,-10356.136213
283.185230,114.855485,2967.100024,-9628.718142
283.187803,803.988394,5800.201982,-9762.716208
283.190377,-1071.984525,57.427742,-10719.845248
283.192950,1397.408398,4785.645200,-9035.298138
283.195524,325.423874,38.285162,-9781.858789
283.198097,746.560651,1225.125171,-10202.995566
283.200671,306.281293,1263.410333,-9609.575562
283.203244,842.273555,-861.416136,-10777.272990
283.205818,-669.990328,2220.539373,-9743.573627
283.208391,1569.691626,2373.680019,-9322.436850
283.210965,1741.974853,-325.423874,-10432.706536
283.213538,-153.140646,708.275490,-10088.140082
283.216112,401.994197,1071.984525,-10145.567824
283.218685,689.132909,344.566454,-9915.856854
283.221259,287.138712,2009.970984,-9667.003304
283.223832,899.701298,1301.695494,-9724.431046
283.226406,153.140646,3292.523898,-9762.716208
283.228979,478.564520,4345.365842,-10164.710405
283.231552,1569.691626,363.709035,-10183.852986
283.234126,497.707101,1263.410333,-9226.723946
283.236699,401.994197,2718.246474,-9667.003304
283.239273,3081.955509,-2718.246474,-10432.706536
283.241846,-1875.972918,95.712904,-10336.993632
283.244420,-114.855485,-4345.365842,-10758.130410
283.246993,937.986459,-1339.980656,-9743.573627
283.249567,1110.269686,229.710970,-9724.431046
283.252140,-19.142581,957.129040,-10509.276859
283.254714,1818.545176,1607.976787,-9954.142016
283.257289,765.703232,2029.113565,-9437.292334
283.259864,-229.710970,-1339.980656,-10509.276859
283.262440,823.130974,1244.267752,-9418.149754
283.265015,1761.117434,-746.560651,-10183.852986
283.267591,-823.130974,1416.550979,-10298.708470
283.270166,593.420005,1722.832272,-9705.288466
283.272741,1837.687757,-1550.549045,-10202.995566
283.275317,-1244.267752,1378.265818,-9552.147819
283.277892,19.142581,1033.699363,-10049.854920
283.280467,1320.838075,-5398.207786,-11255.837510
283.283043,287.138712,267.996131,-9609.575562
283.285618,1186.840010,-2431.107762,-10011.569758
283.288193,229.710970,3541.377448,-9628.718142
283.290769,-516.849682,3981.656806,-9820.143950
283.293344,-1148.554848,478.564520,-10815.558152
283.295920,2488.535504,6049.055533,-8901.300072
283.298495,478.564520,-114.855485,-9801.001370
283.301070,823.130974,267.996131,-10470.991698
283.303646,612.562586,2565.105827,-9131.011042
283.306221,1627.119368,-1282.552914,-10585.847182
283.308796,-1263.410333,1990.828403,-10183.852986
283.311372,1148.554848,2431.107762,-9150.153622
283.313947,1033.699363,-1052.841944,-10375.278794
283.316523,-440.279358,1646.261949,-9896.714274
283.319098,1110.269686,1435.693560,-10011.569758
283.321673,1014.556782,-957.129040,-10011.569758
283.324249,-497.707101,2660.818731,-9437.292334
283.326824,1033.699363,2201.396792,-9954.142016
283.329399,823.130974,2469.392923,-10068.997501
283.331975,-38.285162,5206.781978,-9743.573627
283.334550,-95.712904,-1205.982590,-10164.710405
283.337125,1129.412267,19.142581,-9743.573627
283.339701,-421.136778,2890.529701,-9590.432981
283.342276,3579.662610,-1856.830338,-10145.567824
283.344852,-803.988394,-612.562586,-10260.423309
283.347427,-1110.269686,-1110.269686,-9647.860723
283.350002,-612.562586,-3828.516160,-10777.272990
283.352578,2124.826469,2297.109696,-9954.142016
283.355153,-708.275490,1014.556782,-10088.140082
283.357728,325.423874,2718.246474,-9533.005238
283.360309,1091.127106,1110.269686,-9743.573627
283.362885,267.996131,-2354.537438,-10394.421374
283.365462,-937.986459,1550.549045,-10126.425243
283.368039,2258.824534,-689.132909,-9743.573627
283.370615,516.849682,1052.841944,-9743.573627
283.373192,-1014.556782,861.416136,-10470.991698
283.375768,1990.828403,363.709035,-9647.860723
283.378345,-19.142581,-2124.826469,-9513.862658
283.380922,-95.712904,-574.277424,-10604.989763
283.383498,669.990328,-689.132909,-9475.577496
283.386075,1588.834206,-3503.092286,-10413.563955
283.388652,76.570323,957.129040,-9877.571693
283.391228,-1933.400661,669.990328,-10068.997501
283.393805,2775.674216,6604.190376,-9360.722011
283.396381,631.705166,4307.080680,-9207.581365
283.398958,-19.142581,0.000000,-10317.851051
283.401535,-535.992262,1033.699363,-9207.581365
283.404111,325.423874,-1378.265818,-10260.423309
283.406688,727.418070,1148.554848,-10222.138147
283.409265,497.707101,3273.381317,-9456.434915
283.411841,421.136778,-401.994197,-10394.421374
283.414418,-248.853550,2909.672282,-9111.868461
283.416995,1454.836141,555.134843,-10145.567824
283.419571,-133.998066,325.423874,-10222.138147
283.422148,95.712904,1837.687757,-9513.862658
283.424724,899.701298,1014.556782,-10222.138147
283.427301,899.701298,1531.406464,-9303.294269
283.429878,-172.283227,3426.521963,-9858.429112
283.432454,880.558717,4134.797453,-10375.278794
283.435031,1129.412267,95.712904,-9877.571693
283.437608,-1033.699363,3120.240670,-9303.294269
283.440184,2641.676150,1110.269686,-9801.001370
283.442761,976.271621,-2258.824534,-10317.851051
283.445338,-1990.828403,-76.570323,-10509.276859
283.447914,1761.117434,-3828.516160,-10356.136213
283.450491,689.132909,-2526.820666,-9973.284597
283.453067,1339.980656,842.273555,-10049.854920
283.455644,-401.994197,727.418070,-10375.278794
283.458221,1722.832272,1320.838075,-9762.716208
283.460797,-172.283227,-57.427742,-9954.142016
283.463375,133.998066,2277.967115,-9762.716208
283.465952,1435.693560,-1320.838075,-10298.708470
283.468530,669.990328,-478.564520,-10068.997501
283.471107,172.283227,727.418070,-9781.858789
283.473685,516.849682,363.709035,-10375.278794
283.476262,1148.554848,1416.550979,-9743.573627
283.478840,-535.992262,-1569.691626,-9839.286531
283.481417,842.273555,555.134843,-9839.286531
283.483995,516.849682,-3254.238736,-10528.419440
283.486572,555.134843,-2143.969050,-10432.706536
283.489150,803.988394,-861.416136,-9934.999435
283.491727,-210.568389,2507.678085,-9877.571693
283.494305,2660.818731,6661.618118,-9379.864592
283.496882,555.134843,3943.371645,-9054.440718
283.499460,478.564520,727.418070,-10356.136213
283.502037,-803.988394,976.271621,-9475.577496
283.504615,1473.978722,-1665.404530,-10566.704602
283.507192,-401.994197,2431.107762,-9647.860723
283.509769,1435.693560,421.136778,-10049.854920
283.512347,267.996131,1703.689691,-9934.999435
283.514924,-382.851616,1627.119368,-9456.434915
283.517502,995.414202,746.560651,-10088.140082
283.520079,880.558717,631.705166,-9915.856854
283.522657,669.990328,1550.549045,-9954.142016
283.525234,-229.710970,153.140646,-10356.136213
283.527812,1282.552914,1990.828403,-9092.725880
283.530389,363.709035,3522.234867,-9705.288466
283.532967,-38.285162,3215.953574,-10432.706536
283.535544,1359.123237,1875.972918,-9705.288466
283.538122,-1071.984525,3235.096155,-9150.153622
283.540699,2297.109696,497.707101,-9877.571693
283.543277,2852.244539,-2335.394858,-10394.421374
283.545854,-1722.832272,-459.421939,-10413.563955
283.548432,-229.710970,-3790.230998,-10394.421374
283.551009,976.271621,-1339.980656,-9628.718142
283.553587,1301.695494,133.998066,-10011.569758
283.556164,-497.707101,1129.412267,-10336.993632
283.558742,1952.543242,306.281293,-9954.142016
283.561319,-344.566454,1148.554848,-9571.290400
283.563897,114.855485,1282.552914,-9896.714274
283.566454,1435.693560,-1741.974853,-10298.708470
283.569012,363.709035,1914.258080,-9801.001370
283.571570,-1033.699363,248.853550,-10260.423309
283.574128,1722.832272,957.129040,-9686.145885
283.576686,842.273555,1493.121302,-9801.001370
283.579244,-880.558717,-2009.970984,-10451.849117
283.581801,1741.974853,555.134843,-9533.005238
283.584359,861.416136,-2813.959378,-10413.563955
283.586917,306.281293,-3713.660675,-10490.134278
283.589475,957.129040,937.986459,-9839.286531
283.592033,-1856.830338,803.988394,-10260.423309
283.594590,2009.970984,5225.924558,-9552.147819
283.597148,1473.978722,5627.918755,-8556.733618
283.599706,-57.427742,440.279358,-10470.991698
283.602264,-669.990328,937.986459,-9513.862658
283.604822,937.986459,-1167.697429,-10509.276859
283.607380,287.138712,1665.404530,-9915.856854
283.609937,-287.138712,2048.256146,-9724.431046
283.612495,1110.269686,1990.828403,-10011.569758
283.615053,-344.566454,535.992262,-9839.286531
283.617611,803.988394,287.138712,-9762.716208
283.620169,669.990328,1607.976787,-10183.852986
283.622727,976.271621,-76.570323,-10356.136213
283.625284,-440.279358,1263.410333,-9513.862658
283.627842,1110.269686,2354.537438,-9590.432981
283.630400,421.136778,3101.098090,-10049.854920
283.632958,880.558717,4479.363907,-9973.284597
283.635516,-1014.556782,1186.840010,-9724.431046
283.638074,1914.258080,-1703.689691,-10183.852986
283.640631,-1167.697429,1799.402595,-9571.290400
283.643189,2947.957443,-325.423874,-10202.995566
283.645747,1110.269686,-1339.980656,-9992.427178
283.648305,-1378.265818,-1761.117434,-10183.852986
283.650863,-172.283227,-3158.525832,-10490.134278
283.653420,2105.683888,2009.970984,-9667.003304
283.655978,-38.285162,708.275490,-10375.278794
283.658536,-38.285162,1761.117434,-9705.288466
283.661094,1301.695494,-38.285162,-9801.001370
283.663652,-153.140646,133.998066,-10068.997501
283.666210,593.420005,708.275490,-9858.429112
283.668751,1263.410333,976.271621,-9858.429112
283.671292,-363.709035,-325.423874,-10145.567824
283.673833,344.566454,1607.976787,-9590.432981
283.676374,440.279358,-76.570323,-10049.854920
283.678916,689.132909,555.134843,-9571.290400
283.681457,516.849682,-4689.932296,-10719.845248
283.683998,153.140646,-689.132909,-9896.714274
283.686539,1588.834206,-1627.119368,-9877.571693
283.689081,-229.710970,2833.101958,-9820.143950
283.691622,1014.556782,5417.350366,-9781.858789
283.694163,-1167.697429,325.423874,-10528.419440
283.696704,937.986459,5283.352301,-9131.011042
283.699245,746.560651,803.988394,-9399.007173
283.701787,1703.689691,-497.707101,-10394.421374
283.704328,191.425808,2411.965181,-9628.718142
283.706869,1435.693560,172.283227,-10107.282662
283.709410,-976.271621,1473.978722,-9915.856854
283.711951,76.570323,1895.115499,-9839.286531
283.714493,1225.125171,-95.712904,-10202.995566
283.717034,344.566454,1780.260014,-9456.434915
283.719575,689.132909,823.130974,-10470.991698
283.722116,38.285162,803.988394,-9724.431046
283.724658,784.845813,2718.246474,-9341.579430
283.727199,574.277424,3503.092286,-9877.571693
283.729740,459.421939,3503.092286,-9992.427178
283.732281,-210.568389,784.845813,-10088.140082
283.734822,957.129040,1244.267752,-9667.003304
283.737364,478.564520,2775.674216,-9188.438784
283.739905,2584.248408,-1990.828403,-10317.851051
283.742446,-1339.980656,-650.847747,-10202.995566
283.744987,-325.423874,-2526.820666,-10298.708470
283.747528,-172.283227,-2756.531635,-10356.136213
283.750070,1875.972918,1473.978722,-9781.858789
283.752611,-899.701298,1244.267752,-10336.993632
283.755152,823.130974,861.416136,-9801.001370
283.757693,593.420005,2622.533570,-9284.151688
283.760234,191.425808,95.712904,-10164.710405
283.762776,880.558717,-401.994197,-10260.423309
283.765317,248.853550,1339.980656,-9743.573627
283.767858,-133.998066,803.988394,-9877.571693
283.770405,918.843878,803.988394,-9877.571693
283.772952,-555.134843,38.285162,-9954.142016
283.775499,267.996131,76.570323,-9724.431046
283.778046,1263.410333,-4766.502619,-10624.132344
283.780593,76.570323,-1875.972918,-10241.280728
283.783139,995.414202,-1416.550979,-9839.286531
283.785686,-76.570323,2411.965181,-9954.142016
283.788233,2239.681954,6929.614250,-9437.292334
283.790780,-555.134843,937.986459,-10030.712339
283.793327,-19.142581,3464.807125,-9724.431046
283.795874,593.420005,1014.556782,-9801.001370
283.798421,995.414202,382.851616,-10088.140082
283.800968,401.994197,2373.680019,-9820.143950
283.803515,1129.412267,1320.838075,-9686.145885
283.806061,-38.285162,708.275490,-9973.284597
283.808608,-325.423874,2124.826469,-9839.286531
283.811155,976.271621,-38.285162,-10164.710405
283.813702,229.710970,1493.121302,-9399.007173
283.816249,784.845813,1129.412267,-10413.563955
283.818796,-133.998066,823.130974,-10164.710405
283.821343,363.709035,2488.535504,-9073.583299
283.823890,727.418070,3560.520029,-10011.569758
283.826437,957.129040,3713.660675,-9781.858789
283.828984,-1071.984525,1397.408398,-9934.999435
283.831530,1914.258080,-1320.838075,-10375.278794
283.834077,-1225.125171,1225.125171,-9245.866526
283.836624,2947.957443,-440.279358,-10241.280728
283.839171,1320.838075,-995.414202,-9992.427178
283.841718,-1588.834206,-2067.398726,-10049.854920
283.844265,-210.568389,-2986.242605,-10451.849117
283.846812,1875.972918,3292.523898,-9188.438784
283.849359,306.281293,191.425808,-10183.852986
283.851906,-574.277424,1129.412267,-9954.142016
283.854452,1205.982590,1971.685822,-9475.577496
283.856999,421.136778,-191.425808,-10030.712339
283.859546,478.564520,-38.285162,-10298.708470
283.862093,210.568389,1167.697429,-9686.145885
283.864640,593.420005,535.992262,-9647.860723
283.867187,1588.834206,363.709035,-10260.423309
283.869734,478.564520,-1761.117434,-9820.143950
283.872286,325.423874,210.568389,-9801.001370
283.874838,803.988394,-2718.246474,-10413.563955
283.877390,957.129040,-3541.377448,-10279.565890
283.879941,593.420005,0.000000,-9801.001370
283.882493,-1531.406464,1052.841944,-10547.562021
283.885045,2545.963246,7121.040058,-9073.583299
283.887597,191.425808,3809.373579,-8958.727814
283.890149,-19.142581,1512.263883,-10796.415571
283.892701,-612.562586,1607.976787,-9533.005238
283.895253,899.701298,-1741.974853,-10604.989763
283.897805,880.558717,669.990328,-10011.569758
283.900357,765.703232,2469.392923,-9188.438784
283.902909,899.701298,784.845813,-10375.278794
283.905461,-363.709035,1646.261949,-9781.858789
283.908013,669.990328,306.281293,-9839.286531
283.910565,708.275490,1033.699363,-9858.429112
283.913116,191.425808,669.990328,-9839.286531
283.915668,210.568389,1780.260014,-10164.710405
283.918220,497.707101,3196.810994,-9494.720077
283.920772,784.845813,3483.949706,-9475.577496
283.923324,803.988394,1244.267752,-10509.276859
283.925876,-918.843878,4115.654872,-9207.581365
283.928428,2622.533570,937.986459,-9609.575562
283.930980,-344.566454,-2143.969050,-10528.419440
283.933532,-516.849682,153.140646,-10432.706536
283.936084,459.421939,-4307.080680,-10394.421374
283.938636,593.420005,-1071.984525,-10241.280728
283.941188,708.275490,-382.851616,-10011.569758
283.943740,689.132909,1856.830338,-9820.143950
283.946291,1014.556782,-344.566454,-10509.276859
283.948843,-210.568389,1282.552914,-9188.438784
283.951395,478.564520,-363.709035,-10222.138147
283.953947,440.279358,650.847747,-10662.417506
283.956499,880.558717,-248.853550,-9858.429112
283.959051,861.416136,746.560651,-10145.567824
283.961603,555.134843,229.710970,-10336.993632
283.964155,-191.425808,-1129.412267,-9954.142016
283.966707,382.851616,1052.841944,-9820.143950
283.969259,631.705166,-5168.496816,-11026.126541
283.971811,325.423874,-1531.406464,-9954.142016
283.974367,1435.693560,-1684.547110,-9781.858789
283.976924,-382.851616,1990.828403,-10068.997501
283.979480,976.271621,4957.928427,-9628.718142
283.982037,-172.283227,2297.109696,-9762.716208
283.984593,-287.138712,2067.398726,-10164.710405
283.987149,363.709035,1320.838075,-9552.147819
283.989706,1512.263883,-153.140646,-10202.995566
283.992262,-765.703232,1990.828403,-9552.147819
283.994819,1741.974853,-593.420005,-10317.851051
283.997375,-382.851616,459.421939,-10317.851051
283.999932,-440.279358,3292.523898,-9169.296203
284.002488,1339.980656,229.710970,-10298.708470
284.005045,1110.269686,631.705166,-9724.431046
284.007601,172.283227,1148.554848,-9858.429112
284.010158,976.271621,1167.697429,-10183.852986
284.012714,918.843878,2469.392923,-9571.290400
284.015271,172.283227,4019.941968,-9724.431046
284.017827,1531.406464,2373.680019,-10068.997501
284.020383,-1875.972918,3349.951640,-9475.577496
284.022940,1971.685822,-1339.980656,-10241.280728
284.025496,-1799.402595,-363.709035,-10241.280728
284.028053,-1148.554848,57.427742,-10279.565890
284.030609,1914.258080,-3694.518094,-10164.710405
284.033166,421.136778,650.847747,-9724.431046
284.035722,-440.279358,-1569.691626,-10490.134278
284.038279,2124.826469,2488.535504,-9360.722011
284.040835,574.277424,287.138712,-10413.563955
284.043392,-976.271621,-401.994197,-9628.718142
284.045948,1071.984525,2297.109696,-9437.292334
284.048505,1263.410333,-1129.412267,-10834.700733
284.051061,765.703232,344.566454,-9743.573627
284.053617,210.568389,765.703232,-9858.429112
284.056174,1263.410333,976.271621,-10011.569758
284.058730,-172.283227,-1110.269686,-10145.567824
284.061287,-229.710970,1071.984525,-9628.718142
284.063843,1033.699363,-4555.934230,-10585.847182
284.066400,363.709035,-2220.539373,-10356.136213
284.068956,995.414202,-1320.838075,-9839.286531
284.071513,287.138712,2067.398726,-9781.858789
284.074069,2545.963246,6814.758765,-9571.290400
284.076630,-267.996131,1875.972918,-9954.142016
284.079190,-153.140646,3732.803256,-9667.003304
284.081750,325.423874,669.990328,-9858.429112
284.084311,1167.697429,172.283227,-10202.995566
284.086871,-248.853550,1952.543242,-9360.722011
284.089432,1320.838075,-1933.400661,-10872.985894
284.091992,-210.568389,1933.400661,-9934.999435
284.094553,210.568389,3503.092286,-9188.438784
284.097113,1339.980656,-421.136778,-10643.274925
284.099673,382.851616,937.986459,-9456.434915
284.102234,363.709035,1473.978722,-9915.856854
284.104794,133.998066,842.273555,-10451.849117
284.107355,995.414202,3081.955509,-9207.581365
284.109915,172.283227,3675.375514,-9820.143950
284.112476,1473.978722,2067.398726,-10126.425243
284.115036,-2067.398726,4039.084549,-9016.155557
284.117596,2009.970984,2086.541307,-9954.142016
284.120157,1378.265818,-2411.965181,-10279.565890
284.122717,-1531.406464,-459.421939,-10222.138147
284.125278,1301.695494,-3981.656806,-10317.851051
284.127838,631.705166,-172.283227,-9820.143950
284.130398,287.138712,-1052.841944,-10336.993632
284.132959,1818.545176,2565.105827,-9437.292334
284.135519,440.279358,-784.845813,-10604.989763
284.138080,-669.990328,-382.851616,-9533.005238
284.140640,-38.285162,708.275490,-10241.280728
284.143201,861.416136,689.132909,-10222.138147
284.145761,1416.550979,1033.699363,-9839.286531
284.148321,19.142581,-574.277424,-10068.997501
284.150882,76.570323,1205.982590,-9743.573627
284.153442,1129.412267,-861.416136,-10011.569758
284.156003,535.992262,976.271621,-10145.567824
284.158563,363.709035,-2603.390989,-10279.565890
284.161124,976.271621,-3905.086483,-10356.136213
284.163684,1129.412267,-440.279358,-10049.854920
284.166244,-2565.105827,440.279358,-10375.278794
284.168805,2737.389054,5953.342629,-9647.860723
284.171365,1052.841944,4938.785846,-8824.729749
284.173926,57.427742,1186.840010,-10356.136213
284.176486,-708.275490,1971.685822,-9360.722011
284.179050,1416.550979,-957.129040,-10241.280728
284.181613,-229.710970,1971.685822,-9992.427178
284.184176,1071.984525,2967.100024,-9322.436850
284.186740,689.132909,-535.992262,-10432.706536
284.189303,-784.845813,1971.685822,-9590.432981
284.191867,631.705166,861.416136,-9954.142016
284.194430,708.275490,1627.119368,-9839.286531
284.196994,1014.556782,267.996131,-10145.567824
284.199557,-382.851616,2718.246474,-9628.718142
284.202120,689.132909,3062.812928,-9667.003304
284.204684,1263.410333,2794.816797,-9973.284597
284.207247,-1320.838075,2220.539373,-10049.854920
284.209811,1799.402595,-1014.556782,-10145.567824
284.212374,-708.275490,1454.836141,-9743.573627
284.214938,2871.387120,-95.712904,-9934.999435
284.217501,861.416136,-2124.826469,-9915.856854
284.220064,-229.710970,-133.998066,-9896.714274
284.222628,-344.566454,-1512.263883,-10356.136213
284.225191,1780.260014,2852.244539,-9724.431046
284.227755,382.851616,-153.140646,-10432.706536
284.230318,-306.281293,1837.687757,-9111.868461
284.232882,1320.838075,918.843878,-9609.575562
284.235445,267.996131,-363.709035,-10547.562021
284.238008,76.570323,2201.396792,-10030.712339
284.240572,459.421939,-1129.412267,-9781.858789
284.243135,1052.841944,1569.691626,-9571.290400
284.245699,95.712904,-153.140646,-9973.284597
284.248262,-153.140646,76.570323,-10222.138147
284.250826,899.701298,-3139.383251,-10432.706536
284.253389,899.701298,-2660.818731,-9820.143950
284.255952,267.996131,-1607.976787,-9762.716208
284.258516,57.427742,1971.685822,-10068.997501
284.261079,2124.826469,5493.920690,-9705.288466
284.263643,-478.564520,2947.957443,-9494.720077
284.266206,210.568389,2258.824534,-10298.708470
284.268770,-19.142581,1741.974853,-9131.011042
284.271333,1454.836141,-880.558717,-10279.565890
284.273896,-803.988394,2182.254211,-9839.286531
284.276460,1665.404530,-1435.693560,-10164.710405
284.279023,-803.988394,2048.256146,-9686.145885
284.281589,306.281293,2679.961312,-9552.147819
284.284156,1263.410333,133.998066,-9973.284597
284.286722,497.707101,1837.687757,-9839.286531
284.289288,708.275490,746.560651,-10222.138147
284.291854,-153.140646,1550.549045,-9992.427178
284.294421,995.414202,3962.514226,-9303.294269
284.296987,574.277424,2679.961312,-10088.140082
284.299553,-708.275490,1339.980656,-9839.286531
284.302119,1416.550979,1014.556782,-9858.429112
284.304686,-210.568389,3388.236802,-9801.001370
284.307252,3215.953574,-1875.972918,-9877.571693
284.309818,957.129040,-2488.535504,-10011.569758
284.312384,-1339.980656,-1952.543242,-10049.854920
284.314951,-229.710970,-2450.250342,-10375.278794
284.317517,1818.545176,2201.396792,-10241.280728
284.320083,-631.705166,1607.976787,-10030.712339
284.322649,612.562586,976.271621,-9265.009107
284.325216,593.420005,-38.285162,-9743.573627
284.327782,-459.421939,918.843878,-10279.565890
284.330348,937.986459,861.416136,-10241.280728
284.332914,1741.974853,-401.994197,-9724.431046
284.335480,287.138712,1741.974853,-9226.723946
284.338047,-191.425808,-248.853550,-10260.423309
284.340613,631.705166,153.140646,-10088.140082
284.343179,459.421939,-2947.957443,-10336.993632
284.345745,401.994197,-2565.105827,-10241.280728
284.348312,1301.695494,-1933.400661,-9992.427178
284.350878,-267.996131,2545.963246,-9609.575562
284.353444,842.273555,4230.510357,-10107.282662
284.356010,-267.996131,1627.119368,-9839.286531
284.358577,153.140646,2813.959378,-9992.427178
284.361143,210.568389,1378.265818,-9571.290400
284.363709,1741.974853,-363.709035,-10183.852986
284.366275,-421.136778,1531.406464,-9552.147819
284.368842,1627.119368,-1856.830338,-10815.558152
284.371408,-114.855485,2565.105827,-9571.290400
284.373974,669.990328,1741.974853,-9494.720077
284.376540,746.560651,133.998066,-10451.849117
284.379106,535.992262,1703.689691,-9628.718142
284.381673,995.414202,899.701298,-10088.140082
284.384240,-57.427742,1033.699363,-10298.708470
284.386809,842.273555,4364.508422,-9418.149754
284.389377,1129.412267,2679.961312,-10145.567824
284.391945,-1225.125171,937.986459,-10107.282662
284.394513,1761.117434,153.140646,-9877.571693
284.397081,-574.277424,3177.668413,-9571.290400
284.399649,2565.105827,-1225.125171,-10088.140082
284.402218,1359.123237,-2450.250342,-9896.714274
284.404786,-918.843878,-1282.552914,-9820.143950
284.407354,-650.847747,-2469.392923,-10585.847182
284.409922,2316.252277,3081.955509,-10107.282662
284.412490,-287.138712,1167.697429,-10202.995566
284.415058,133.998066,803.988394,-9245.866526
284.417626,957.129040,-76.570323,-9858.429112
284.420195,-191.425808,1186.840010,-10317.851051
284.422763,459.421939,823.130974,-10260.423309
284.425331,1990.828403,899.701298,-9628.718142
284.427899,-574.277424,823.130974,-9341.579430
284.430467,-401.994197,-153.140646,-9858.429112
284.433035,1837.687757,19.142581,-10241.280728
284.435603,325.423874,-2143.969050,-10088.140082
284.438172,76.570323,-3847.658741,-10298.708470
284.440740,1339.980656,-861.416136,-9954.142016
284.443308,-765.703232,2469.392923,-9801.001370
284.445876,2584.248408,5647.061336,-9743.573627
284.448444,765.703232,5264.209720,-8805.587168
284.451012,-267.996131,1071.984525,-10049.854920
284.453581,-38.285162,1129.412267,-9552.147819
284.456149,899.701298,-267.996131,-10260.423309
284.458717,267.996131,1397.408398,-9686.145885
284.461285,1091.127106,-784.845813,-10183.852986
284.463853,191.425808,2507.678085,-9915.856854
284.466421,95.712904,2067.398726,-9322.436850
284.468989,1799.402595,191.425808,-10030.712339
284.471558,172.283227,746.560651,-9781.858789
284.474126,-574.277424,2603.390989,-9647.860723
284.476694,995.414202,1703.689691,-10336.993632
284.479262,210.568389,4670.789715,-9399.007173
284.481830,1531.406464,3043.670347,-9552.147819
284.484398,-1914.258080,2641.676150,-9609.575562
284.486968,1703.689691,650.847747,-9992.427178
284.489538,-1550.549045,-172.283227,-10183.852986
284.492109,-765.703232,-861.416136,-10356.136213
284.494679,1531.406464,-3847.658741,-9954.142016
284.497249,38.285162,-459.421939,-9820.143950
284.499819,210.568389,-1091.127106,-10681.560086
284.502389,1493.121302,2967.100024,-9552.147819
284.504959,823.130974,-1339.980656,-10681.560086
284.507529,-631.705166,2182.254211,-8939.585234
284.510099,1607.976787,-650.847747,-9705.288466
284.512669,-95.712904,0.000000,-10796.415571
284.515239,-19.142581,555.134843,-9954.142016
284.517809,746.560651,1301.695494,-9456.434915
284.520380,172.283227,-918.843878,-10164.710405
284.522950,-784.845813,842.273555,-9896.714274
284.525520,2220.539373,-3043.670347,-10566.704602
284.528090,478.564520,-1990.828403,-10241.280728
284.530660,650.847747,-2699.103893,-10183.852986
284.533230,669.990328,1301.695494,-9475.577496
284.535800,-1167.697429,1914.258080,-9781.858789
284.538370,-1301.695494,1607.976787,-10528.419440
284.540940,937.986459,5474.778109,-9322.436850
284.543510,1052.841944,784.845813,-9724.431046
284.546080,344.566454,401.994197,-10241.280728
284.548650,401.994197,1205.982590,-9552.147819
284.551221,976.271621,-191.425808,-10547.562021
284.553791,267.996131,1110.269686,-9915.856854
284.556361,631.705166,1646.261949,-9801.001370
284.558931,-401.994197,497.707101,-10126.425243
284.561501,287.138712,708.275490,-9954.142016
284.564071,1512.263883,937.986459,-9934.999435
284.566641,-57.427742,1703.689691,-9915.856854
284.569211,191.425808,3790.230998,-9858.429112
284.571781,1473.978722,3943.371645,-9667.003304
284.574351,-1014.556782,593.420005,-9896.714274
284.576921,1741.974853,-842.273555,-10375.278794
284.579492,-784.845813,2909.672282,-9379.864592
284.582062,3158.525832,38.285162,-10202.995566
284.584632,1531.406464,-2603.390989,-9781.858789
284.587202,-612.562586,-440.279358,-9533.005238
284.589773,-210.568389,-2450.250342,-10719.845248
284.592345,2009.970984,3598.805190,-9934.999435
284.594916,-153.140646,708.275490,-10222.138147
284.597487,478.564520,287.138712,-9303.294269
284.600059,497.707101,1071.984525,-9762.716208
284.602630,-38.285162,842.273555,-10279.565890
284.605202,669.990328,689.132909,-10298.708470
284.607773,1531.406464,210.568389,-9686.145885
284.610345,-593.420005,-401.994197,-9743.573627
284.612916,95.712904,-267.996131,-10107.282662
284.615487,1722.832272,-2526.820666,-10585.847182
284.618059,612.562586,-1110.269686,-10030.712339
284.620630,746.560651,-3005.385186,-10241.280728
284.623202,287.138712,1646.261949,-9513.862658
284.625773,-325.423874,3407.379382,-9992.427178
284.628345,-248.853550,1895.115499,-10872.985894
284.630916,1780.260014,7063.612315,-8652.446522
284.633487,440.279358,995.414202,-9839.286531
284.636059,114.855485,842.273555,-10049.854920
284.638630,229.710970,325.423874,-9571.290400
284.641202,1282.552914,-19.142581,-10451.849117
284.643773,344.566454,535.992262,-9992.427178
284.646344,229.710970,2182.254211,-9571.290400
284.648916,114.855485,574.277424,-10375.278794
284.651487,1282.552914,76.570323,-9915.856854
284.654059,421.136778,1091.127106,-9820.143950
284.656630,401.994197,2182.254211,-9820.143950
284.659202,708.275490,3254.238736,-10030.712339
284.661773,708.275490,3981.656806,-9667.003304
284.664344,-2450.250342,3349.951640,-9360.722011
284.666916,2411.965181,-1225.125171,-10356.136213
284.669487,-1588.834206,823.130974,-10088.140082
284.672060,1761.117434,191.425808,-10336.993632
284.674633,2067.398726,-3101.098090,-9781.858789
284.677206,-669.990328,-727.418070,-9533.005238
284.679779,-650.847747,-2067.398726,-10624.132344
284.682352,2392.822600,3196.810994,-9896.714274
284.684925,0.000000,746.560651,-10490.134278
284.687497,-669.990328,1052.841944,-9169.296203
284.690070,1110.269686,-19.142581,-10030.712339
284.692643,248.853550,-229.710970,-10796.415571
284.695216,382.851616,1493.121302,-9915.856854
284.697789,1091.127106,95.712904,-9954.142016
284.700362,-1014.556782,-287.138712,-9839.286531
284.702935,-57.427742,1282.552914,-9609.575562
284.705508,1837.687757,-3943.371645,-10872.985894
284.708080,38.285162,-1856.830338,-10164.710405
284.710653,631.705166,-1665.404530,-9781.858789
284.713226,401.994197,1033.699363,-9877.571693
284.715799,574.277424,4651.647134,-9858.429112
284.718372,-1435.693560,1588.834206,-10451.849117
284.720945,1397.408398,5647.061336,-9188.438784
284.723518,650.847747,1550.549045,-9743.573627
284.726091,19.142581,267.996131,-10126.425243
284.728663,229.710970,880.558717,-9475.577496
284.731236,1435.693560,497.707101,-10317.851051
284.733809,191.425808,-516.849682,-10030.712339
284.736382,-287.138712,3866.801322,-9303.294269
284.738955,823.130974,-114.855485,-10681.560086
284.741528,631.705166,1052.841944,-9418.149754
284.744101,535.992262,1263.410333,-9820.143950
284.746674,-38.285162,2622.533570,-10126.425243
284.749246,861.416136,3828.516160,-9724.431046
284.751819,1607.976787,2986.242605,-9858.429112
284.754392,-1971.685822,4230.510357,-9150.153622
284.756965,2545.963246,1339.980656,-9801.001370
284.759538,363.709035,-1895.115499,-10585.847182
284.762111,-1167.697429,153.140646,-10030.712339
284.764684,1875.972918,-5072.783912,-10183.852986
284.767257,114.855485,-210.568389,-9552.147819
284.769829,-555.134843,-612.562586,-10566.704602
284.772402,1684.547110,2124.826469,-9915.856854
284.774976,957.129040,-172.283227,-9934.999435
284.777550,-612.562586,2029.113565,-8518.448456
284.780123,957.129040,-1205.982590,-10662.417506
284.782697,229.710970,1684.547110,-10643.274925
284.785271,746.560651,1607.976787,-9399.007173
284.787844,784.845813,-631.705166,-9762.716208
284.790418,-57.427742,57.427742,-9954.142016
284.792992,248.853550,823.130974,-9973.284597
284.795565,1301.695494,-2775.674216,-10413.563955
284.798139,689.132909,-3694.518094,-10183.852986
284.800712,497.707101,-1473.978722,-9781.858789
284.803286,-1531.406464,612.562586,-10470.991698
284.805860,2986.242605,6202.196179,-9379.864592
284.808433,-114.855485,3905.086483,-9035.298138
284.811007,248.853550,1895.115499,-10413.563955
284.813581,-248.853550,2029.113565,-9418.149754
284.816154,1550.549045,-325.423874,-9954.142016
284.818728,-382.851616,1378.265818,-9877.571693
284.821302,210.568389,2297.109696,-9494.720077
284.823875,823.130974,535.992262,-9973.284597
284.826449,-38.285162,1359.123237,-9820.143950
284.829023,669.990328,421.136778,-9858.429112
284.831596,421.136778,535.992262,-9858.429112
284.834170,746.560651,2277.967115,-9992.427178
284.836744,401.994197,1914.258080,-9915.856854
284.839317,191.425808,4249.652938,-9379.864592
284.841891,191.425808,784.845813,-10317.851051
284.844465,2392.822600,-574.277424,-10183.852986
284.847038,-1627.119368,3541.377448,-9322.436850
284.849612,3177.668413,-842.273555,-10394.421374
284.852186,861.416136,-1971.685822,-9494.720077
284.854759,-1378.265818,-3330.809059,-10241.280728
284.857333,172.283227,-2679.961312,-10604.989763
