#time,accel_x,accel_y,accel_z
5118.073577,689.132909,1397.408398,-9494.720077
5118.076059,248.853550,612.562586,-9896.714274
5118.078541,38.285162,-76.570323,-9954.142016
5118.081023,363.709035,1741.974853,-9341.579430
5118.083506,363.709035,-382.851616,-9801.001370
5118.085988,1359.123237,-4843.072942,-10509.276859
5118.088470,-612.562586,-746.560651,-9303.294269
5118.090952,516.849682,1129.412267,-9379.864592
5118.093435,612.562586,-3445.664544,-11026.126541
5118.095917,516.849682,1741.974853,-9667.003304
5118.098399,-535.992262,4153.940034,-8920.442653
5118.100915,478.564520,0.000000,-9992.427178
5118.103431,-363.709035,57.427742,-9533.005238
5118.105947,3215.953574,-765.703232,-9322.436850
5118.108463,-2354.537438,-1646.261949,-10930.413637
5118.110979,555.134843,-95.712904,-10164.710405
5118.113495,2201.396792,3847.658741,-8346.165229
5118.116011,-1282.552914,5111.069074,-9647.860723
5118.118527,1052.841944,3656.232933,-9743.573627
5118.121043,210.568389,-459.421939,-9724.431046
5118.123559,574.277424,-1167.697429,-10279.565890
5118.126075,650.847747,-669.990328,-9284.151688
5118.128591,803.988394,-153.140646,-9954.142016
5118.131107,-746.560651,2986.242605,-9896.714274
5118.133623,1033.699363,2603.390989,-9762.716208
5118.136139,-191.425808,2545.963246,-9513.862658
5118.138655,-57.427742,957.129040,-9667.003304
5118.141171,363.709035,727.418070,-9379.864592
5118.143687,497.707101,1703.689691,-9628.718142
5118.146203,937.986459,325.423874,-10375.278794
5118.148719,0.000000,440.279358,-9322.436850
5118.151235,-689.132909,2124.826469,-9169.296203
5118.153751,1550.549045,2029.113565,-9686.145885
5118.156267,899.701298,2488.535504,-10164.710405
5118.158783,-478.564520,4804.787781,-9513.862658
5118.161299,1320.838075,2067.398726,-9226.723946
5118.163815,248.853550,-229.710970,-9456.434915
5118.166331,1282.552914,-287.138712,-9801.001370
5118.168847,-612.562586,2277.967115,-9858.429112
5118.171363,2182.254211,2488.535504,-9992.427178
5118.173879,-1454.836141,861.416136,-9341.579430
5118.176396,899.701298,2450.250342,-9150.153622
5118.178912,2450.250342,2067.398726,-9647.860723
5118.181428,-1665.404530,1550.549045,-10394.421374
5118.183944,267.996131,4345.365842,-9169.296203
5118.186460,1397.408398,-3024.527766,-10566.704602
5118.188976,1014.556782,1167.697429,-9418.149754
5118.191492,-995.414202,-1856.830338,-9590.432981
5118.194008,2660.818731,1799.402595,-10260.423309
5118.196524,593.420005,516.849682,-9992.427178
5118.199040,-1454.836141,842.273555,-9399.007173
5118.201591,1129.412267,-516.849682,-9743.573627
5118.204129,1167.697429,-2565.105827,-10375.278794
5118.206667,708.275490,1091.127106,-9150.153622
5118.209205,-1263.410333,803.988394,-10222.138147
5118.211743,2756.531635,38.285162,-9973.284597
5118.214281,-1454.836141,631.705166,-8997.012976
5118.216820,210.568389,-2163.111630,-10222.138147
5118.219358,995.414202,-861.416136,-10241.280728
5118.221896,612.562586,1990.828403,-9475.577496
5118.224434,0.000000,-210.568389,-9858.429112
5118.226972,459.421939,-2009.970984,-9858.429112
5118.229510,555.134843,-248.853550,-9494.720077
5118.232048,-153.140646,267.996131,-9762.716208
5118.234586,1263.410333,708.275490,-10260.423309
5118.237124,153.140646,803.988394,-9781.858789
5118.239662,248.853550,-440.279358,-9724.431046
5118.242200,344.566454,2105.683888,-9226.723946
5118.244738,842.273555,478.564520,-10145.567824
5118.247276,267.996131,593.420005,-9973.284597
5118.249814,38.285162,1741.974853,-9533.005238
5118.252352,1110.269686,-765.703232,-9915.856854
5118.254890,516.849682,-2067.398726,-9628.718142
5118.257428,689.132909,-2756.531635,-10011.569758
5118.259966,440.279358,-2775.674216,-10394.421374
5118.262504,38.285162,19.142581,-9915.856854
5118.265042,1129.412267,2775.674216,-9399.007173
5118.267580,-689.132909,-363.709035,-9896.714274
5118.270118,2067.398726,995.414202,-9667.003304
5118.272656,-1110.269686,2239.681954,-9724.431046
5118.275194,1301.695494,-3120.240670,-10681.560086
5118.277732,1933.400661,535.992262,-8365.307810
5118.280270,-1167.697429,-1933.400661,-10202.995566
5118.282809,-497.707101,-4115.654872,-10662.417506
5118.285347,861.416136,4709.074877,-9035.298138
5118.287885,1914.258080,38.285162,-10700.702667
5118.290423,-1722.832272,4307.080680,-9092.725880
5118.292961,976.271621,1875.972918,-9360.722011
5118.295499,306.281293,2947.957443,-8882.157491
5118.298037,478.564520,-535.992262,-10413.563955
5118.300575,-210.568389,1225.125171,-9667.003304
5118.303128,1244.267752,1588.834206,-9513.862658
5118.305681,880.558717,995.414202,-10145.567824
5118.308234,-1722.832272,1818.545176,-9399.007173
5118.310788,1856.830338,1799.402595,-9265.009107
5118.313341,76.570323,3713.660675,-9992.427178
5118.315894,210.568389,3885.943902,-9494.720077
5118.318447,267.996131,-229.710970,-9303.294269
5118.321001,1320.838075,-1378.265818,-10413.563955
5118.323554,0.000000,842.273555,-9686.145885
5118.326107,861.416136,1071.984525,-10030.712339
5118.328660,210.568389,2928.814862,-9743.573627
5118.331214,1225.125171,3062.812928,-9303.294269
5118.333767,-38.285162,1033.699363,-9801.001370
5118.336320,95.712904,-421.136778,-9781.858789
5118.338873,669.990328,1875.972918,-9456.434915
5118.341426,440.279358,-38.285162,-10566.704602
5118.343980,516.849682,1167.697429,-9399.007173
5118.346533,38.285162,2890.529701,-8709.874264
5118.349086,267.996131,1512.263883,-10030.712339
5118.351639,784.845813,3579.662610,-9896.714274
5118.354193,957.129040,4728.217458,-9322.436850
5118.356746,-1129.412267,-497.707101,-10126.425243
5118.359299,1895.115499,-1512.263883,-9533.005238
5118.361852,-612.562586,3330.809059,-9035.298138
5118.364406,1665.404530,1684.547110,-10394.421374
5118.366959,-210.568389,2297.109696,-9054.440718
5118.369512,918.843878,2335.394858,-9475.577496
5118.372065,2163.111630,382.851616,-9954.142016
5118.374618,-1703.689691,1205.982590,-9628.718142
5118.377172,306.281293,4996.213589,-9379.864592
5118.379725,1225.125171,-1071.984525,-10470.991698
5118.382278,1378.265818,2584.248408,-9131.011042
5118.384831,-1320.838075,-2124.826469,-9743.573627
5118.387385,2392.822600,-210.568389,-9801.001370
5118.389938,478.564520,-1378.265818,-10260.423309
5118.392491,-1339.980656,-708.275490,-10145.567824
5118.395044,1665.404530,306.281293,-9628.718142
5118.397597,1033.699363,-1014.556782,-9743.573627
5118.400151,19.142581,574.277424,-9437.292334
5118.402704,-746.560651,1244.267752,-9973.284597
5118.405265,2029.113565,631.705166,-10030.712339
5118.407826,-574.277424,-1397.408398,-9973.284597
5118.410387,229.710970,-2431.107762,-9877.571693
5118.412949,-114.855485,1512.263883,-9131.011042
5118.415510,1014.556782,1263.410333,-10049.854920
5118.418071,612.562586,976.271621,-9667.003304
5118.420632,535.992262,363.709035,-9705.288466
5118.423193,-191.425808,-1875.972918,-9934.999435
5118.425755,1033.699363,746.560651,-9092.725880
5118.428316,842.273555,1282.552914,-10107.282662
5118.430877,-57.427742,0.000000,-10509.276859
5118.433438,727.418070,1416.550979,-9169.296203
5118.435999,478.564520,-38.285162,-9590.432981
5118.438560,-57.427742,421.136778,-10049.854920
5118.441122,746.560651,306.281293,-10183.852986
5118.443683,574.277424,-287.138712,-10068.997501
5118.446244,669.990328,-2316.252277,-9667.003304
5118.448805,689.132909,-3158.525832,-9781.858789
5118.451366,555.134843,-937.986459,-9992.427178
5118.453928,-1014.556782,-1014.556782,-10432.706536
5118.456489,1952.543242,2009.970984,-9839.286531
5118.459050,344.566454,2603.390989,-9016.155557
5118.461611,-19.142581,363.709035,-9494.720077
5118.464172,-95.712904,650.847747,-9724.431046
5118.466733,-669.990328,-1225.125171,-10183.852986
5118.469295,-287.138712,-1914.258080,-10088.140082
5118.471856,2622.533570,-2431.107762,-9915.856854
5118.474417,-631.705166,1531.406464,-9322.436850
5118.476978,-765.703232,172.283227,-9839.286531
5118.479539,2297.109696,2526.820666,-9686.145885
5118.482101,-1014.556782,2909.672282,-9858.429112
5118.484662,114.855485,2143.969050,-9399.007173
5118.487223,497.707101,3426.521963,-8843.872330
5118.489784,2526.820666,-823.130974,-10145.567824
5118.492345,1052.841944,1799.402595,-9322.436850
5118.494906,-3196.810994,937.986459,-10202.995566
5118.497468,3637.090352,172.283227,-10049.854920
5118.500029,-535.992262,3311.666478,-8767.302006
5118.502590,478.564520,516.849682,-10068.997501
5118.505151,459.421939,2679.961312,-9992.427178
5118.507642,497.707101,5493.920690,-9092.725880
5118.510133,-287.138712,-1148.554848,-9781.858789
5118.512624,1435.693560,-1435.693560,-10298.708470
5118.515115,459.421939,1895.115499,-9533.005238
5118.517606,172.283227,172.283227,-10317.851051
5118.520097,880.558717,1818.545176,-9839.286531
5118.522588,210.568389,3388.236802,-9016.155557
5118.525079,784.845813,-306.281293,-9667.003304
5118.527570,727.418070,1167.697429,-9265.009107
5118.530060,153.140646,1071.984525,-10317.851051
5118.532551,1014.556782,153.140646,-10336.993632
5118.535042,976.271621,2909.672282,-9111.868461
5118.537533,-153.140646,3043.670347,-9207.581365
5118.540024,842.273555,1856.830338,-10088.140082
5118.542515,-76.570323,4173.082614,-9226.723946
5118.545006,1263.410333,-937.986459,-10126.425243
5118.547497,-1129.412267,2603.390989,-9609.575562
5118.549988,1761.117434,3177.668413,-8997.012976
5118.552479,-57.427742,-2201.396792,-10126.425243
5118.554970,957.129040,1186.840010,-9992.427178
5118.557461,229.710970,2354.537438,-9705.288466
5118.559952,-1205.982590,440.279358,-10279.565890
5118.562443,2699.103893,5493.920690,-8575.876198
5118.564934,401.994197,497.707101,-9915.856854
5118.567425,-382.851616,2584.248408,-9686.145885
5118.569915,1646.261949,-38.285162,-9896.714274
5118.572406,823.130974,-1990.828403,-10068.997501
5118.574897,-1320.838075,-1282.552914,-9820.143950
5118.577388,57.427742,-1282.552914,-9743.573627
5118.579879,2488.535504,650.847747,-9552.147819
5118.582370,1225.125171,765.703232,-10049.854920
5118.584861,-1531.406464,918.843878,-9399.007173
5118.587352,1014.556782,899.701298,-9647.860723
5118.589843,1818.545176,-306.281293,-10068.997501
5118.592334,-421.136778,-2009.970984,-10336.993632
5118.594825,535.992262,1186.840010,-9054.440718
5118.597316,114.855485,1512.263883,-9284.151688
5118.599807,2277.967115,-823.130974,-9915.856854
5118.602298,-459.421939,535.992262,-9839.286531
5118.604789,-172.283227,-267.996131,-10394.421374
5118.607305,803.988394,669.990328,-9360.722011
5118.609822,765.703232,1875.972918,-9284.151688
5118.612339,401.994197,-2507.678085,-10470.991698
5118.614856,57.427742,1493.121302,-9552.147819
5118.617373,440.279358,957.129040,-9973.284597
5118.619889,631.705166,344.566454,-9801.001370
5118.622406,555.134843,1320.838075,-9245.866526
5118.624923,440.279358,-2718.246474,-10643.274925
5118.627440,267.996131,-823.130974,-9820.143950
5118.629956,593.420005,-1301.695494,-9513.862658
5118.632473,497.707101,-2277.967115,-10260.423309
5118.634990,631.705166,344.566454,-9858.429112
5118.637507,-421.136778,-1473.978722,-10336.993632
5118.640024,1110.269686,2545.963246,-9207.581365
5118.642540,38.285162,3120.240670,-9303.294269
5118.645057,669.990328,-153.140646,-9992.427178
5118.647574,-325.423874,-363.709035,-9571.290400
5118.650091,-1071.984525,-1875.972918,-10279.565890
5118.652608,2469.392923,-4307.080680,-10394.421374
5118.655124,-478.564520,3388.236802,-9016.155557
5118.657641,133.998066,-899.701298,-10088.140082
5118.660158,1473.978722,2699.103893,-9245.866526
5118.662675,-114.855485,2909.672282,-9762.716208
5118.665192,-363.709035,2258.824534,-9571.290400
5118.667708,172.283227,3943.371645,-9169.296203
5118.670225,2928.814862,153.140646,-9820.143950
5118.672742,1435.693560,1186.840010,-9169.296203
5118.675259,-3598.805190,306.281293,-10202.995566
5118.677776,3905.086483,593.420005,-9896.714274
5118.680292,-229.710970,3177.668413,-8958.727814
5118.682809,-363.709035,421.136778,-10164.710405
5118.685326,823.130974,3426.521963,-9839.286531
5118.687843,631.705166,4977.071008,-9245.866526
5118.690359,-210.568389,-2277.967115,-10260.423309
5118.692876,1378.265818,746.560651,-9552.147819
5118.695393,976.271621,2067.398726,-9322.436850
5118.697910,38.285162,650.847747,-10183.852986
5118.700427,727.418070,2450.250342,-9571.290400
5118.702943,612.562586,1110.269686,-9705.288466
5118.705460,95.712904,38.285162,-9954.142016
5118.707932,784.845813,1722.832272,-9111.868461
5118.710404,708.275490,1569.691626,-9973.284597
5118.712877,497.707101,1033.699363,-10202.995566
5118.715349,612.562586,2086.541307,-9284.151688
5118.717821,459.421939,842.273555,-10068.997501
5118.720293,535.992262,4019.941968,-9590.432981
5118.722765,516.849682,5513.063270,-8882.157491
5118.725237,937.986459,-267.996131,-10241.280728
5118.727709,229.710970,229.710970,-10317.851051
5118.730182,-287.138712,1014.556782,-8824.729749
5118.732654,1263.410333,440.279358,-9667.003304
5118.735126,2737.389054,1225.125171,-10547.562021
5118.737598,-2335.394858,1052.841944,-9973.284597
5118.740070,1282.552914,4364.508422,-9131.011042
5118.742542,784.845813,-19.142581,-9915.856854
5118.745014,2354.537438,4326.223261,-8729.016845
5118.747486,-2679.961312,-2048.256146,-10585.847182
5118.749959,3043.670347,535.992262,-9820.143950
5118.752431,382.851616,-2775.674216,-10126.425243
5118.754903,-1627.119368,-2067.398726,-10049.854920
5118.757375,2526.820666,-478.564520,-9667.003304
5118.759847,1722.832272,957.129040,-9724.431046
5118.762319,-1875.972918,1550.549045,-9590.432981
5118.764791,1320.838075,574.277424,-9992.427178
5118.767263,1818.545176,746.560651,-9590.432981
5118.769736,497.707101,-2392.822600,-10336.993632
5118.772208,-153.140646,-1225.125171,-9973.284597
5118.774680,401.994197,1186.840010,-9303.294269
5118.777152,2239.681954,-2201.396792,-10547.562021
5118.779624,-746.560651,957.129040,-9705.288466
5118.782096,401.994197,440.279358,-9820.143950
5118.784568,784.845813,-267.996131,-9820.143950
5118.787041,727.418070,1818.545176,-9399.007173
5118.789513,287.138712,1397.408398,-9686.145885
5118.791985,631.705166,-459.421939,-10088.140082
5118.794457,535.992262,1167.697429,-9724.431046
5118.796929,574.277424,306.281293,-9667.003304
5118.799401,459.421939,-2220.539373,-10088.140082
5118.801873,401.994197,-133.998066,-9724.431046
5118.804345,765.703232,-2163.111630,-9973.284597
5118.806847,-191.425808,-3005.385186,-10451.849117
5118.809348,1225.125171,3005.385186,-9016.155557
5118.811850,114.855485,-2182.254211,-10241.280728
5118.814351,1110.269686,-880.558717,-10183.852986
5118.816852,-2048.256146,2813.959378,-9609.575562
5118.819354,2220.539373,-1320.838075,-10375.278794
5118.821855,2220.539373,1263.410333,-8595.018779
5118.824356,-2086.541307,631.705166,-9571.290400
5118.826858,1588.834206,-5800.201982,-11198.409768
5118.829359,76.570323,2469.392923,-9035.298138
5118.831860,1761.117434,-1856.830338,-10777.272990
5118.834362,-1646.261949,4268.795518,-9284.151688
5118.836863,2737.389054,3043.670347,-9284.151688
5118.839364,823.130974,4077.369710,-9111.868461
5118.841866,-2009.970984,1339.980656,-10164.710405
5118.844367,1646.261949,-344.566454,-9781.858789
5118.846868,2603.390989,899.701298,-9379.864592
5118.849370,-2890.529701,306.281293,-10375.278794
5118.851871,1933.400661,823.130974,-9609.575562
5118.854372,1282.552914,3349.951640,-8882.157491
5118.856874,-401.994197,1033.699363,-10298.708470
5118.859375,-421.136778,3445.664544,-9590.432981
5118.861877,995.414202,6068.198114,-8575.876198
5118.864378,1014.556782,-1493.121302,-10183.852986
5118.866879,-689.132909,459.421939,-9552.147819
5118.869381,1550.549045,1799.402595,-9437.292334
5118.871882,-38.285162,-1761.117434,-10643.274925
5118.874383,191.425808,3541.377448,-9169.296203
5118.876885,899.701298,1856.830338,-9533.005238
5118.879386,382.851616,-440.279358,-9992.427178
5118.881887,0.000000,1837.687757,-9399.007173
5118.884389,1167.697429,401.994197,-10222.138147
5118.886913,995.414202,612.562586,-10088.140082
5118.889437,-325.423874,5091.926493,-8920.442653
5118.891962,803.988394,2871.387120,-9456.434915
5118.894486,612.562586,1378.265818,-9954.142016
5118.897011,-19.142581,5245.067139,-9245.866526
5118.899535,325.423874,-2622.533570,-10470.991698
5118.902060,1167.697429,1244.267752,-9150.153622
5118.904584,-957.129040,1320.838075,-9341.579430
5118.907108,1512.263883,-3196.810994,-10987.841379
5118.909633,3388.236802,5532.205851,-8633.303941
5118.912157,-1014.556782,3962.514226,-9801.001370
5118.914682,-1110.269686,976.271621,-9954.142016
5118.917206,4134.797453,4402.793584,-8250.452325
5118.919730,-2067.398726,-3981.656806,-10796.415571
5118.922255,535.992262,-1282.552914,-10164.710405
5118.924779,2297.109696,-2373.680019,-9571.290400
5118.927304,-76.570323,-1627.119368,-10183.852986
5118.929828,-191.425808,708.275490,-9839.286531
5118.932352,1071.984525,-823.130974,-9877.571693
5118.934877,3560.520029,325.423874,-9934.999435
5118.937401,-1110.269686,2124.826469,-9533.005238
5118.939926,574.277424,937.986459,-9801.001370
5118.942450,1397.408398,-1435.693560,-9590.432981
5118.944974,325.423874,-3292.523898,-10298.708470
5118.947499,-459.421939,1091.127106,-9169.296203
5118.950023,2048.256146,-650.847747,-10241.280728
5118.952548,-114.855485,306.281293,-9877.571693
5118.955072,-153.140646,765.703232,-9533.005238
5118.957596,612.562586,842.273555,-9686.145885
5118.960121,1282.552914,1799.402595,-9188.438784
5118.962645,19.142581,-555.134843,-10317.851051
5118.965170,76.570323,823.130974,-10068.997501
5118.967694,861.416136,1416.550979,-9533.005238
5118.970218,459.421939,-2182.254211,-9954.142016
5118.972743,267.996131,-555.134843,-9743.573627
5118.975267,267.996131,-459.421939,-9667.003304
5118.977792,976.271621,-2450.250342,-10375.278794
5118.980316,-727.418070,-3311.666478,-10738.987829
5118.982840,1263.410333,401.994197,-9073.583299
5118.985365,191.425808,3675.375514,-9245.866526
5118.987907,1359.123237,1646.261949,-10336.993632
5118.990449,-937.986459,421.136778,-9494.720077
5118.992991,1014.556782,57.427742,-9456.434915
5118.995534,3311.666478,-4594.219392,-10470.991698
5118.998076,-765.703232,1033.699363,-9265.009107
5119.000618,-803.988394,-976.271621,-10509.276859
5119.003160,2775.674216,1416.550979,-9762.716208
5119.005702,-803.988394,3905.086483,-9341.579430
5119.008244,-861.416136,1837.687757,-9820.143950
5119.010787,1263.410333,4039.084549,-8863.014910
5119.013329,1914.258080,2488.535504,-9647.860723
5119.015871,-574.277424,459.421939,-10068.997501
5119.018413,823.130974,478.564520,-9686.145885
5119.020955,3905.086483,1378.265818,-9475.577496
5119.023497,-1359.123237,478.564520,-9896.714274
5119.026040,746.560651,1091.127106,-9877.571693
5119.028582,1990.828403,4249.652938,-9360.722011
5119.031124,-1282.552914,535.992262,-10470.991698
5119.033666,19.142581,4766.502619,-8537.591037
5119.036208,2086.541307,95.712904,-9820.143950
5119.038750,-497.707101,325.423874,-9954.142016
5119.041293,612.562586,861.416136,-9628.718142
5119.043835,287.138712,708.275490,-10183.852986
5119.046377,803.988394,1856.830338,-9437.292334
5119.048919,861.416136,1225.125171,-9131.011042
5119.051461,306.281293,-287.138712,-9992.427178
5119.054003,1205.982590,1799.402595,-9781.858789
5119.056546,-133.998066,2756.531635,-9686.145885
5119.059088,76.570323,497.707101,-10260.423309
5119.061630,784.845813,6144.768437,-8824.729749
5119.064172,1205.982590,3751.945837,-9245.866526
5119.066714,421.136778,1301.695494,-10145.567824
5119.069256,344.566454,1569.691626,-9245.866526
5119.071799,-76.570323,-612.562586,-9839.286531
5119.074341,2679.961312,-1550.549045,-10509.276859
5119.076883,-1875.972918,2124.826469,-9513.862658
5119.079425,210.568389,4536.791650,-9437.292334
5119.081967,1359.123237,1378.265818,-10088.140082
5119.084509,1244.267752,4268.795518,-9131.011042
5119.087052,-1091.127106,-1359.123237,-9801.001370
5119.089606,2048.256146,-555.134843,-9552.147819
5119.092161,-535.992262,-2488.535504,-10241.280728
5119.094716,-1646.261949,-2660.818731,-10241.280728
5119.097271,2067.398726,153.140646,-9915.856854
5119.099826,1971.685822,1091.127106,-9801.001370
5119.102381,-2029.113565,1129.412267,-9379.864592
5119.104935,1397.408398,937.986459,-9858.429112
5119.107490,1799.402595,0.000000,-9896.714274
5119.110045,133.998066,-535.992262,-10183.852986
5119.112600,-344.566454,-746.560651,-9341.579430
5119.115155,1378.265818,-4211.367776,-10394.421374
5119.117710,-612.562586,727.418070,-10222.138147
5119.120265,-689.132909,1665.404530,-9705.288466
5119.122819,1722.832272,401.994197,-9781.858789
5119.125374,-210.568389,-306.281293,-9820.143950
5119.127929,344.566454,1454.836141,-9150.153622
5119.130484,1320.838075,363.709035,-9743.573627
5119.133039,516.849682,153.140646,-10566.704602
5119.135594,153.140646,1359.123237,-9513.862658
5119.138148,727.418070,-497.707101,-9628.718142
5119.140703,-38.285162,-401.994197,-9781.858789
5119.143258,593.420005,-1225.125171,-9571.290400
5119.145813,593.420005,-4938.785846,-10872.985894
5119.148368,401.994197,727.418070,-9628.718142
5119.150923,1761.117434,-1033.699363,-9437.292334
5119.153478,-2277.967115,1722.832272,-9915.856854
5119.156032,1990.828403,1741.974853,-10126.425243
5119.158587,2220.539373,459.421939,-9169.296203
5119.161142,-2660.818731,1205.982590,-9552.147819
5119.163697,2526.820666,-5340.780043,-10911.271056
5119.166252,19.142581,1359.123237,-8671.589102
5119.168807,2431.107762,-2201.396792,-10815.558152
5119.171361,-2163.111630,3598.805190,-9418.149754
5119.173916,2852.244539,3885.943902,-9494.720077
5119.176471,191.425808,4383.651003,-9341.579430
5119.179026,-1990.828403,1531.406464,-9896.714274
5119.181581,3005.385186,459.421939,-9418.149754
5119.184136,1799.402595,650.847747,-9494.720077
5119.186691,-3196.810994,708.275490,-10068.997501
5119.189245,3732.803256,2048.256146,-9437.292334
5119.191810,1378.265818,3617.947771,-8901.300072
5119.194375,-421.136778,1225.125171,-10068.997501
5119.196940,440.279358,3254.238736,-9667.003304
5119.199505,535.992262,1378.265818,-10088.140082
5119.202070,-842.273555,2833.101958,-9131.011042
5119.204635,2182.254211,555.134843,-9456.434915
5119.207200,1129.412267,1129.412267,-9915.856854
5119.209765,-918.843878,-631.705166,-10126.425243
5119.212330,727.418070,3273.381317,-9456.434915
5119.214895,1569.691626,-516.849682,-10107.282662
5119.217460,287.138712,1301.695494,-9226.723946
5119.220025,-555.134843,1071.984525,-9705.288466
5119.222590,229.710970,535.992262,-10317.851051
5119.225155,1244.267752,5723.631659,-8939.585234
5119.227720,555.134843,3215.953574,-9724.431046
5119.230285,-229.710970,3062.812928,-9954.142016
5119.232849,689.132909,2124.826469,-8748.159426
5119.235414,1205.982590,-669.990328,-9705.288466
5119.237979,-1071.984525,574.277424,-10088.140082
5119.240544,3158.525832,-421.136778,-9705.288466
5119.243109,2622.533570,2699.103893,-9169.296203
5119.245674,-1741.974853,3694.518094,-9839.286531
5119.248239,-593.420005,2009.970984,-9647.860723
5119.250804,3637.090352,5532.205851,-9016.155557
5119.253369,-2871.387120,-3235.096155,-10777.272990
5119.255934,2354.537438,114.855485,-9188.438784
5119.258499,937.986459,-2737.389054,-9877.571693
5119.261064,-1167.697429,-3732.803256,-10509.276859
5119.263629,689.132909,765.703232,-9705.288466
5119.266194,2029.113565,344.566454,-10260.423309
5119.268759,1282.552914,1148.554848,-9552.147819
5119.271324,-1780.260014,3254.238736,-8977.870395
5119.273889,1952.543242,-267.996131,-10049.854920
5119.276454,1359.123237,-957.129040,-10107.282662
5119.279019,-1627.119368,-363.709035,-9533.005238
5119.281584,1033.699363,-4843.072942,-10490.134278
5119.284149,1416.550979,1052.841944,-9590.432981
5119.286714,-440.279358,478.564520,-9896.714274
5119.289278,1110.269686,-306.281293,-10183.852986
5119.291843,-344.566454,2679.961312,-9111.868461
5119.294372,325.423874,133.998066,-9724.431046
5119.296901,1186.840010,-899.701298,-10011.569758
5119.299429,153.140646,1493.121302,-9724.431046
5119.301958,497.707101,-593.420005,-10279.565890
5119.304486,267.996131,-1435.693560,-9877.571693
5119.307015,38.285162,823.130974,-8958.727814
5119.309543,440.279358,-5934.200048,-10872.985894
5119.312072,784.845813,-1627.119368,-10183.852986
5119.314601,1282.552914,2297.109696,-9475.577496
5119.317129,-191.425808,172.283227,-10432.706536
5119.319658,229.710970,1818.545176,-9533.005238
5119.322186,2526.820666,2775.674216,-8441.878133
5119.324715,-1627.119368,-1148.554848,-10547.562021
5119.327243,325.423874,-3751.945837,-10528.419440
5119.329772,-95.712904,1071.984525,-8863.014910
5119.332301,2411.965181,-3962.514226,-10911.271056
5119.334829,-2450.250342,5493.920690,-8652.446522
5119.337358,2928.814862,3139.383251,-9590.432981
5119.339886,1493.121302,4766.502619,-9399.007173
5119.342415,-2373.680019,2603.390989,-9801.001370
5119.344943,1301.695494,-765.703232,-9705.288466
5119.347472,2871.387120,-363.709035,-9475.577496
5119.350001,-3311.666478,57.427742,-10126.425243
5119.352529,2603.390989,1301.695494,-9781.858789
5119.355058,631.705166,3483.949706,-9150.153622
5119.357586,-555.134843,593.420005,-10126.425243
5119.360115,823.130974,3043.670347,-9360.722011
5119.362643,-95.712904,3177.668413,-9839.286531
5119.365172,-57.427742,1761.117434,-9628.718142
5119.367701,478.564520,669.990328,-9513.862658
5119.370229,2067.398726,287.138712,-9915.856854
5119.372758,-746.560651,1205.982590,-9954.142016
5119.375286,1091.127106,861.416136,-9992.427178
5119.377815,995.414202,1225.125171,-9456.434915
5119.380343,95.712904,287.138712,-9724.431046
5119.382872,-459.421939,899.701298,-9858.429112
5119.385401,1186.840010,4575.076811,-9379.864592
5119.387929,1129.412267,3598.805190,-9724.431046
5119.390458,401.994197,3081.955509,-9743.573627
5119.392986,-1167.697429,1186.840010,-9494.720077
5119.395530,2392.822600,-497.707101,-9513.862658
5119.398073,-325.423874,689.132909,-9934.999435
5119.400616,1014.556782,-459.421939,-10068.997501
5119.403159,3617.947771,3445.664544,-8843.872330
5119.405702,-669.990328,3656.232933,-9781.858789
5119.408246,-1512.263883,2105.683888,-9647.860723
5119.410789,4211.367776,3885.943902,-8977.870395
5119.413332,-2431.107762,-1990.828403,-10700.702667
5119.415875,1684.547110,-631.705166,-9628.718142
5119.418419,1761.117434,-3177.668413,-9533.005238
5119.420962,-976.271621,-3139.383251,-10279.565890
5119.423505,-727.418070,267.996131,-9934.999435
5119.426048,631.705166,-401.994197,-10298.708470
5119.428591,2009.970984,1684.547110,-9533.005238
5119.431135,-2009.970984,2928.814862,-8997.012976
5119.433678,1435.693560,325.423874,-9858.429112
5119.436221,1493.121302,-957.129040,-9973.284597
5119.438764,-1856.830338,-1607.976787,-9801.001370
5119.441307,612.562586,-3503.092286,-10451.849117
5119.443851,2335.394858,880.558717,-9533.005238
5119.446394,-708.275490,1110.269686,-9781.858789
5119.448937,172.283227,-899.701298,-10126.425243
5119.451480,421.136778,2833.101958,-8824.729749
5119.454024,555.134843,-535.992262,-10088.140082
5119.456567,976.271621,-765.703232,-10317.851051
5119.459110,-344.566454,3120.240670,-9245.866526
5119.461653,631.705166,-2603.390989,-10183.852986
5119.464196,612.562586,-995.414202,-9628.718142
5119.466740,-555.134843,-1971.685822,-9781.858789
5119.469283,1244.267752,-4670.789715,-10585.847182
5119.471826,1033.699363,-114.855485,-9858.429112
5119.474369,-421.136778,2048.256146,-9801.001370
5119.476912,-267.996131,-306.281293,-10183.852986
5119.479456,3349.951640,3177.668413,-8690.731683
5119.481999,-2182.254211,727.418070,-9954.142016
5119.484542,172.283227,-4460.221326,-10815.558152
5119.487085,650.847747,1014.556782,-8997.012976
5119.489629,2143.969050,-3885.943902,-10738.987829
5119.492172,-2431.107762,3771.088418,-9073.583299
5119.494715,2928.814862,3694.518094,-9475.577496
5119.497270,1359.123237,5264.209720,-9303.294269
5119.499825,-2507.678085,3024.527766,-9820.143950
5119.502380,2392.822600,-76.570323,-9628.718142
5119.504935,2048.256146,-287.138712,-9533.005238
5119.507491,-3349.951640,172.283227,-10068.997501
5119.510046,3809.373579,2354.537438,-9341.579430
5119.512601,-497.707101,1665.404530,-9686.145885
5119.515156,-669.990328,325.423874,-10375.278794
5119.517711,1837.687757,3349.951640,-9092.725880
5119.520266,172.283227,4000.799387,-9705.288466
5119.522821,267.996131,401.994197,-10011.569758
5119.525376,191.425808,1588.834206,-9016.155557
5119.527931,784.845813,306.281293,-9915.856854
5119.530486,57.427742,880.558717,-10222.138147
5119.533042,459.421939,1780.260014,-9628.718142
5119.535597,191.425808,1148.554848,-9437.292334
5119.538152,861.416136,-669.990328,-9705.288466
5119.540707,-401.994197,4077.369710,-9322.436850
5119.543262,995.414202,3981.656806,-9820.143950
5119.545817,555.134843,3598.805190,-9513.862658
5119.548372,-287.138712,1569.691626,-9571.290400
5119.550927,765.703232,708.275490,-9571.290400
5119.553482,-19.142581,1014.556782,-9628.718142
5119.556037,2679.961312,-76.570323,-9992.427178
5119.558593,-1359.123237,-363.709035,-10145.567824
5119.561148,153.140646,3330.809059,-9533.005238
5119.563703,1627.119368,1378.265818,-9456.434915
5119.566258,937.986459,4517.649069,-9399.007173
5119.568813,-555.134843,937.986459,-9896.714274
5119.571368,2852.244539,1416.550979,-9265.009107
5119.573923,995.414202,-3349.951640,-10222.138147
5119.576478,-1952.543242,-3847.658741,-10241.280728
5119.579033,2507.678085,-306.281293,-9379.864592
5119.581588,1741.974853,1167.697429,-10222.138147
5119.584144,-3522.234867,1646.261949,-9743.573627
5119.586699,3120.240670,555.134843,-9494.720077
5119.589254,-363.709035,861.416136,-9705.288466
5119.591809,19.142581,-344.566454,-10202.995566
5119.594364,1952.543242,-727.418070,-9360.722011
5119.596919,1301.695494,382.851616,-9609.575562
5119.599483,-191.425808,-1799.402595,-10107.282662
5119.602047,1129.412267,1550.549045,-9360.722011
5119.604611,1071.984525,574.277424,-10088.140082
5119.607174,229.710970,-689.132909,-9705.288466
5119.609738,574.277424,1244.267752,-9016.155557
5119.612302,1052.841944,114.855485,-10202.995566
5119.614866,38.285162,306.281293,-10107.282662
5119.617430,95.712904,593.420005,-9418.149754
5119.619993,1378.265818,-3388.236802,-10030.712339
5119.622557,382.851616,-2565.105827,-9743.573627
5119.625121,-133.998066,-2067.398726,-10107.282662
5119.627685,287.138712,899.701298,-9877.571693
5119.630249,1761.117434,2431.107762,-9705.288466
5119.632813,-1052.841944,401.994197,-9667.003304
5119.635376,1167.697429,1722.832272,-9150.153622
5119.637940,1397.408398,-440.279358,-10049.854920
5119.640504,-1167.697429,-2277.967115,-10451.849117
5119.643068,401.994197,976.271621,-9341.579430
5119.645632,2947.957443,-1588.834206,-9590.432981
5119.648195,-1416.550979,3235.096155,-9456.434915
5119.650759,325.423874,3120.240670,-9877.571693
5119.653323,1684.547110,5800.201982,-8882.157491
5119.655887,-535.992262,4211.367776,-9609.575562
5119.658451,-325.423874,76.570323,-9820.143950
5119.661015,2986.242605,-1646.261949,-9705.288466
5119.663578,-2526.820666,-746.560651,-10298.708470
5119.666142,1741.974853,2220.539373,-9552.147819
5119.668706,1282.552914,3369.094221,-8977.870395
5119.671270,669.990328,2871.387120,-9647.860723
5119.673834,-516.849682,2775.674216,-9494.720077
5119.676397,823.130974,3177.668413,-9533.005238
5119.678961,555.134843,516.849682,-10049.854920
5119.681525,-669.990328,1225.125171,-8997.012976
5119.684089,1665.404530,957.129040,-9781.858789
5119.686653,0.000000,727.418070,-10375.278794
5119.689216,-133.998066,2335.394858,-9456.434915
5119.691780,1473.978722,-574.277424,-9628.718142
5119.694344,-727.418070,1512.263883,-9820.143950
5119.696908,-689.132909,4996.213589,-9667.003304
5119.699472,1071.984525,4460.221326,-9609.575562
5119.702043,248.853550,1282.552914,-9820.143950
5119.704615,1033.699363,1780.260014,-9265.009107
5119.707186,-459.421939,1416.550979,-9475.577496
5119.709758,3464.807125,-133.998066,-9934.999435
5119.712329,-1282.552914,76.570323,-9858.429112
5119.714901,-95.712904,2526.820666,-9877.571693
5119.717472,1933.400661,899.701298,-9418.149754
5119.720044,3120.240670,5551.348432,-8614.161360
5119.722615,-3024.527766,-1416.550979,-10547.562021
5119.725187,2794.816797,1837.687757,-9303.294269
5119.727759,1167.697429,-2813.959378,-10183.852986
5119.730330,-2067.398726,-4613.361973,-10470.991698
5119.732902,2871.387120,-287.138712,-9303.294269
5119.735473,1473.978722,1014.556782,-10011.569758
5119.738045,-3962.514226,440.279358,-10222.138147
5119.740616,3541.377448,918.843878,-9322.436850
5119.743188,1799.402595,-784.845813,-10183.852986
5119.745759,-535.992262,-248.853550,-10164.710405
5119.748331,1263.410333,-823.130974,-9418.149754
5119.750902,248.853550,-1071.984525,-10088.140082
5119.753474,555.134843,-2622.533570,-10202.995566
5119.756045,440.279358,2756.531635,-9322.436850
5119.758617,861.416136,19.142581,-10394.421374
5119.761188,669.990328,-38.285162,-9322.436850
5119.763760,325.423874,1091.127106,-9092.725880
5119.766331,631.705166,-1378.265818,-10585.847182
5119.768903,191.425808,478.564520,-10068.997501
5119.771474,708.275490,-1435.693560,-9705.288466
5119.774046,612.562586,-2258.824534,-9552.147819
5119.776618,114.855485,-3675.375514,-10068.997501
5119.779189,746.560651,708.275490,-9839.286531
5119.781761,229.710970,727.418070,-10432.706536
5119.784332,-746.560651,-133.998066,-10107.282662
5119.786904,2909.672282,2699.103893,-8307.880067
5119.789475,-1684.547110,631.705166,-9973.284597
5119.792047,421.136778,-2986.242605,-10356.136213
5119.794618,191.425808,803.988394,-9724.431046
5119.797190,3503.092286,-4307.080680,-11006.983960
5119.799761,-3407.379382,4096.512291,-8556.733618
5119.802333,2622.533570,2258.824534,-9705.288466
5119.804910,1071.984525,4651.647134,-9533.005238
5119.807487,-2794.816797,4785.645200,-9571.290400
5119.810065,3024.527766,-210.568389,-10049.854920
5119.812642,1588.834206,727.418070,-9207.581365
5119.815219,-2258.824534,1339.980656,-9303.294269
5119.817797,2756.531635,1397.408398,-9820.143950
5119.820374,861.416136,2909.672282,-9303.294269
5119.822951,-401.994197,-191.425808,-10470.991698
5119.825529,363.709035,2928.814862,-9341.579430
5119.828106,765.703232,3101.098090,-9322.436850
5119.830683,631.705166,1071.984525,-9973.284597
5119.833261,-114.855485,114.855485,-9628.718142
5119.835838,1167.697429,2220.539373,-9533.005238
5119.838415,-382.851616,-478.564520,-10528.419440
5119.840993,803.988394,1244.267752,-9571.290400
5119.843570,593.420005,2488.535504,-9073.583299
5119.846148,191.425808,2029.113565,-9877.571693
5119.848725,440.279358,4996.213589,-9437.292334
5119.851302,1339.980656,4230.510357,-9284.151688
5119.853880,-2220.539373,2565.105827,-9628.718142
5119.856457,976.271621,1646.261949,-9533.005238
5119.859034,1780.260014,-612.562586,-10049.854920
5119.861612,-2584.248408,-1493.121302,-10777.272990
5119.864189,3311.666478,3522.234867,-9131.011042
5119.866766,440.279358,2871.387120,-9552.147819
5119.869344,-1914.258080,2124.826469,-9801.001370
5119.871921,3330.809059,2967.100024,-8958.727814
5119.874498,-1014.556782,-2622.533570,-10700.702667
5119.877076,-210.568389,-210.568389,-9934.999435
5119.879653,229.710970,-2737.389054,-9743.573627
5119.882230,2622.533570,-1301.695494,-9667.003304
5119.884808,-1244.267752,344.566454,-9820.143950
5119.887385,516.849682,-976.271621,-10011.569758
5119.889962,1952.543242,1205.982590,-9705.288466
5119.892540,-2182.254211,3407.379382,-9092.725880
5119.895117,2565.105827,-363.709035,-9686.145885
5119.897694,19.142581,-57.427742,-10049.854920
5119.900272,0.000000,-2067.398726,-10068.997501
5119.902849,842.273555,-2277.967115,-9781.858789
5119.905426,803.988394,344.566454,-9992.427178
5119.908007,440.279358,1320.838075,-9934.999435
5119.910589,669.990328,823.130974,-9743.573627
5119.913170,57.427742,-229.710970,-9437.292334
5119.915751,669.990328,459.421939,-9360.722011
5119.918332,842.273555,459.421939,-10643.274925
5119.920913,-153.140646,-516.849682,-9954.142016
5119.923494,1129.412267,-3081.955509,-9265.009107
5119.926075,76.570323,-2890.529701,-9820.143950
5119.928657,-1014.556782,937.986459,-10126.425243
5119.931238,2833.101958,1952.543242,-9667.003304
5119.933819,-631.705166,823.130974,-9858.429112
5119.936400,-478.564520,172.283227,-9705.288466
5119.938981,2411.965181,-306.281293,-9092.725880
5119.941562,-1244.267752,-1225.125171,-10088.140082
5119.944143,-344.566454,-172.283227,-10241.280728
5119.946725,3981.656806,-2852.244539,-10624.132344
5119.949306,-2871.387120,3713.660675,-8901.300072
5119.951887,2297.109696,1052.841944,-10011.569758
5119.954468,1952.543242,5838.487144,-8288.737486
5119.957049,-1416.550979,4670.789715,-9781.858789
5119.959630,-38.285162,-325.423874,-10528.419440
5119.962211,3043.670347,-19.142581,-9188.438784
5119.964793,-2335.394858,-593.420005,-10011.569758
5119.967374,1588.834206,2220.539373,-9590.432981
5119.969955,669.990328,2813.959378,-9131.011042
5119.972536,-421.136778,-57.427742,-10604.989763
5119.975117,727.418070,2124.826469,-9667.003304
5119.977698,344.566454,3847.658741,-9111.868461
5119.980279,133.998066,957.129040,-10068.997501
5119.982861,918.843878,172.283227,-9628.718142
5119.985442,708.275490,1895.115499,-9781.858789
5119.988023,-210.568389,-631.705166,-10432.706536
5119.990604,1225.125171,2182.254211,-9245.866526
5119.993185,325.423874,3043.670347,-9188.438784
5119.995766,344.566454,1761.117434,-10222.138147
5119.998347,1033.699363,5111.069074,-9418.149754
5120.000929,-1014.556782,2928.814862,-9552.147819
5120.003510,1531.406464,-1052.841944,-10107.282662
5120.006091,1320.838075,1550.549045,-9494.720077
5120.008672,-1225.125171,-1129.412267,-10490.134278
5120.011256,2335.394858,1856.830338,-9303.294269
5120.013840,-976.271621,4345.365842,-9513.862658
5120.016424,-1186.840010,95.712904,-10088.140082
5120.019008,3292.523898,3981.656806,-8805.587168
5120.021592,-2699.103893,-1416.550979,-10375.278794
5120.024176,2182.254211,1837.687757,-9360.722011
5120.026760,1493.121302,-1550.549045,-9973.284597
5120.029345,-210.568389,-2373.680019,-10088.140082
5120.031929,-191.425808,-1091.127106,-9839.286531
5120.034513,2871.387120,-172.283227,-9820.143950
5120.037097,-2009.970984,1722.832272,-9762.716208
5120.039681,1014.556782,708.275490,-9877.571693
5120.042265,1799.402595,0.000000,-9877.571693
5120.044849,-650.847747,650.847747,-9992.427178
5120.047433,957.129040,-1033.699363,-9571.290400
5120.050017,1493.121302,-1531.406464,-9954.142016
5120.052601,421.136778,325.423874,-9762.716208
5120.055185,-248.853550,689.132909,-10049.854920
5120.057769,1454.836141,650.847747,-9992.427178
5120.060353,-344.566454,842.273555,-9150.153622
5120.062937,555.134843,287.138712,-9418.149754
5120.065521,899.701298,-957.129040,-10470.991698
5120.068106,172.283227,-421.136778,-10356.136213
5120.070690,574.277424,-2986.242605,-9686.145885
5120.073274,976.271621,-3215.953574,-9667.003304
5120.075858,-1780.260014,248.853550,-10030.712339
5120.078442,1684.547110,574.277424,-10164.710405
5120.081026,1971.685822,2794.816797,-8939.585234
5120.083610,-2622.533570,842.273555,-9858.429112
5120.086194,2852.244539,-3311.666478,-10049.854920
5120.088778,1033.699363,1148.554848,-9131.011042
5120.091362,-1799.402595,-1856.830338,-10872.985894
5120.093949,2258.824534,229.710970,-9647.860723
5120.096536,-57.427742,3713.660675,-9360.722011
5120.099123,-1033.699363,669.990328,-10126.425243
5120.101709,1588.834206,5206.781978,-8422.735552
5120.104296,3062.812928,3158.525832,-9667.003304
5120.106883,-1014.556782,1205.982590,-10222.138147
5120.109470,1588.834206,363.709035,-9399.007173
5120.112057,-306.281293,-1320.838075,-9973.284597
5120.114644,-287.138712,1071.984525,-9954.142016
5120.117230,2277.967115,3905.086483,-8786.444587
5120.119817,114.855485,2277.967115,-10088.140082
5120.122404,0.000000,1665.404530,-9896.714274
5120.124991,995.414202,1148.554848,-9628.718142
5120.127578,-229.710970,2105.683888,-9456.434915
5120.130164,-133.998066,727.418070,-9647.860723
5120.132751,2067.398726,1761.117434,-9628.718142
5120.135338,-1091.127106,2277.967115,-10011.569758
5120.137925,669.990328,95.712904,-9839.286531
5120.140512,842.273555,4019.941968,-8843.872330
5120.143099,401.994197,4345.365842,-9705.288466
5120.145685,-631.705166,1722.832272,-10241.280728
5120.148272,1741.974853,1895.115499,-9265.009107
5120.150859,-555.134843,2679.961312,-9341.579430
5120.153446,1952.543242,-287.138712,-10298.708470
5120.156033,1875.972918,2967.100024,-8671.589102
5120.158619,-1607.976787,3043.670347,-10202.995566
5120.161206,-555.134843,-803.988394,-10394.421374
5120.163793,3445.664544,5091.926493,-8250.452325
5120.166380,-2852.244539,-1435.693560,-10528.419440
5120.168967,2143.969050,1818.545176,-9379.864592
5120.171554,1837.687757,-708.275490,-9628.718142
5120.174140,-2641.676150,-4058.227130,-11006.983960
5120.176727,2852.244539,-2029.113565,-9801.001370
5120.179314,2622.533570,57.427742,-9533.005238
5120.181901,-3273.381317,382.851616,-10202.995566
5120.184488,2852.244539,-95.712904,-9858.429112
5120.187074,210.568389,1435.693560,-9609.575562
5120.189661,-765.703232,1091.127106,-10088.140082
5120.192248,1741.974853,-765.703232,-9245.866526
5120.194835,0.000000,-1129.412267,-9858.429112
5120.197426,76.570323,-3311.666478,-10509.276859
5120.200014,459.421939,1856.830338,-9571.290400
5120.202601,669.990328,995.414202,-10164.710405
5120.205189,-631.705166,-497.707101,-9475.577496
5120.207777,1129.412267,765.703232,-8843.872330
5120.210365,516.849682,-1607.976787,-10700.702667
5120.212952,325.423874,-2967.100024,-10911.271056
5120.215540,516.849682,-1186.840010,-9150.153622
5120.218128,57.427742,-478.564520,-9399.007173
5120.220716,823.130974,-1014.556782,-10432.706536
5120.223303,-765.703232,-306.281293,-9992.427178
5120.225891,2565.105827,1856.830338,-9303.294269
5120.228479,689.132909,248.853550,-9781.858789
5120.231067,-861.416136,-1205.982590,-9303.294269
5120.233654,-248.853550,1359.123237,-9111.868461
5120.236242,3771.088418,-4383.651003,-11581.261384
5120.238830,-3043.670347,5034.498750,-8901.300072
5120.241418,1359.123237,1282.552914,-10279.565890
5120.244006,2488.535504,3885.943902,-8863.014910
5120.246593,-3062.812928,4709.074877,-8997.012976
5120.249181,1895.115499,-440.279358,-10298.708470
5120.251769,2297.109696,1091.127106,-9762.716208
5120.254357,-2316.252277,2679.961312,-9379.864592
5120.256944,1971.685822,1301.695494,-9724.431046
5120.259532,363.709035,-1301.695494,-10260.423309
5120.262120,-38.285162,3215.953574,-9188.438784
5120.264708,650.847747,2852.244539,-9667.003304
5120.267295,937.986459,2354.537438,-9552.147819
5120.269883,401.994197,2545.963246,-9054.440718
5120.272471,1301.695494,-1282.552914,-10011.569758
5120.275059,727.418070,382.851616,-9915.856854
5120.277646,191.425808,2660.818731,-9858.429112
5120.280234,1052.841944,-440.279358,-10183.852986
5120.282822,57.427742,5417.350366,-8595.018779
5120.285410,1435.693560,3483.949706,-9437.292334
5120.287998,-1244.267752,2545.963246,-9954.142016
5120.290585,1493.121302,2488.535504,-9571.290400
5120.293173,1263.410333,57.427742,-10222.138147
5120.295761,-382.851616,-1990.828403,-10298.708470
5120.298349,2277.967115,3120.240670,-8595.018779
5120.300937,-899.701298,2450.250342,-10011.569758
5120.303526,-497.707101,210.568389,-10336.993632
5120.306114,3120.240670,4517.649069,-8595.018779
5120.308703,-2584.248408,-2143.969050,-10796.415571
5120.311292,2086.541307,2469.392923,-8901.300072
5120.313880,1818.545176,-995.414202,-9705.288466
5120.316469,-784.845813,-3101.098090,-10662.417506
5120.319057,-172.283227,-363.709035,-9781.858789
5120.321646,2718.246474,-861.416136,-9762.716208
5120.324235,-3101.098090,153.140646,-9954.142016
5120.326823,2124.826469,-57.427742,-9552.147819
5120.329412,937.986459,1320.838075,-9743.573627
5120.332000,-727.418070,1282.552914,-10241.280728
5120.334589,1129.412267,-267.996131,-9169.296203
5120.337178,440.279358,-440.279358,-9667.003304
5120.339766,-95.712904,-2833.101958,-10279.565890
5120.342355,459.421939,823.130974,-9877.571693
5120.344943,1033.699363,306.281293,-10126.425243
5120.347532,344.566454,-382.851616,-9628.718142
5120.350121,593.420005,-306.281293,-9131.011042
5120.352709,440.279358,-1129.412267,-10088.140082
5120.355298,325.423874,-3407.379382,-10490.134278
5120.357886,1473.978722,-1607.976787,-9877.571693
5120.360475,-1875.972918,-957.129040,-9915.856854
5120.363064,1684.547110,-957.129040,-10088.140082
5120.365652,2373.680019,2833.101958,-8633.303941
5120.368241,-1933.400661,1741.974853,-10049.854920
5120.370829,1799.402595,-4000.799387,-10968.698798
5120.373418,689.132909,3541.377448,-7982.456194
5120.376007,133.998066,-3349.951640,-10872.985894
5120.378595,784.845813,1014.556782,-9533.005238
5120.381184,535.992262,4134.797453,-9533.005238
5120.383772,-1091.127106,1435.693560,-10432.706536
5120.386361,1359.123237,5321.637462,-8690.731683
5120.388950,1397.408398,4115.654872,-9188.438784
5120.391538,-746.560651,1110.269686,-9973.284597
5120.394127,497.707101,306.281293,-9781.858789
5120.396715,861.416136,-784.845813,-9992.427178
5120.399304,-535.992262,2009.970984,-9877.571693
5120.401893,1339.980656,3464.807125,-8729.016845
5120.404482,631.705166,957.129040,-10011.569758
5120.407071,-267.996131,2871.387120,-9858.429112
5120.409660,861.416136,1703.689691,-9877.571693
5120.412250,-133.998066,880.558717,-9762.716208
5120.414839,267.996131,803.988394,-9226.723946
5120.417428,1339.980656,2258.824534,-9801.001370
5120.420017,-133.998066,-669.990328,-10585.847182
5120.422607,-76.570323,6029.912952,-8690.731683
5120.425196,1091.127106,1780.260014,-9762.716208
5120.427785,-497.707101,3369.094221,-9609.575562
5120.430375,650.847747,4919.643266,-9035.298138
5120.432964,1435.693560,114.855485,-10183.852986
5120.435553,-899.701298,-267.996131,-10279.565890
5120.438142,2086.541307,1895.115499,-8805.587168
5120.440732,-1588.834206,497.707101,-9954.142016
5120.443321,-1531.406464,1531.406464,-10049.854920
5120.445910,3790.230998,4249.652938,-8614.161360
5120.448500,-1741.974853,-3043.670347,-10892.128475
5120.451089,727.418070,1914.258080,-9437.292334
5120.453678,2813.959378,-1627.119368,-9399.007173
5120.456267,-1512.263883,-2679.961312,-10451.849117
5120.458857,114.855485,-1091.127106,-10088.140082
5120.461446,2986.242605,-574.277424,-9801.001370
5120.464035,-2947.957443,-210.568389,-9992.427178
5120.466625,229.710970,-440.279358,-9934.999435
5120.469214,1454.836141,-267.996131,-9877.571693
5120.471803,-325.423874,1550.549045,-10011.569758
5120.474392,880.558717,19.142581,-9437.292334
5120.476982,976.271621,-823.130974,-9571.290400
5120.479571,-153.140646,-57.427742,-9781.858789
5120.482160,1205.982590,-267.996131,-10088.140082
5120.484749,746.560651,1225.125171,-9781.858789
5120.487339,-267.996131,114.855485,-9820.143950
5120.489928,995.414202,-1512.263883,-9303.294269
5120.492517,555.134843,-2124.826469,-10011.569758
5120.495107,669.990328,-2182.254211,-10413.563955
5120.497696,-880.558717,-1952.543242,-10202.995566
5120.500285,1837.687757,1741.974853,-9399.007173
5120.502874,-153.140646,-689.132909,-9820.143950
5120.505464,-191.425808,-133.998066,-9934.999435
5120.508024,918.843878,1052.841944,-9475.577496
5120.510584,-784.845813,-2316.252277,-10509.276859
5120.513144,-19.142581,1818.545176,-9169.296203
5120.515705,2679.961312,-1378.265818,-9609.575562
5120.518265,-1359.123237,3656.232933,-9475.577496
5120.520825,976.271621,1493.121302,-10298.708470
5120.523385,2316.252277,4287.938099,-9016.155557
5120.525945,-2679.961312,3503.092286,-9667.003304
5120.528506,1895.115499,267.996131,-9686.145885
5120.531066,2297.109696,1780.260014,-9016.155557
5120.533626,-2009.970984,1684.547110,-10088.140082
5120.536186,1378.265818,746.560651,-10068.997501
5120.538747,497.707101,-38.285162,-10088.140082
5120.541307,172.283227,2124.826469,-9839.286531
5120.543867,306.281293,3388.236802,-9169.296203
5120.546427,516.849682,2220.539373,-9647.860723
5120.548987,133.998066,287.138712,-10049.854920
5120.551548,612.562586,823.130974,-9399.007173
5120.554108,861.416136,1110.269686,-9513.862658
5120.556668,95.712904,516.849682,-10336.993632
5120.559228,727.418070,4019.941968,-9284.151688
5120.561788,363.709035,1282.552914,-9743.573627
5120.564349,-114.855485,5206.781978,-9992.427178
5120.566909,-421.136778,7082.754896,-8288.737486
5120.569469,1339.980656,1320.838075,-9781.858789
5120.572029,-708.275490,-1818.545176,-10604.989763
5120.574590,2220.539373,2163.111630,-9092.725880
5120.577150,-210.568389,1129.412267,-10011.569758
5120.579710,-1091.127106,1052.841944,-10202.995566
5120.582270,3330.809059,4192.225195,-8652.446522
5120.584830,-1914.258080,-2411.965181,-10738.987829
5120.587391,1550.549045,1799.402595,-9552.147819
5120.589951,1741.974853,-2373.680019,-9475.577496
5120.592511,689.132909,-2833.101958,-10566.704602
5120.595071,-823.130974,-172.283227,-9781.858789
5120.597632,2775.674216,-669.990328,-9590.432981
5120.600192,-1818.545176,1129.412267,-9858.429112
5120.602752,976.271621,-1741.974853,-10183.852986
5120.605312,631.705166,1052.841944,-9513.862658
5120.607872,421.136778,1359.123237,-10030.712339
5120.610437,1033.699363,631.705166,-9226.723946
5120.613002,1033.699363,-38.285162,-9552.147819
5120.615568,459.421939,-2947.957443,-10624.132344
5120.618133,-172.283227,2813.959378,-9169.296203
5120.620698,1071.984525,880.558717,-10260.423309
5120.623263,440.279358,-1186.840010,-9839.286531
5120.625828,440.279358,-229.710970,-8920.442653
5120.628393,823.130974,-3292.523898,-10470.991698
5120.630958,38.285162,-1205.982590,-10183.852986
5120.633523,612.562586,-555.134843,-9820.143950
5120.636088,-765.703232,-3120.240670,-10604.989763
5120.638653,2526.820666,-516.849682,-9590.432981
5120.641218,-918.843878,2718.246474,-9341.579430
5120.643783,478.564520,-2641.676150,-10872.985894
5120.646348,957.129040,3656.232933,-8365.307810
5120.648913,1837.687757,-3005.385186,-10643.274925
5120.651478,-1244.267752,1186.840010,-9552.147819
5120.654043,1952.543242,2373.680019,-9533.005238
5120.656608,-765.703232,3024.527766,-9877.571693
5120.659173,612.562586,4881.358104,-9169.296203
5120.661738,3464.807125,1493.121302,-9475.577496
5120.664304,-133.998066,2411.965181,-9303.294269
5120.666869,-210.568389,-172.283227,-9858.429112
5120.669434,1378.265818,-325.423874,-10049.854920
5120.671999,-153.140646,3943.371645,-9552.147819
5120.674564,459.421939,3962.514226,-8882.157491
5120.677129,401.994197,1205.982590,-9762.716208
5120.679694,306.281293,3311.666478,-9552.147819
5120.682259,535.992262,-1071.984525,-10183.852986
5120.684824,-38.285162,2411.965181,-9303.294269
5120.687389,1091.127106,1091.127106,-9456.434915
5120.689954,746.560651,-19.142581,-10068.997501
5120.692519,-344.566454,5302.494882,-9016.155557
5120.695084,306.281293,287.138712,-10336.993632
5120.697649,1416.550979,2641.676150,-9915.856854
5120.700214,-746.560651,7178.467800,-8537.591037
5120.702779,1531.406464,2469.392923,-9475.577496
5120.705344,-1225.125171,-478.564520,-9781.858789
5120.707909,2220.539373,2679.961312,-9169.296203
5120.710474,459.421939,-1971.685822,-10796.415571
5120.713043,-1703.689691,1971.685822,-9877.571693
5120.715612,3024.527766,4134.797453,-8537.591037
5120.718180,-1033.699363,-2967.100024,-10662.417506
5120.720749,306.281293,1952.543242,-9647.860723
5120.723318,1952.543242,-2258.824534,-9820.143950
5120.725886,2718.246474,-3445.664544,-10528.419440
5120.728455,-1588.834206,535.992262,-9513.862658
5120.731024,2297.109696,-708.275490,-9628.718142
5120.733592,-210.568389,2067.398726,-9647.860723
5120.736161,0.000000,-861.416136,-9992.427178
5120.738730,1129.412267,-918.843878,-10088.140082
5120.741298,325.423874,1473.978722,-9973.284597
5120.743867,727.418070,593.420005,-9131.011042
5120.746436,421.136778,1186.840010,-9303.294269
5120.749004,842.273555,-1110.269686,-10164.710405
5120.751573,459.421939,1320.838075,-9686.145885
5120.754142,574.277424,-1416.550979,-10700.702667
5120.756710,210.568389,287.138712,-9341.579430
5120.759279,1167.697429,-2507.678085,-9456.434915
5120.761847,478.564520,-1971.685822,-10279.565890
5120.764416,-1665.404530,-3445.664544,-10528.419440
5120.766985,2258.824534,-95.712904,-9552.147819
5120.769553,918.843878,765.703232,-9322.436850
5120.772122,-727.418070,-287.138712,-9954.142016
5120.774691,2431.107762,-631.705166,-10241.280728
5120.777259,957.129040,593.420005,-9609.575562
5120.779828,-1856.830338,-1607.976787,-10509.276859
5120.782397,2297.109696,-421.136778,-9092.725880
5120.784965,-267.996131,3732.803256,-9379.864592
5120.787534,-95.712904,555.134843,-10547.562021
5120.790103,2239.681954,4153.940034,-8863.014910
5120.792671,-1895.115499,3617.947771,-9801.001370
5120.795240,401.994197,95.712904,-10298.708470
5120.797809,2258.824534,1033.699363,-9073.583299
5120.800377,210.568389,2029.113565,-9934.999435
5120.802946,-497.707101,1148.554848,-10107.282662
5120.805515,1454.836141,344.566454,-9590.432981
5120.808083,497.707101,3847.658741,-9418.149754
5120.810652,95.712904,1263.410333,-9801.001370
5120.813220,746.560651,803.988394,-9801.001370
5120.815792,229.710970,1665.404530,-9533.005238
5120.818364,593.420005,440.279358,-9934.999435
5120.820936,287.138712,1148.554848,-9781.858789
5120.823508,650.847747,4211.367776,-8997.012976
5120.826079,-478.564520,1569.691626,-10145.567824
5120.828651,1263.410333,1378.265818,-10394.421374
5120.831223,38.285162,8173.882002,-8327.022648
5120.833795,1971.685822,2469.392923,-9437.292334
5120.836366,-1263.410333,-1205.982590,-10107.282662
5120.838938,2699.103893,1971.685822,-9016.155557
5120.841510,-153.140646,-153.140646,-10375.278794
5120.844082,-1320.838075,1339.980656,-10164.710405
5120.846653,3809.373579,4192.225195,-8690.731683
5120.849225,-306.281293,-2507.678085,-10432.706536
5120.851797,-76.570323,1301.695494,-9647.860723
5120.854369,1646.261949,-2048.256146,-9667.003304
5120.856941,459.421939,-2928.814862,-10547.562021
5120.859512,-899.701298,-95.712904,-9647.860723
5120.862084,2545.963246,-899.701298,-9552.147819
5120.864656,-1205.982590,-95.712904,-10088.140082
5120.867228,612.562586,-2392.822600,-10375.278794
5120.869799,0.000000,2297.109696,-9437.292334
5120.872371,440.279358,1761.117434,-9724.431046
5120.874943,823.130974,-765.703232,-9226.723946
5120.877515,497.707101,-497.707101,-9686.145885
5120.880086,19.142581,-191.425808,-10049.854920
5120.882658,1397.408398,1684.547110,-9724.431046
5120.885230,459.421939,-1263.410333,-10566.704602
5120.887802,-612.562586,1148.554848,-9016.155557
5120.890374,2029.113565,-3369.094221,-9667.003304
5120.892945,-803.988394,-1052.841944,-10260.423309
5120.895517,325.423874,-1646.261949,-10202.995566
5120.898089,287.138712,-4345.365842,-10432.706536
5120.900661,2029.113565,-1607.976787,-10068.997501
5120.903232,-1837.687757,2699.103893,-9418.149754
5120.905804,1684.547110,-1761.117434,-10547.562021
5120.908376,325.423874,4364.508422,-8441.878133
5120.910948,574.277424,-2718.246474,-10815.558152
5120.913519,76.570323,363.709035,-9360.722011
5120.916091,861.416136,2947.957443,-9245.866526
5120.918666,-650.847747,1148.554848,-10336.993632
5120.921240,-1359.123237,4938.785846,-9303.294269
5120.923814,3637.090352,2488.535504,-9571.290400
5120.926389,-612.562586,1703.689691,-9686.145885
5120.928963,363.709035,191.425808,-9667.003304
5120.931538,1110.269686,1282.552914,-9781.858789
5120.934112,-478.564520,2220.539373,-9992.427178
5120.936687,765.703232,803.988394,-9590.432981
5120.939261,1186.840010,2469.392923,-9590.432981
5120.941835,-210.568389,1071.984525,-9877.571693
5120.944410,1110.269686,2622.533570,-9360.722011
5120.946984,1129.412267,-133.998066,-10107.282662
5120.949559,555.134843,957.129040,-9781.858789
5120.952133,1033.699363,2450.250342,-9150.153622
5120.954707,-191.425808,899.701298,-10126.425243
5120.957282,918.843878,3330.809059,-9781.858789
5120.959856,267.996131,7886.743290,-8729.016845
5120.962431,1301.695494,1722.832272,-10030.712339
5120.965005,-689.132909,267.996131,-9820.143950
5120.967579,689.132909,1359.123237,-9092.725880
5120.970154,-1052.841944,1033.699363,-9973.284597
5120.972728,-1014.556782,803.988394,-10336.993632
5120.975303,3464.807125,4823.930362,-8403.592971
5120.977877,-2009.970984,-3024.527766,-10815.558152
5120.980452,1397.408398,2526.820666,-9226.723946
5120.983026,1952.543242,-823.130974,-9552.147819
5120.985600,-2526.820666,-2641.676150,-10719.845248
5120.988175,2201.396792,-612.562586,-9839.286531
5120.990749,1761.117434,-1110.269686,-9820.143950
5120.993324,-1818.545176,-3196.810994,-10528.419440
5120.995898,1895.115499,765.703232,-10241.280728
5120.998472,172.283227,3579.662610,-9111.868461
5121.001047,1550.549045,-440.279358,-10279.565890
5121.003621,-19.142581,114.855485,-9571.290400
5121.006196,19.142581,-2813.959378,-10107.282662
5121.008770,229.710970,-38.285162,-9513.862658
5121.011344,880.558717,2067.398726,-9954.142016
5121.013919,478.564520,-1071.984525,-10470.991698
5121.016493,172.283227,708.275490,-9284.151688
5121.019068,746.560651,-1933.400661,-9724.431046
5121.021618,-593.420005,-4728.217458,-10738.987829
5121.024168,1550.549045,306.281293,-9647.860723
5121.026718,-19.142581,-1225.125171,-9705.288466
5121.029269,1033.699363,-3637.090352,-10470.991698
5121.031819,-497.707101,2813.959378,-9322.436850
5121.034369,516.849682,-2258.824534,-10470.991698
5121.036919,382.851616,4536.791650,-8441.878133
5121.039470,2450.250342,-1014.556782,-10585.847182
5121.042020,-1588.834206,344.566454,-9781.858789
5121.044570,1875.972918,267.996131,-9954.142016
5121.047120,497.707101,2947.957443,-9781.858789
5121.049670,-2756.531635,3311.666478,-9571.290400
5121.052221,3617.947771,2469.392923,-9418.149754
5121.054771,-229.710970,2775.674216,-9628.718142
5121.057321,-631.705166,95.712904,-9934.999435
5121.059871,1186.840010,1684.547110,-9571.290400
5121.062422,-325.423874,1761.117434,-10107.282662
5121.064972,401.994197,229.710970,-9724.431046
5121.067522,976.271621,4134.797453,-9207.581365
5121.070072,306.281293,2852.244539,-9513.862658
5121.072623,267.996131,-497.707101,-9820.143950
5121.075173,689.132909,593.420005,-9743.573627
5121.077723,880.558717,1952.543242,-9801.001370
5121.080273,478.564520,-191.425808,-10107.282662
5121.082823,-76.570323,3426.521963,-9418.149754
5121.085374,669.990328,7159.325219,-9054.440718
5121.087924,1033.699363,2124.826469,-10164.710405
5121.090474,535.992262,2852.244539,-9628.718142
5121.093024,-133.998066,1397.408398,-8977.870395
5121.095575,95.712904,497.707101,-9954.142016
5121.098125,1531.406464,-1167.697429,-10356.136213
5121.100675,899.701298,1684.547110,-9590.432981
5121.103225,-344.566454,880.558717,-10107.282662
5121.105776,1780.260014,2201.396792,-8958.727814
5121.108326,1167.697429,-306.281293,-9781.858789
5121.110876,-2411.965181,-2469.392923,-10643.274925
5121.113426,3024.527766,-727.418070,-9571.290400
5121.115977,-172.283227,-842.273555,-9915.856854
5121.118527,-612.562586,-2201.396792,-10241.280728
5121.121077,1205.982590,2335.394858,-8863.014910
5121.123633,153.140646,114.855485,-9781.858789
5121.126189,650.847747,-2354.537438,-10872.985894
5121.128745,-153.140646,2067.398726,-9571.290400
5121.131301,708.275490,-650.847747,-9590.432981
5121.133857,937.986459,-1493.121302,-9954.142016
5121.136413,38.285162,1263.410333,-9628.718142
5121.138970,574.277424,899.701298,-9839.286531
5121.141526,976.271621,-937.986459,-10375.278794
5121.144082,114.855485,-382.851616,-9169.296203
5121.146638,-401.994197,-3809.373579,-9973.284597
5121.149194,1722.832272,382.851616,-9590.432981
5121.151750,-172.283227,-2641.676150,-10049.854920
5121.154306,1359.123237,-2871.387120,-10222.138147
5121.156862,401.994197,1014.556782,-9781.858789
5121.159418,-727.418070,-880.558717,-9743.573627
5121.161974,114.855485,3273.381317,-8863.014910
5121.164530,3235.096155,-861.416136,-10413.563955
5121.167087,-2411.965181,1741.974853,-9724.431046
5121.169643,1971.685822,1914.258080,-9456.434915
5121.172199,421.136778,1493.121302,-9877.571693
5121.174755,-2526.820666,3024.527766,-9571.290400
5121.177311,3732.803256,3292.523898,-9265.009107
5121.179867,1339.980656,3177.668413,-9475.577496
5121.182423,-746.560651,516.849682,-9992.427178
5121.184979,650.847747,1722.832272,-9360.722011
5121.187535,287.138712,2584.248408,-9667.003304
5121.190091,440.279358,-689.132909,-10222.138147
5121.192647,1071.984525,2450.250342,-9571.290400
5121.195203,-172.283227,1378.265818,-9954.142016
5121.197760,669.990328,-344.566454,-9801.001370
5121.200316,746.560651,1339.980656,-9456.434915
5121.202872,191.425808,1684.547110,-10011.569758
5121.205428,-153.140646,4498.506488,-9226.723946
5121.207984,1378.265818,1359.123237,-9513.862658
5121.210540,-612.562586,5245.067139,-9628.718142
5121.213096,1071.984525,5647.061336,-9303.294269
5121.215652,689.132909,-153.140646,-9858.429112
5121.218208,1167.697429,2507.678085,-8939.585234
5121.220764,-1014.556782,19.142581,-10145.567824
5121.223320,-57.427742,-1244.267752,-10356.136213
5121.225882,3024.527766,4709.074877,-8690.731683
5121.228443,-1550.549045,-1933.400661,-10585.847182
5121.231004,1665.404530,2086.541307,-9245.866526
5121.233566,1837.687757,-708.275490,-9437.292334
5121.236127,-1148.554848,-3943.371645,-10968.698798
5121.238689,765.703232,267.996131,-9533.005238
5121.241250,2124.826469,-593.420005,-9839.286531
5121.243811,-1244.267752,-3579.662610,-10719.845248
5121.246373,459.421939,1205.982590,-9265.009107
5121.248934,861.416136,3158.525832,-9207.581365
5121.251495,976.271621,-3388.236802,-11140.982026
5121.254057,-497.707101,-382.851616,-9724.431046
5121.256618,210.568389,-803.988394,-9609.575562
5121.259179,650.847747,-344.566454,-9877.571693
5121.261741,555.134843,2067.398726,-9667.003304
5121.264302,631.705166,-248.853550,-10145.567824
5121.266863,708.275490,-1703.689691,-9934.999435
5121.269425,-344.566454,-593.420005,-9513.862658
5121.271986,1129.412267,-708.275490,-9628.718142
5121.274548,803.988394,-5972.485210,-10796.415571
5121.277109,1148.554848,-2067.398726,-10068.997501
5121.279670,-2029.113565,1512.263883,-9781.858789
5121.282232,1435.693560,-1780.260014,-10317.851051
5121.284793,612.562586,5532.205851,-7925.028451
5121.287354,1225.125171,-555.134843,-10298.708470
5121.289916,-248.853550,248.853550,-10183.852986
5121.292477,842.273555,2354.537438,-9303.294269
5121.295038,-421.136778,267.996131,-10164.710405
5121.297600,1225.125171,4766.502619,-8633.303941
5121.300161,1167.697429,4096.512291,-9303.294269
5121.302722,-1607.976787,880.558717,-9743.573627
5121.305284,57.427742,0.000000,-10145.567824
5121.307825,1282.552914,2737.389054,-9303.294269
5121.310365,-172.283227,-669.990328,-10202.995566
5121.312906,76.570323,3215.953574,-9111.868461
5121.315447,1244.267752,3235.096155,-9456.434915
5121.317988,153.140646,-2029.113565,-10624.132344
5121.320529,363.709035,3483.949706,-9035.298138
5121.323069,708.275490,19.142581,-10068.997501
5121.325610,650.847747,612.562586,-9647.860723
5121.328151,153.140646,4211.367776,-8997.012976
5121.330692,497.707101,3024.527766,-9801.001370
5121.333233,306.281293,2986.242605,-9954.142016
5121.335773,535.992262,7082.754896,-8786.444587
5121.338314,-287.138712,-1110.269686,-10202.995566
5121.340855,2316.252277,1933.400661,-9188.438784
5121.343396,-612.562586,2182.254211,-9513.862658
5121.345937,-1052.841944,-2431.107762,-10930.413637
5121.348477,3522.234867,5053.641331,-8537.591037
5121.351018,-918.843878,-172.283227,-10030.712339
5121.353559,1014.556782,57.427742,-9896.714274
5121.356100,1378.265818,-727.418070,-9341.579430
5121.358641,-382.851616,-2641.676150,-10470.991698
5121.361181,133.998066,-516.849682,-9839.286531
5121.363722,1856.830338,-363.709035,-9647.860723
5121.366263,-593.420005,-3254.238736,-10509.276859
5121.368804,382.851616,344.566454,-9667.003304
5121.371345,1282.552914,3081.955509,-9226.723946
5121.373885,593.420005,-2124.826469,-10643.274925
5121.376426,-172.283227,344.566454,-9628.718142
5121.378967,440.279358,363.709035,-9399.007173
5121.381508,976.271621,-612.562586,-10298.708470
5121.384049,459.421939,899.701298,-9973.284597
5121.386589,631.705166,1684.547110,-9437.292334
5121.389130,880.558717,-2947.957443,-10394.421374
5121.391671,-823.130974,-2277.967115,-9858.429112
5121.394212,382.851616,-2928.814862,-9743.573627
5121.396753,1875.972918,-1818.545176,-9762.716208
5121.399293,727.418070,-2431.107762,-10432.706536
5121.401834,861.416136,248.853550,-10049.854920
5121.404375,-459.421939,133.998066,-9743.573627
5121.406916,-19.142581,2124.826469,-9705.288466
5121.409464,2833.101958,-497.707101,-9743.573627
5121.412012,-1761.117434,4115.654872,-9169.296203
5121.414560,1665.404530,-631.705166,-10470.991698
5121.417108,1378.265818,2220.539373,-9341.579430
5121.419656,-2909.672282,2737.389054,-9647.860723
5121.422204,3464.807125,1378.265818,-9801.001370
5121.424752,76.570323,4728.217458,-8805.587168
5121.427300,-478.564520,1435.693560,-9973.284597
5121.429848,-172.283227,1493.121302,-9762.716208
5121.432396,1110.269686,3062.812928,-9016.155557
5121.434944,306.281293,95.712904,-9992.427178
5121.437492,-114.855485,976.271621,-10011.569758
5121.440040,401.994197,1282.552914,-9762.716208
5121.442588,593.420005,823.130974,-9571.290400
5121.445136,344.566454,2239.681954,-9437.292334
5121.447684,76.570323,1454.836141,-9743.573627
5121.450232,784.845813,2143.969050,-9609.575562
5121.452780,-267.996131,4957.928427,-9533.005238
5121.455328,937.986459,5761.916821,-9571.290400
5121.457876,497.707101,344.566454,-9801.001370
5121.460424,1359.123237,3005.385186,-8690.731683
5121.462972,-1435.693560,918.843878,-9973.284597
5121.465520,306.281293,-2143.969050,-10432.706536
5121.468068,3024.527766,4498.506488,-8729.016845
5121.470616,-2297.109696,-1627.119368,-10777.272990
5121.473164,1799.402595,2009.970984,-9284.151688
5121.475712,1627.119368,306.281293,-9092.725880
5121.478260,-2009.970984,-3732.803256,-10930.413637
5121.480808,2086.541307,76.570323,-9552.147819
5121.483356,1837.687757,-382.851616,-9820.143950
5121.485904,-1186.840010,-3369.094221,-10662.417506
5121.488452,937.986459,2182.254211,-8786.444587
5121.491000,727.418070,-287.138712,-9954.142016
5121.493548,172.283227,-2105.683888,-10815.558152
5121.496096,-497.707101,765.703232,-9552.147819
5121.498644,823.130974,1627.119368,-9226.723946
5121.501192,937.986459,-1512.263883,-9992.427178
5121.503740,57.427742,2086.541307,-9399.007173
5121.506288,459.421939,-114.855485,-10222.138147
5121.508836,306.281293,-1263.410333,-10030.712339
5121.511391,1607.976787,172.283227,-8882.157491
5121.513945,-612.562586,-6317.051664,-10662.417506
5121.516500,1473.978722,-3445.664544,-10375.278794
5121.519054,-248.853550,2258.824534,-9303.294269
5121.521609,1990.828403,-1435.693560,-10681.560086
5121.524164,861.416136,2679.961312,-8920.442653
5121.526718,-1435.693560,1339.980656,-9915.856854
5121.529273,2163.111630,-1722.832272,-10126.425243
5121.531827,-803.988394,3388.236802,-9571.290400
5121.534382,612.562586,727.418070,-10241.280728
5121.536936,1799.402595,4287.938099,-8422.735552
5121.539491,-784.845813,3043.670347,-9743.573627
5121.542046,-708.275490,842.273555,-10011.569758
5121.544600,2469.392923,2048.256146,-9360.722011
5121.547155,-153.140646,2277.967115,-10049.854920
5121.549709,-727.418070,1110.269686,-9686.145885
5121.552264,1607.976787,3426.521963,-8729.016845
5121.554818,650.847747,784.845813,-10088.140082
5121.557373,-899.701298,1550.549045,-10107.282662
5121.559928,1320.838075,114.855485,-9839.286531
5121.562482,1416.550979,1148.554848,-9609.575562
5121.565037,-1512.263883,172.283227,-10317.851051
5121.567591,497.707101,2852.244539,-9226.723946
5121.570146,1301.695494,5245.067139,-9111.868461
5121.572700,-267.996131,3196.810994,-10356.136213
5121.575255,1301.695494,4096.512291,-9667.003304
5121.577810,-1684.547110,3483.949706,-8748.159426
5121.580364,1933.400661,593.420005,-9743.573627
5121.582919,1378.265818,-1205.982590,-10470.991698
5121.585473,-1646.261949,1493.121302,-9494.720077
5121.588028,114.855485,-861.416136,-10681.560086
5121.590582,937.986459,-210.568389,-9667.003304
5121.593137,-306.281293,1454.836141,-9016.155557
5121.595692,440.279358,-2737.389054,-10317.851051
5121.598246,2890.529701,-1837.687757,-10222.138147
5121.600801,-1397.408398,689.132909,-9341.579430
5121.603355,1550.549045,-803.988394,-9858.429112
5121.605910,899.701298,-1282.552914,-10202.995566
5121.608464,-957.129040,0.000000,-9341.579430
5121.611019,1282.552914,555.134843,-10202.995566
5121.613579,1761.117434,133.998066,-9820.143950
5121.616139,57.427742,-516.849682,-9705.288466
5121.618699,-325.423874,1569.691626,-9437.292334
5121.621259,765.703232,57.427742,-9973.284597
5121.623820,1225.125171,133.998066,-9743.573627
5121.626380,-612.562586,229.710970,-10088.140082
5121.628940,210.568389,-2718.246474,-10145.567824
5121.631500,1014.556782,-4785.645200,-10068.997501
5121.634060,555.134843,-2411.965181,-9973.284597
5121.636620,-114.855485,172.283227,-9743.573627
5121.639180,1780.260014,-325.423874,-10490.134278
5121.641740,-497.707101,1856.830338,-9322.436850
5121.644300,-861.416136,1493.121302,-9915.856854
5121.646861,3043.670347,-1186.840010,-9954.142016
5121.649421,-1320.838075,4230.510357,-9131.011042
5121.651981,1282.552914,172.283227,-10375.278794
5121.654541,1493.121302,2545.963246,-9399.007173
5121.657101,-2526.820666,2258.824534,-9609.575562
5121.659661,1493.121302,-267.996131,-10260.423309
5121.662221,2354.537438,3771.088418,-9111.868461
5121.664781,-1071.984525,1799.402595,-10068.997501
5121.667341,574.277424,2641.676150,-9609.575562
5121.669902,1607.976787,1741.974853,-9475.577496
5121.672462,-1148.554848,-459.421939,-9858.429112
5121.675022,1167.697429,1761.117434,-9609.575562
5121.677582,976.271621,631.705166,-10107.282662
5121.680142,401.994197,2124.826469,-9322.436850
5121.682702,210.568389,1378.265818,-9437.292334
5121.685262,803.988394,2029.113565,-9533.005238
5121.687822,-306.281293,5225.924558,-9207.581365
5121.690382,1110.269686,4498.506488,-9915.856854
5121.692942,957.129040,3388.236802,-9858.429112
5121.695503,-842.273555,3311.666478,-8633.303941
5121.698063,899.701298,1454.836141,-9513.862658
5121.700623,1933.400661,-3120.240670,-10872.985894
5121.703183,-535.992262,2488.535504,-9169.296203
5121.705743,746.560651,631.705166,-10164.710405
5121.708303,746.560651,-823.130974,-9877.571693
5121.710863,287.138712,842.273555,-9226.723946
5121.713423,-1569.691626,-3637.090352,-10892.128475
5121.715988,3503.092286,-957.129040,-9801.001370
5121.718552,-1110.269686,459.421939,-9571.290400
5121.721116,306.281293,-191.425808,-9743.573627
5121.723681,1435.693560,-1186.840010,-9705.288466
5121.726245,-1205.982590,-708.275490,-9590.432981
5121.728810,631.705166,1722.832272,-9762.716208
5121.731374,1416.550979,-803.988394,-10356.136213
5121.733938,-650.847747,1052.841944,-9552.147819
5121.736503,57.427742,478.564520,-9724.431046
5121.739067,650.847747,574.277424,-10030.712339
5121.741631,1263.410333,669.990328,-9590.432981
5121.744196,-401.994197,-2411.965181,-10394.421374
5121.746760,421.136778,0.000000,-9475.577496
5121.749325,765.703232,-4134.797453,-9686.145885
5121.751889,650.847747,-5876.772306,-10700.702667
5121.754453,-1703.689691,957.129040,-9781.858789
5121.757018,2641.676150,-1225.125171,-10547.562021
5121.759582,1684.547110,4728.217458,-8499.305875
5121.762146,57.427742,1607.976787,-9552.147819
5121.764711,153.140646,957.129040,-9533.005238
5121.767275,1052.841944,1703.689691,-9781.858789
5121.769839,-555.134843,382.851616,-10375.278794
5121.772404,1397.408398,3675.375514,-8709.874264
5121.774968,114.855485,3330.809059,-9437.292334
5121.777533,-1301.695494,669.990328,-9915.856854
5121.780097,2048.256146,1665.404530,-9475.577496
5121.782661,1665.404530,2603.390989,-9686.145885
5121.785226,-1378.265818,555.134843,-10030.712339
5121.787790,918.843878,3771.088418,-8671.589102
5121.790354,1761.117434,1244.267752,-9552.147819
5121.792919,-1052.841944,248.853550,-10126.425243
5121.795483,765.703232,861.416136,-9934.999435
5121.798048,784.845813,3196.810994,-9341.579430
5121.800612,-421.136778,-899.701298,-10088.140082
5121.803176,880.558717,4843.072942,-9150.153622
5121.805741,1359.123237,4096.512291,-9533.005238
5121.808305,1588.834206,2431.107762,-10470.991698
5121.810869,-2392.822600,3962.514226,-9265.009107
5121.813434,2335.394858,1512.263883,-8997.012976
5121.815998,1339.980656,-1167.697429,-10509.276859
5121.818566,-2067.398726,1033.699363,-9992.427178
5121.821135,1952.543242,995.414202,-9609.575562
5121.823703,-497.707101,-1244.267752,-10317.851051
5121.826271,1014.556782,114.855485,-10068.997501
5121.828839,1186.840010,-1014.556782,-9016.155557
5121.831408,-497.707101,-1933.400661,-10547.562021
5121.833976,-1014.556782,555.134843,-9877.571693
5121.836544,1301.695494,401.994197,-9341.579430
5121.839112,1167.697429,-2009.970984,-10432.706536
5121.841681,-593.420005,421.136778,-9284.151688
5121.844249,1339.980656,-440.279358,-9513.862658
5121.846817,459.421939,-1110.269686,-10777.272990
5121.849385,-287.138712,2431.107762,-9418.149754
5121.851953,1167.697429,306.281293,-9265.009107
5121.854522,478.564520,-612.562586,-9973.284597
5121.857090,631.705166,1473.978722,-9609.575562
5121.859658,421.136778,-880.558717,-10336.993632
5121.862226,421.136778,-3101.098090,-10107.282662
5121.864795,823.130974,-1722.832272,-8901.300072
5121.867363,880.558717,-5091.926493,-10356.136213
5121.869931,-1703.689691,-1091.127106,-10394.421374
5121.872499,2029.113565,133.998066,-10126.425243
5121.875068,1014.556782,3369.094221,-9016.155557
5121.877636,-1263.410333,1225.125171,-9858.429112
5121.880204,1531.406464,995.414202,-8977.870395
5121.882772,689.132909,1875.972918,-9762.716208
5121.885340,0.000000,-38.285162,-10566.704602
5121.887909,650.847747,4115.654872,-8786.444587
5121.890477,765.703232,2411.965181,-9628.718142
5121.893045,-1493.121302,1186.840010,-9801.001370
5121.895613,1818.545176,2392.822600,-9111.868461
5121.898182,459.421939,2450.250342,-10202.995566
5121.900750,-1148.554848,1397.408398,-10279.565890
5121.903318,1722.832272,3598.805190,-8518.448456
5121.905886,306.281293,-172.283227,-9954.142016
5121.908455,-612.562586,1071.984525,-10068.997501
5121.911023,1359.123237,1282.552914,-9724.431046
5121.913591,229.710970,880.558717,-10126.425243
5121.916159,861.416136,1627.119368,-9169.296203
5121.918727,669.990328,2584.248408,-9571.290400
5121.921298,38.285162,5953.342629,-9781.858789
5121.923869,650.847747,2431.107762,-9781.858789
5121.926440,937.986459,2718.246474,-9245.866526
5121.929011,-1244.267752,2775.674216,-9513.862658
5121.931582,937.986459,-2909.672282,-10241.280728
5121.934153,2297.109696,2775.674216,-9073.583299
5121.936723,-1531.406464,-1761.117434,-10853.843314
5121.939294,1186.840010,1531.406464,-8958.727814
5121.941865,1780.260014,593.420005,-9265.009107
5121.944436,-2507.678085,-2756.531635,-10700.702667
5121.947007,2852.244539,95.712904,-9303.294269
5121.949578,401.994197,-1033.699363,-10356.136213
5121.952148,-957.129040,-1129.412267,-10375.278794
5121.954719,1397.408398,918.843878,-8748.159426
5121.957290,-114.855485,-1799.402595,-10126.425243
5121.959861,937.986459,19.142581,-9934.999435
5121.962432,1091.127106,363.709035,-9762.716208
5121.965003,-535.992262,382.851616,-9992.427178
5121.967573,-191.425808,1856.830338,-9303.294269
5121.970144,1588.834206,57.427742,-9667.003304
5121.972715,267.996131,-842.273555,-10030.712339
5121.975286,344.566454,1071.984525,-9628.718142
5121.977857,708.275490,-4402.793584,-10126.425243
5121.980428,880.558717,-5283.352301,-10126.425243
5121.982999,-880.558717,95.712904,-9284.151688
5121.985569,2679.961312,-1052.841944,-10490.134278
5121.988140,0.000000,2086.541307,-9820.143950
5121.990711,-1473.978722,2909.672282,-9667.003304
5121.993282,1895.115499,-401.994197,-9667.003304
5121.995853,133.998066,3215.953574,-9188.438784
5121.998424,-229.710970,-325.423874,-10643.274925
5122.000994,2220.539373,3024.527766,-9092.725880
5122.003565,-2029.113565,2928.814862,-9839.286531
5122.006136,1167.697429,-172.283227,-10030.712339
5122.008707,1818.545176,2660.818731,-9016.155557
5122.011278,-631.705166,2105.683888,-9954.142016
5122.013849,880.558717,2909.672282,-9513.862658
5122.016419,765.703232,1205.982590,-9954.142016
5122.018990,153.140646,-382.851616,-9896.714274
5122.021561,-842.273555,1493.121302,-9226.723946
5122.024134,1435.693560,1205.982590,-9820.143950
5122.026708,-133.998066,1454.836141,-10107.282662
5122.029281,574.277424,2277.967115,-9322.436850
5122.031854,574.277424,3369.094221,-9475.577496
5122.034427,306.281293,4498.506488,-9475.577496
5122.037000,1646.261949,4096.512291,-9418.149754
5122.039574,-669.990328,3751.945837,-9513.862658
5122.042147,267.996131,2239.681954,-9245.866526
5122.044720,899.701298,-2488.535504,-10107.282662
5122.047293,2545.963246,2067.398726,-9341.579430
5122.049866,-1550.549045,-1186.840010,-10490.134278
5122.052439,1263.410333,-95.712904,-9379.864592
5122.055013,248.853550,325.423874,-9954.142016
5122.057586,-1110.269686,-2373.680019,-10049.854920
5122.060159,3043.670347,-1071.984525,-9475.577496
5122.062732,-957.129040,76.570323,-10011.569758
5122.065305,325.423874,172.283227,-10202.995566
5122.067879,1397.408398,-1186.840010,-9571.290400
5122.070452,114.855485,-38.285162,-9781.858789
5122.073025,344.566454,19.142581,-9590.432981
5122.075598,918.843878,957.129040,-9647.860723
5122.078171,535.992262,-76.570323,-10126.425243
5122.080745,612.562586,1359.123237,-9513.862658
5122.083318,-95.712904,-363.709035,-9609.575562
5122.085891,708.275490,-937.986459,-9724.431046
5122.088464,842.273555,-95.712904,-10030.712339
5122.091037,-114.855485,-650.847747,-9456.434915
5122.093611,1665.404530,-5742.774240,-10298.708470
5122.096184,-1799.402595,-1033.699363,-9858.429112
5122.098757,2029.113565,-1435.693560,-10451.849117
5122.101330,1703.689691,3847.658741,-8977.870395
5122.103903,-1512.263883,2545.963246,-9590.432981
5122.106477,1320.838075,-325.423874,-9820.143950
5122.109050,344.566454,3196.810994,-9054.440718
5122.111623,-153.140646,899.701298,-10356.136213
5122.114196,2182.254211,2258.824534,-9379.864592
5122.116769,727.418070,3158.525832,-9284.151688
5122.119342,-1569.691626,1301.695494,-9781.858789
5122.121916,2411.965181,765.703232,-9475.577496
5122.124489,38.285162,3292.523898,-9513.862658
5122.127064,-899.701298,2813.959378,-9877.571693
5122.129639,2258.824534,1091.127106,-9705.288466
5122.132214,-650.847747,1129.412267,-9628.718142
5122.134790,-957.129040,1071.984525,-9360.722011
5122.137365,3081.955509,-248.853550,-9915.856854
5122.139940,-1952.543242,2124.826469,-10088.140082
5122.142515,-2201.396792,4402.793584,-9245.866526
5122.145091,2756.531635,3694.518094,-9073.583299
5122.147666,746.560651,4957.928427,-9322.436850
5122.150241,-2909.672282,2316.252277,-10164.710405
5122.152816,3598.805190,1875.972918,-9456.434915
5122.155391,133.998066,3445.664544,-9418.149754
5122.157967,-2392.822600,-1052.841944,-10241.280728
5122.160542,4173.082614,2201.396792,-9016.155557
5122.163117,-2297.109696,-3579.662610,-10700.702667
5122.165692,1378.265818,1071.984525,-9667.003304
5122.168267,1531.406464,-669.990328,-9188.438784
5122.170843,-689.132909,-1531.406464,-10068.997501
5122.173418,765.703232,19.142581,-9762.716208
5122.175993,1875.972918,-325.423874,-9801.001370
5122.178568,-325.423874,-1990.828403,-10738.987829
5122.181143,-95.712904,191.425808,-9513.862658
5122.183719,976.271621,-1895.115499,-9858.429112
5122.186294,880.558717,-38.285162,-9992.427178
5122.188869,38.285162,669.990328,-9915.856854
5122.191444,669.990328,823.130974,-9877.571693
5122.194019,478.564520,-516.849682,-9915.856854
5122.196595,248.853550,765.703232,-9360.722011
5122.199170,593.420005,-823.130974,-10088.140082
5122.201745,535.992262,-3445.664544,-10528.419440
5122.204320,823.130974,-4517.649069,-9820.143950
5122.206895,-421.136778,-459.421939,-9418.149754
5122.209471,1799.402595,-1359.123237,-10356.136213
5122.212046,-459.421939,535.992262,-9877.571693
5122.214621,-1148.554848,2622.533570,-9973.284597
5122.217196,2354.537438,-631.705166,-9954.142016
5122.219771,-727.418070,3254.238736,-9035.298138
5122.222347,612.562586,842.273555,-10279.565890
5122.224922,2718.246474,2584.248408,-9437.292334
5122.227497,-2718.246474,3177.668413,-9628.718142
5122.230054,2718.246474,153.140646,-9896.714274
5122.232608,1071.984525,2469.392923,-9399.007173
5122.235163,-1186.840010,1875.972918,-9743.573627
5122.237717,1110.269686,2526.820666,-9437.292334
5122.240272,421.136778,2909.672282,-9628.718142
5122.242826,133.998066,1167.697429,-9552.147819
5122.245381,1186.840010,133.998066,-9399.007173
5122.247935,631.705166,574.277424,-10030.712339
5122.250490,-401.994197,1780.260014,-10011.569758
5122.253044,784.845813,2967.100024,-9609.575562
5122.255599,708.275490,3694.518094,-9092.725880
5122.258154,248.853550,3828.516160,-9590.432981
5122.260708,-727.418070,2411.965181,-9992.427178
5122.263263,2603.390989,2794.816797,-9475.577496
5122.265817,1110.269686,1129.412267,-9858.429112
5122.268372,-2411.965181,153.140646,-9705.288466
5122.270926,3732.803256,1856.830338,-9092.725880
5122.273481,-1014.556782,-2986.242605,-10643.274925
5122.276035,1205.982590,-344.566454,-10202.995566
5122.278590,1359.123237,-287.138712,-9360.722011
5122.281144,-1971.685822,-1818.545176,-10222.138147
5122.283699,1990.828403,172.283227,-9513.862658
5122.286253,1454.836141,-612.562586,-10068.997501
5122.288808,-1263.410333,-1033.699363,-10451.849117
5122.291363,-842.273555,-401.994197,-9571.290400
5122.293917,1435.693560,-2699.103893,-10049.854920
5122.296472,210.568389,-114.855485,-10030.712339
5122.299026,-191.425808,1167.697429,-9705.288466
5122.301581,1110.269686,1627.119368,-9647.860723
5122.304135,-306.281293,-114.855485,-9877.571693
5122.306690,-153.140646,-38.285162,-9647.860723
5122.309244,2009.970984,-937.986459,-9915.856854
5122.311799,-57.427742,-2756.531635,-10279.565890
5122.314353,1033.699363,-4326.223261,-9705.288466
5122.316908,-1665.404530,-1033.699363,-9820.143950
5122.319462,1837.687757,-1646.261949,-10490.134278
5122.322017,2048.256146,3101.098090,-8920.442653
5122.324572,-2029.113565,2067.398726,-9973.284597
5122.327126,1646.261949,267.996131,-9915.856854
5122.329681,287.138712,3120.240670,-9303.294269
5122.332240,-287.138712,823.130974,-10145.567824
5122.334799,1091.127106,3541.377448,-9226.723946
5122.337358,267.996131,2871.387120,-9513.862658
5122.339917,-899.701298,1263.410333,-9705.288466
5122.342476,2029.113565,899.701298,-9533.005238
5122.345035,57.427742,2871.387120,-9647.860723
5122.347594,-421.136778,2565.105827,-9628.718142
5122.350153,1129.412267,2316.252277,-9724.431046
5122.352712,1397.408398,-363.709035,-9781.858789
5122.355271,-1263.410333,612.562586,-9513.862658
5122.357830,899.701298,1244.267752,-9877.571693
5122.360389,1129.412267,1244.267752,-10260.423309
5122.362948,-937.986459,4689.932296,-8977.870395
5122.365507,1359.123237,3637.090352,-9494.720077
5122.368066,708.275490,3330.809059,-9628.718142
5122.370625,440.279358,4153.940034,-9169.296203
5122.373184,-689.132909,2986.242605,-9839.286531
5122.375743,2048.256146,-1895.115499,-10260.423309
5122.378302,3732.803256,2775.674216,-8767.302006
5122.380861,-2220.539373,-2756.531635,-10796.415571
5122.383420,899.701298,880.558717,-9131.011042
5122.385979,689.132909,-440.279358,-10030.712339
5122.388538,-1646.261949,-3254.238736,-10758.130410
5122.391097,2871.387120,-440.279358,-9150.153622
5122.393656,-861.416136,153.140646,-9839.286531
5122.396215,229.710970,631.705166,-9858.429112
5122.398774,2143.969050,-1186.840010,-9686.145885
5122.401333,229.710970,382.851616,-9743.573627
5122.403892,-363.709035,344.566454,-9801.001370
5122.406451,1684.547110,689.132909,-9494.720077
5122.409011,669.990328,-248.853550,-10164.710405
5122.411570,-229.710970,1588.834206,-9571.290400
5122.414129,669.990328,57.427742,-9456.434915
5122.416688,1550.549045,-2967.100024,-10451.849117
5122.419247,-19.142581,-823.130974,-9571.290400
5122.421806,401.994197,-6029.912952,-10298.708470
5122.424365,593.420005,-1014.556782,-9781.858789
5122.426924,1914.258080,287.138712,-9762.716208
5122.429483,1378.265818,1320.838075,-9590.432981
5122.432042,-1818.545176,2411.965181,-10107.282662
5122.434605,2048.256146,267.996131,-9456.434915
5122.437168,-880.558717,3081.955509,-9226.723946
5122.439731,1052.841944,1627.119368,-10183.852986
5122.442294,2335.394858,2775.674216,-8939.585234
5122.444857,-3235.096155,1875.972918,-9992.427178
5122.447420,2928.814862,574.277424,-10183.852986
5122.449983,899.701298,3081.955509,-8977.870395
5122.452546,-746.560651,2239.681954,-10068.997501
5122.455109,784.845813,2928.814862,-9533.005238
5122.457673,1550.549045,3005.385186,-9092.725880
5122.460236,-612.562586,191.425808,-10222.138147
5122.462799,516.849682,440.279358,-9494.720077
5122.465362,1110.269686,1780.260014,-9533.005238
5122.467925,-191.425808,401.994197,-10643.274925
5122.470488,631.705166,4096.512291,-8997.012976
5122.473051,727.418070,5034.498750,-8997.012976
5122.475614,267.996131,1646.261949,-10279.565890
5122.478177,1263.410333,4077.369710,-8977.870395
5122.480740,-1473.978722,4173.082614,-9437.292334
5122.483303,995.414202,-2718.246474,-10681.560086
5122.485866,2641.676150,2641.676150,-8518.448456
5122.488429,-1397.408398,-1512.263883,-10509.276859
5122.490993,803.988394,-1493.121302,-9896.714274
5122.493556,574.277424,669.990328,-9475.577496
5122.496119,-229.710970,-2545.963246,-10413.563955
5122.498682,2565.105827,-2029.113565,-9437.292334
5122.501245,-401.994197,689.132909,-9628.718142
5122.503808,-1320.838075,-421.136778,-10298.708470
5122.506371,2756.531635,-1703.689691,-9743.573627
5122.508934,-669.990328,2201.396792,-8901.300072
5122.511497,-325.423874,-3177.668413,-10604.989763
5122.514060,1607.976787,957.129040,-9762.716208
5122.516626,-593.420005,1282.552914,-9667.003304
5122.519192,172.283227,-689.132909,-9762.716208
5122.521758,0.000000,497.707101,-9590.432981
5122.524325,727.418070,-2297.109696,-10241.280728
5122.526891,612.562586,-2431.107762,-9781.858789
5122.529457,1205.982590,-4039.084549,-9801.001370
5122.532023,-1607.976787,-2182.254211,-10202.995566
5122.534589,1780.260014,-1550.549045,-10145.567824
5122.537155,1895.115499,3598.805190,-8939.585234
5122.539721,-1990.828403,1531.406464,-10183.852986
5122.542287,1186.840010,1569.691626,-9322.436850
5122.544853,421.136778,2679.961312,-9341.579430
5122.547419,-19.142581,535.992262,-10451.849117
5122.549986,1339.980656,3177.668413,-9226.723946
5122.552552,38.285162,3101.098090,-9418.149754
5122.555118,-765.703232,861.416136,-10107.282662
5122.557684,2469.392923,1837.687757,-9226.723946
5122.560250,-363.709035,2220.539373,-9877.571693
5122.562816,-574.277424,2354.537438,-9934.999435
5122.565382,1799.402595,3943.371645,-9092.725880
5122.567948,344.566454,-708.275490,-10088.140082
5122.570514,-631.705166,363.709035,-9686.145885
5122.573080,1512.263883,2163.111630,-9647.860723
5122.575646,976.271621,1052.841944,-10356.136213
5122.578213,-153.140646,4096.512291,-9245.866526
5122.580779,1435.693560,6068.198114,-9035.298138
5122.583345,-2182.254211,2048.256146,-9915.856854
5122.585911,2316.252277,2660.818731,-9533.005238
5122.588477,555.134843,2909.672282,-9781.858789
5122.591043,-2067.398726,-1148.554848,-10164.710405
5122.593609,3694.518094,2909.672282,-8652.446522
5122.596175,-1703.689691,-3885.943902,-10796.415571
5122.598741,612.562586,57.427742,-9896.714274
5122.601307,1856.830338,-1167.697429,-9609.575562
5122.603873,-842.273555,-2297.109696,-10470.991698
5122.606440,306.281293,880.558717,-9360.722011
5122.609006,2335.394858,-114.855485,-9820.143950
5122.611572,-382.851616,-1722.832272,-10662.417506
5122.614138,-153.140646,-1454.836141,-9743.573627
5122.616704,1799.402595,-976.271621,-9839.286531
5122.619270,-440.279358,-918.843878,-10145.567824
5122.621836,-440.279358,2163.111630,-9456.434915
5122.624402,1397.408398,133.998066,-9801.001370
5122.626968,421.136778,1339.980656,-9188.438784
5122.629534,-57.427742,-2392.822600,-10470.991698
5122.632101,1110.269686,-1129.412267,-9954.142016
5122.634667,363.709035,-4153.940034,-9934.999435
5122.637233,-306.281293,-1703.689691,-9667.003304
5122.639801,2048.256146,-1473.978722,-10183.852986
5122.642370,-267.996131,-38.285162,-9647.860723
5122.644938,-1339.980656,4058.227130,-9609.575562
5122.647507,3732.803256,-2277.967115,-9781.858789
5122.650075,-995.414202,4173.082614,-8729.016845
5122.652644,823.130974,1129.412267,-10413.563955
5122.655213,2775.674216,2450.250342,-9073.583299
5122.657781,-3062.812928,2488.535504,-9705.288466
5122.660350,2565.105827,727.418070,-10183.852986
5122.662918,1263.410333,2469.392923,-9131.011042
5122.665487,-1397.408398,2182.254211,-9552.147819
5122.668055,1339.980656,1665.404530,-9781.858789
5122.670624,708.275490,1397.408398,-9973.284597
5122.673192,-1263.410333,1148.554848,-9934.999435
5122.675761,-19.142581,0.000000,-9686.145885
5122.678330,1129.412267,3732.803256,-9035.298138
5122.680898,-325.423874,-38.285162,-10681.560086
5122.683467,172.283227,4900.500685,-9322.436850
5122.686035,1473.978722,4421.936165,-9073.583299
5122.688604,-1454.836141,2067.398726,-10088.140082
5122.691172,2124.826469,3617.947771,-9150.153622
5122.693741,-516.849682,3713.660675,-9418.149754
5122.696309,-1914.258080,-593.420005,-10413.563955
5122.698878,3751.945837,2182.254211,-8824.729749
5122.701447,-1129.412267,-4441.078746,-10700.702667
5122.704015,1071.984525,248.853550,-10049.854920
5122.706584,2048.256146,-1052.841944,-9456.434915
5122.709152,-2143.969050,-1225.125171,-10126.425243
5122.711721,1952.543242,153.140646,-9724.431046
5122.714289,2029.113565,-459.421939,-9877.571693
5122.716858,-1741.974853,-1186.840010,-10241.280728
5122.719426,1914.258080,-1167.697429,-9781.858789
5122.721998,2067.398726,-382.851616,-9399.007173
5122.724569,-306.281293,727.418070,-9973.284597
5122.727140,-401.994197,574.277424,-9973.284597
5122.729711,1569.691626,267.996131,-9571.290400
5122.732282,-516.849682,-306.281293,-9667.003304
5122.734853,306.281293,-2890.529701,-10183.852986
5122.737424,1837.687757,-2220.539373,-10068.997501
5122.739995,114.855485,-3464.807125,-10241.280728
5122.742567,-478.564520,-1895.115499,-9877.571693
5122.745138,2967.100024,-937.986459,-10068.997501
5122.747709,1435.693560,2775.674216,-9188.438784
5122.750280,-1741.974853,765.703232,-10394.421374
5122.752851,1359.123237,1837.687757,-9341.579430
5122.755422,-19.142581,3005.385186,-9437.292334
5122.757993,631.705166,708.275490,-10413.563955
5122.760564,1282.552914,4230.510357,-8614.161360
5122.763135,-689.132909,2258.824534,-10011.569758
5122.765707,19.142581,861.416136,-10088.140082
5122.768278,2163.111630,2852.244539,-8652.446522
5122.770849,-363.709035,1186.840010,-10241.280728
5122.773420,191.425808,2507.678085,-9513.862658
5122.775991,1435.693560,3330.809059,-9111.868461
5122.778562,-153.140646,76.570323,-10260.423309
5122.781133,784.845813,612.562586,-9494.720077
5122.783704,1052.841944,1895.115499,-9705.288466
5122.786276,-401.994197,2679.961312,-9877.571693
5122.788847,842.273555,4249.652938,-9265.009107
5122.791418,937.986459,3120.240670,-9801.001370
5122.793989,248.853550,4345.365842,-9188.438784
5122.796560,-535.992262,4613.361973,-9092.725880
5122.799131,1741.974853,-1167.697429,-10470.991698
5122.801702,-114.855485,363.709035,-9647.860723
5122.804273,593.420005,325.423874,-9609.575562
5122.806845,-210.568389,-2947.957443,-10202.995566
5122.809416,650.847747,-650.847747,-9820.143950
5122.811987,-229.710970,-2124.826469,-10164.710405
5122.814558,2297.109696,-1282.552914,-9820.143950
5122.817129,-899.701298,612.562586,-9724.431046
5122.819700,650.847747,1665.404530,-9303.294269
5122.822271,2182.254211,-306.281293,-9992.427178
5122.824844,-1493.121302,-1971.685822,-9877.571693
5122.827417,1091.127106,-2431.107762,-10011.569758
5122.829989,1071.984525,2316.252277,-9781.858789
5122.832562,-76.570323,4268.795518,-9686.145885
5122.835135,-95.712904,-1416.550979,-9647.860723
5122.837707,1071.984525,19.142581,-9456.434915
5122.840280,842.273555,-1741.974853,-9934.999435
5122.842852,287.138712,-5876.772306,-10834.700733
5122.845425,-210.568389,-842.273555,-9647.860723
5122.847998,1875.972918,-440.279358,-9628.718142
5122.850570,-1205.982590,-1799.402595,-10030.712339
5122.853143,-574.277424,4058.227130,-9399.007173
5122.855716,3885.943902,-1741.974853,-10834.700733
5122.858288,-1933.400661,4938.785846,-8786.444587
5122.860861,1856.830338,1818.545176,-10030.712339
5122.863434,1263.410333,2488.535504,-9150.153622
5122.866006,-2526.820666,2469.392923,-9915.856854
5122.868579,3369.094221,1359.123237,-10088.140082
5122.871152,-574.277424,2526.820666,-9628.718142
5122.873724,-612.562586,1033.699363,-9858.429112
5122.876297,2641.676150,1148.554848,-9628.718142
5122.878869,-669.990328,1378.265818,-9934.999435
5122.881442,-210.568389,2392.822600,-9494.720077
5122.884015,1033.699363,1282.552914,-9360.722011
5122.886587,382.851616,3522.234867,-8977.870395
5122.889160,-19.142581,-478.564520,-10872.985894
5122.891733,267.996131,6680.760699,-8958.727814
5122.894305,1914.258080,3885.943902,-9131.011042
5122.896878,-1569.691626,3101.098090,-9801.001370
5122.899451,842.273555,5245.067139,-8958.727814
5122.902023,2411.965181,574.277424,-9820.143950
5122.904596,-2679.961312,-382.851616,-10107.282662
5122.907169,306.281293,574.277424,-9647.860723
5122.909741,363.709035,-4268.795518,-10260.423309
5122.912314,325.423874,-325.423874,-10011.569758
5122.914886,842.273555,-1282.552914,-9686.145885
5122.917459,784.845813,-1071.984525,-9992.427178
5122.920032,-1244.267752,708.275490,-9992.427178
5122.922604,1741.974853,918.843878,-9322.436850
5122.925177,114.855485,-1378.265818,-10356.136213
5122.927751,-516.849682,-2182.254211,-10068.997501
5122.930325,1569.691626,421.136778,-9150.153622
5122.932899,1588.834206,497.707101,-10202.995566
5122.935473,-880.558717,1320.838075,-10107.282662
5122.938047,555.134843,-650.847747,-9705.288466
5122.940621,1071.984525,-593.420005,-9475.577496
5122.943195,95.712904,-2354.537438,-9839.286531
5122.945769,765.703232,-4115.654872,-10509.276859
5122.948343,-382.851616,-1741.974853,-10030.712339
5122.950916,1550.549045,-1167.697429,-9705.288466
5122.953490,-1244.267752,-1703.689691,-9934.999435
5122.956064,-708.275490,3885.943902,-9418.149754
5122.958638,4153.940034,-650.847747,-10049.854920
5122.961212,-1895.115499,5876.772306,-8805.587168
5122.963786,1416.550979,1703.689691,-10126.425243
5122.966360,1665.404530,2277.967115,-8939.585234
5122.968934,-2450.250342,2354.537438,-9628.718142
5122.971508,3062.812928,1493.121302,-10030.712339
5122.974082,57.427742,2545.963246,-9552.147819
5122.976656,-344.566454,1282.552914,-9724.431046
5122.979230,2029.113565,1378.265818,-9781.858789
5122.981804,-325.423874,1684.547110,-9609.575562
5122.984378,-1091.127106,1971.685822,-9705.288466
5122.986952,1703.689691,-76.570323,-10107.282662
5122.989526,1186.840010,1875.972918,-9360.722011
5122.992100,-727.418070,3158.525832,-9686.145885
5122.994674,1244.267752,3809.373579,-9839.286531
5122.997247,574.277424,3694.518094,-9322.436850
5122.999821,382.851616,4153.940034,-9322.436850
5123.002395,-669.990328,4919.643266,-9590.432981
5123.004969,2584.248408,-535.992262,-10011.569758
5123.007543,2679.961312,2277.967115,-9016.155557
5123.010117,-823.130974,-2201.396792,-10719.845248
5123.012691,229.710970,-1684.547110,-9456.434915
5123.015265,631.705166,-1416.550979,-9954.142016
5123.017839,516.849682,-3024.527766,-10547.562021
5123.020413,2029.113565,-114.855485,-9341.579430
5123.022987,-1205.982590,1110.269686,-9705.288466
5123.025561,1397.408398,1263.410333,-9571.290400
5123.028135,1684.547110,153.140646,-9667.003304
5123.030710,-1244.267752,-2124.826469,-10088.140082
5123.033285,325.423874,-1167.697429,-9839.286531
5123.035860,1435.693560,1531.406464,-9724.431046
5123.038435,-1205.982590,363.709035,-10317.851051
5123.041010,1148.554848,1186.840010,-8939.585234
5123.043585,1071.984525,-2411.965181,-9801.001370
5123.046161,133.998066,-3924.229064,-10509.276859
5123.048736,1473.978722,-2507.678085,-9839.286531
5123.051311,-1722.832272,-3617.947771,-10509.276859
5123.053886,2182.254211,-1359.123237,-9973.284597
5123.056461,1550.549045,5015.356170,-8116.454259
5123.059036,-248.853550,325.423874,-10490.134278
5123.061611,248.853550,3043.670347,-9571.290400
5123.064186,574.277424,3694.518094,-9265.009107
5123.066761,-95.712904,555.134843,-10356.136213
5123.069337,2009.970984,3369.094221,-8729.016845
5123.071912,-2316.252277,2182.254211,-9590.432981
5123.074487,1244.267752,765.703232,-10317.851051
5123.077062,2316.252277,2718.246474,-9054.440718
5123.079637,-1110.269686,2163.111630,-9743.573627
5123.082212,-976.271621,1569.691626,-10030.712339
5123.084787,1588.834206,2163.111630,-9188.438784
5123.087362,-95.712904,1416.550979,-9475.577496
5123.089937,0.000000,-612.562586,-10011.569758
5123.092513,1186.840010,3483.949706,-9494.720077
5123.095088,-363.709035,3139.383251,-9743.573627
5123.097663,1550.549045,3349.951640,-9513.862658
5123.100238,-1799.402595,6125.625856,-8939.585234
5123.102813,1875.972918,2105.683888,-9781.858789
5123.105388,1110.269686,3005.385186,-9839.286531
5123.107963,-2277.967115,899.701298,-9513.862658
5123.110538,1282.552914,-421.136778,-9705.288466
5123.113113,440.279358,-4211.367776,-10547.562021
5123.115689,746.560651,803.988394,-9513.862658
5123.118264,1569.691626,-2277.967115,-9705.288466
5123.120839,-1091.127106,-2163.111630,-10719.845248
5123.123414,746.560651,1301.695494,-9284.151688
5123.125989,2086.541307,153.140646,-9686.145885
5123.128564,-842.273555,-1148.554848,-10700.702667
5123.131139,1110.269686,497.707101,-9322.436850
5123.133715,823.130974,-2239.681954,-9992.427178
5123.136291,708.275490,76.570323,-10030.712339
5123.138868,57.427742,2526.820666,-9647.860723
5123.141444,1550.549045,-2258.824534,-10662.417506
5123.144020,-114.855485,555.134843,-8901.300072
5123.146596,1416.550979,-3598.805190,-9801.001370
5123.149172,535.992262,-4345.365842,-11045.269122
5123.151748,-1110.269686,-1761.117434,-9992.427178
5123.154324,2699.103893,-1033.699363,-10011.569758
5123.156901,1875.972918,2029.113565,-9245.866526
5123.159477,-2335.394858,2679.961312,-9628.718142
5123.162053,1933.400661,995.414202,-9743.573627
5123.164629,-344.566454,3732.803256,-9801.001370
5123.167205,689.132909,1761.117434,-9973.284597
5123.169781,1627.119368,3062.812928,-8786.444587
5123.172357,-1646.261949,1263.410333,-10030.712339
5123.174934,784.845813,1933.400661,-9705.288466
5123.177510,2258.824534,2737.389054,-9188.438784
5123.180086,-516.849682,1359.123237,-10298.708470
5123.182662,440.279358,3215.953574,-8939.585234
5123.185238,1301.695494,3043.670347,-9303.294269
5123.187814,153.140646,-1014.556782,-10470.991698
5123.190390,210.568389,1588.834206,-9265.009107
5123.192967,1205.982590,1818.545176,-9896.714274
5123.195543,191.425808,3598.805190,-9552.147819
5123.198119,1167.697429,4000.799387,-9092.725880
5123.200695,-267.996131,5532.205851,-9245.866526
5123.203271,153.140646,4536.791650,-9590.432981
5123.205847,2469.392923,287.138712,-10088.140082
5123.208423,-2565.105827,421.136778,-9934.999435
5123.211000,1569.691626,-229.710970,-9686.145885
5123.213576,0.000000,-3847.658741,-10183.852986
5123.216152,401.994197,-440.279358,-9934.999435
5123.218728,574.277424,-2411.965181,-10145.567824
5123.221304,937.986459,-1244.267752,-10049.854920
5123.223880,-995.414202,1091.127106,-9839.286531
5123.226456,1952.543242,1129.412267,-9341.579430
5123.229033,191.425808,-133.998066,-10183.852986
5123.231609,-880.558717,-1454.836141,-10030.712339
5123.234185,1129.412267,-1665.404530,-9647.860723
5123.236761,880.558717,-248.853550,-10107.282662
5123.239338,-574.277424,1875.972918,-10068.997501
5123.241914,1186.840010,-516.849682,-9628.718142
5123.244491,880.558717,-1761.117434,-9513.862658
5123.247067,191.425808,-3617.947771,-10088.140082
5123.249644,1493.121302,-4134.797453,-10317.851051
5123.252220,-803.988394,-1205.982590,-10260.423309
5123.254797,746.560651,-3369.094221,-10298.708470
5123.257373,1339.980656,4594.219392,-8212.167163
5123.259950,76.570323,880.558717,-10222.138147
5123.262526,133.998066,3311.666478,-9341.579430
5123.265103,842.273555,3215.953574,-9513.862658
5123.267679,38.285162,899.701298,-10126.425243
5123.270256,689.132909,3426.521963,-8767.302006
5123.272832,631.705166,1971.685822,-9379.864592
5123.275409,-957.129040,535.992262,-10643.274925
5123.277985,1875.972918,3847.658741,-8843.872330
5123.280562,114.855485,1684.547110,-9762.716208
5123.283138,-784.845813,1971.685822,-9992.427178
5123.285715,1703.689691,2909.672282,-8748.159426
5123.288291,1244.267752,38.285162,-10030.712339
5123.290868,-1091.127106,1607.976787,-10356.136213
5123.293444,937.986459,4996.213589,-8958.727814
5123.296021,918.843878,1607.976787,-10145.567824
5123.298597,-555.134843,2890.529701,-9781.858789
5123.301174,2048.256146,5321.637462,-8671.589102
5123.303750,-1531.406464,4575.076811,-9743.573627
5123.306327,153.140646,382.851616,-10356.136213
5123.308903,2967.100024,2297.109696,-8633.303941
5123.311480,-1550.549045,-2182.254211,-10547.562021
5123.314056,918.843878,-3483.949706,-9934.999435
5123.316633,516.849682,-1837.687757,-9609.575562
5123.319209,-2067.398726,-2699.103893,-10968.698798
5123.321786,3235.096155,440.279358,-9226.723946
5123.324362,-937.986459,1205.982590,-9399.007173
5123.326939,-1071.984525,612.562586,-10088.140082
5123.329515,2986.242605,631.705166,-9494.720077
5123.332092,-689.132909,-421.136778,-9513.862658
5123.334668,-229.710970,-2297.109696,-10413.563955
5123.337245,1780.260014,1339.980656,-9743.573627
5123.339822,-842.273555,-727.418070,-10260.423309
5123.342399,153.140646,-631.705166,-9456.434915
5123.344976,803.988394,-4268.795518,-9705.288466
5123.347553,937.986459,-3139.383251,-10260.423309
5123.350129,-861.416136,-1933.400661,-10356.136213
5123.352706,2373.680019,-2526.820666,-10164.710405
5123.355283,765.703232,1186.840010,-9092.725880
5123.357860,-2143.969050,842.273555,-10490.134278
5123.360437,3464.807125,-76.570323,-9801.001370
5123.363014,-1282.552914,6585.047795,-8671.589102
5123.365591,918.843878,880.558717,-10604.989763
5123.368168,1875.972918,4058.227130,-8135.596840
5123.370744,-2450.250342,1990.828403,-10011.569758
5123.373321,2909.672282,842.273555,-10298.708470
5123.375898,421.136778,2641.676150,-9207.581365
5123.378475,-1282.552914,746.560651,-10509.276859
5123.381052,1531.406464,1780.260014,-9513.862658
5123.383629,306.281293,2928.814862,-9265.009107
5123.386206,-478.564520,-95.712904,-9839.286531
5123.388783,2545.963246,401.994197,-9571.290400
5123.391360,1244.267752,1512.263883,-10126.425243
5123.393936,-689.132909,4804.787781,-9820.143950
5123.396513,823.130974,3254.238736,-9169.296203
5123.399090,1512.263883,4441.078746,-8997.012976
5123.401667,-1569.691626,5857.629725,-9437.292334
5123.404244,2048.256146,478.564520,-9858.429112
5123.406821,-57.427742,1359.123237,-9131.011042
5123.409398,344.566454,-1359.123237,-10375.278794
5123.411975,382.851616,-4153.940034,-9915.856854
5123.414551,459.421939,114.855485,-9494.720077
5123.417128,516.849682,-3062.812928,-10700.702667
5123.419705,1971.685822,133.998066,-9265.009107
5123.422282,-1435.693560,1359.123237,-9475.577496
5123.424859,1014.556782,727.418070,-9724.431046
5123.427436,1397.408398,535.992262,-9533.005238
5123.430013,-1110.269686,-1320.838075,-9934.999435
5123.432590,1167.697429,-4192.225195,-10547.562021
5123.435167,440.279358,2373.680019,-9379.864592
5123.437743,-248.853550,2048.256146,-10011.569758
5123.440320,1512.263883,-2258.824534,-9494.720077
5123.442877,784.845813,-2928.814862,-9437.292334
5123.445434,57.427742,-3426.521963,-10336.993632
5123.447991,-114.855485,-3751.945837,-10604.989763
5123.450548,2067.398726,-344.566454,-9705.288466
5123.453105,497.707101,-555.134843,-9628.718142
5123.455662,-1741.974853,937.986459,-10298.708470
5123.458218,3426.521963,401.994197,-9590.432981
5123.460775,-1512.263883,6259.623922,-8939.585234
5123.463332,1531.406464,2067.398726,-10509.276859
5123.465889,1933.400661,4096.512291,-8250.452325
5123.468446,-2009.970984,1646.261949,-9896.714274
5123.471003,2794.816797,1225.125171,-9858.429112
5123.473560,555.134843,2182.254211,-9265.009107
5123.476117,-1186.840010,612.562586,-10547.562021
5123.478673,1454.836141,2660.818731,-9456.434915
5123.481230,421.136778,2813.959378,-9226.723946
5123.483787,-516.849682,-153.140646,-9820.143950
5123.486344,1454.836141,1091.127106,-9360.722011
5123.488901,880.558717,1895.115499,-10202.995566
5123.491458,172.283227,3369.094221,-10183.852986
5123.494015,574.277424,3273.381317,-9379.864592
5123.496572,1454.836141,4230.510357,-9131.011042
5123.499129,-1052.841944,6297.909083,-9111.868461
5123.501685,976.271621,382.851616,-9934.999435
5123.504242,2067.398726,2258.824534,-9016.155557
5123.506799,-95.712904,-2335.394858,-10547.562021
5123.509356,-114.855485,-3560.520029,-9724.431046
5123.511913,535.992262,-1263.410333,-9743.573627
5123.514470,-95.712904,-2909.672282,-10796.415571
5123.517027,2565.105827,650.847747,-9188.438784
5123.519584,-957.129040,1454.836141,-9590.432981
5123.522140,535.992262,784.845813,-9552.147819
5123.524697,2163.111630,842.273555,-9341.579430
5123.527254,-1033.699363,-1722.832272,-10030.712339
5123.529811,631.705166,-3158.525832,-10490.134278
5123.532368,1205.982590,2029.113565,-9437.292334
5123.534925,-191.425808,38.285162,-10241.280728
5123.537482,631.705166,-880.558717,-9839.286531
5123.540039,765.703232,-1359.123237,-8958.727814
5123.542595,1301.695494,-3809.373579,-10164.710405
5123.545155,-918.843878,-3196.810994,-10662.417506
5123.547715,803.988394,-2699.103893,-10260.423309
5123.550275,2201.396792,2603.390989,-8786.444587
5123.552834,-1646.261949,1110.269686,-9973.284597
5123.555394,478.564520,2507.678085,-9379.864592
5123.557954,784.845813,3943.371645,-9513.862658
5123.560514,210.568389,1684.547110,-10509.276859
5123.563074,1895.115499,3694.518094,-8614.161360
5123.565633,-899.701298,1148.554848,-9475.577496
5123.568193,784.845813,957.129040,-10049.854920
5123.570753,1607.976787,3637.090352,-9016.155557
5123.573313,57.427742,1627.119368,-10030.712339
5123.575872,-363.709035,1990.828403,-9781.858789
5123.578432,1320.838075,2201.396792,-9379.864592
5123.580992,421.136778,478.564520,-9609.575562
5123.583552,-363.709035,2067.398726,-9418.149754
5123.586111,1531.406464,2335.394858,-10030.712339
5123.588671,1091.127106,2067.398726,-10088.140082
5123.591231,-1646.261949,5532.205851,-9092.725880
5123.593791,1627.119368,5685.346498,-8997.012976
5123.596350,1741.974853,1397.408398,-10241.280728
5123.598910,-2450.250342,1454.836141,-9781.858789
5123.601470,3407.379382,-1263.410333,-10145.567824
5123.604030,-267.996131,-5436.492947,-10317.851051
5123.606589,937.986459,784.845813,-9399.007173
5123.609149,1684.547110,-2641.676150,-9877.571693
5123.611709,-1052.841944,-1550.549045,-10394.421374
5123.614269,631.705166,708.275490,-9954.142016
5123.616828,2182.254211,229.710970,-9820.143950
5123.619388,-727.418070,-133.998066,-10107.282662
5123.621948,574.277424,19.142581,-9571.290400
5123.624508,1493.121302,-1569.691626,-9858.429112
5123.627067,229.710970,-1569.691626,-10547.562021
5123.629627,-555.134843,1493.121302,-9858.429112
5123.632187,1952.543242,-1033.699363,-9762.716208
5123.634747,-306.281293,-2411.965181,-9705.288466
5123.637307,861.416136,-3005.385186,-9686.145885
5123.639866,-344.566454,-3062.812928,-10336.993632
5123.642426,1818.545176,-1205.982590,-10107.282662
5123.644986,1052.841944,-937.986459,-9781.858789
5123.647548,-2009.970984,1378.265818,-10068.997501
5123.650111,918.843878,861.416136,-9647.860723
5123.652673,95.712904,5225.924558,-9341.579430
5123.655235,631.705166,2354.537438,-10413.563955
5123.657798,1684.547110,3771.088418,-8671.589102
5123.660360,-1818.545176,2316.252277,-9762.716208
5123.662922,2718.246474,1684.547110,-9533.005238
5123.665485,325.423874,669.990328,-9801.001370
5123.668047,-229.710970,574.277424,-10509.276859
5123.670609,1378.265818,1971.685822,-9494.720077
5123.673172,421.136778,1397.408398,-9839.286531
5123.675734,-918.843878,38.285162,-9437.292334
5123.678297,-95.712904,4938.785846,-8614.161360
5123.680859,1741.974853,535.992262,-10719.845248
5123.683421,191.425808,5379.065205,-9667.003304
5123.685984,-1761.117434,6833.901346,-8461.020714
5123.688546,2488.535504,2507.678085,-9820.143950
5123.691108,497.707101,4460.221326,-9513.862658
5123.693671,-2660.818731,1244.267752,-9781.858789
5123.696233,4058.227130,1531.406464,-9265.009107
5123.698795,-880.558717,-4019.941968,-10451.849117
5123.701358,1454.836141,248.853550,-9341.579430
5123.703920,842.273555,-3503.092286,-10394.421374
5123.706482,-1703.689691,-1856.830338,-10758.130410
5123.709045,2124.826469,1493.121302,-9150.153622
5123.711607,861.416136,574.277424,-9820.143950
5123.714170,-727.418070,-344.566454,-10222.138147
5123.716732,1186.840010,210.568389,-8997.012976
5123.719294,689.132909,-1837.687757,-10145.567824
5123.721857,210.568389,-1014.556782,-10068.997501
5123.724419,918.843878,2565.105827,-9877.571693
5123.726981,1665.404530,-1971.685822,-10298.708470
5123.729546,-267.996131,-1799.402595,-9016.155557
5123.732110,899.701298,-3081.955509,-9743.573627
5123.734675,-823.130974,-4594.219392,-11064.411702
5123.737239,1990.828403,-535.992262,-9705.288466
5123.739803,1512.263883,-516.849682,-9418.149754
5123.742368,-2373.680019,823.130974,-10490.134278
5123.744932,3445.664544,-133.998066,-9647.860723
5123.747497,-1416.550979,7044.469734,-8671.589102
5123.750061,708.275490,2105.683888,-10509.276859
5123.752625,1684.547110,4058.227130,-8288.737486
5123.755190,-1799.402595,2507.678085,-9628.718142
5123.757754,2641.676150,1014.556782,-9877.571693
5123.760319,267.996131,1531.406464,-9628.718142
5123.762883,-440.279358,306.281293,-10624.132344
5123.765447,1588.834206,1531.406464,-9628.718142
5123.768012,248.853550,4249.652938,-9073.583299
5123.770576,76.570323,-1416.550979,-9877.571693
5123.773141,1722.832272,3292.523898,-8824.729749
5123.775705,861.416136,3062.812928,-10222.138147
5123.778269,0.000000,2928.814862,-10260.423309
5123.780834,555.134843,7044.469734,-8193.024582
5123.783398,612.562586,4843.072942,-9360.722011
5123.785963,1933.400661,1933.400661,-10375.278794
5123.788527,-2354.537438,784.845813,-9552.147819
5123.791091,2220.539373,727.418070,-9513.862658
5123.793656,-267.996131,-5417.350366,-10834.700733
5123.796220,1397.408398,0.000000,-9265.009107
5123.798785,1110.269686,-2526.820666,-10317.851051
5123.801349,-114.855485,-2258.824534,-10700.702667
5123.803913,267.996131,1837.687757,-9399.007173
5123.806478,1799.402595,708.275490,-9781.858789
5123.809042,172.283227,-1014.556782,-10451.849117
5123.811607,191.425808,-229.710970,-9073.583299
5123.814171,1148.554848,-631.705166,-9858.429112
5123.816735,861.416136,-1186.840010,-10336.993632
5123.819300,-287.138712,1627.119368,-9552.147819
5123.821864,918.843878,-1052.841944,-10394.421374
5123.824429,861.416136,-1435.693560,-8997.012976
5123.826993,976.271621,-3598.805190,-9801.001370
5123.829557,-612.562586,-3483.949706,-10930.413637
5123.832124,593.420005,-3732.803256,-10604.989763
5123.834690,1990.828403,4268.795518,-8039.883936
5123.837256,-478.564520,95.712904,-10490.134278
5123.839822,57.427742,3101.098090,-9131.011042
5123.842388,746.560651,4766.502619,-9207.581365
5123.844955,-19.142581,1263.410333,-10911.271056
5123.847521,1875.972918,4211.367776,-8384.450390
5123.850087,-918.843878,1282.552914,-9360.722011
5123.852653,823.130974,516.849682,-10107.282662
5123.855219,1914.258080,3790.230998,-8729.016845
5123.857786,287.138712,995.414202,-10336.993632
5123.860352,-440.279358,-57.427742,-10413.563955
5123.862918,1014.556782,4996.213589,-8480.163294
5123.865484,727.418070,-1493.121302,-10126.425243
5123.868051,-19.142581,1263.410333,-9609.575562
5123.870617,708.275490,5187.639397,-9399.007173
5123.873183,-1071.984525,3081.955509,-10298.708470
5123.875749,2622.533570,3522.234867,-9073.583299
5123.878315,-880.558717,7618.747158,-8537.591037
5123.880882,-1282.552914,-153.140646,-10719.845248
5123.883448,3943.371645,4077.369710,-8288.737486
5123.886014,-1282.552914,-2871.387120,-10604.989763
5123.888580,-191.425808,-5187.639397,-10490.134278
5123.891146,1110.269686,-1856.830338,-9456.434915
5123.893713,535.992262,-2813.959378,-10260.423309
5123.896279,1454.836141,-631.705166,-10030.712339
5123.898845,19.142581,3369.094221,-8939.585234
5123.901411,-478.564520,440.279358,-10107.282662
5123.903977,2143.969050,19.142581,-9667.003304
5123.906544,-344.566454,-1091.127106,-9284.151688
5123.909110,76.570323,-3388.236802,-10470.991698
5123.911676,1378.265818,1607.976787,-9801.001370
5123.914242,401.994197,574.277424,-9781.858789
5123.916808,38.285162,-2220.539373,-9954.142016
5123.919375,995.414202,-2182.254211,-9303.294269
5123.921941,-267.996131,-3158.525832,-10068.997501
5123.924507,2105.683888,-3675.375514,-11006.983960
5123.927073,2009.970984,478.564520,-9341.579430
5123.929639,-2335.394858,1473.978722,-9877.571693
5123.932206,2909.672282,-918.843878,-10107.282662
5123.934773,-899.701298,7350.751027,-8575.876198
5123.937341,1397.408398,3005.385186,-10241.280728
5123.939909,650.847747,3292.523898,-9724.431046
5123.942477,-765.703232,2794.816797,-9399.007173
5123.945045,2029.113565,1684.547110,-9265.009107
5123.947613,478.564520,306.281293,-9915.856854
5123.950181,-593.420005,765.703232,-10470.991698
5123.952748,746.560651,3694.518094,-9513.862658
5123.955316,1071.984525,-555.134843,-10298.708470
5123.957884,-1320.838075,2105.683888,-9092.725880
5123.960452,1454.836141,3235.096155,-8997.012976
5123.963020,57.427742,-287.138712,-10604.989763
5123.965588,0.000000,5685.346498,-9437.292334
5123.968156,1225.125171,5302.494882,-9169.296203
5123.970723,-995.414202,6489.334891,-9169.296203
5123.973291,995.414202,3254.238736,-9226.723946
5123.975859,1550.549045,1646.261949,-9092.725880
5123.978427,-440.279358,-2794.816797,-11006.983960
5123.980995,593.420005,-4804.787781,-9934.999435
5123.983563,669.990328,-1301.695494,-9437.292334
5123.986131,708.275490,-2182.254211,-10030.712339
5123.988698,555.134843,-937.986459,-10088.140082
5123.991266,-899.701298,1186.840010,-9954.142016
5123.993834,1722.832272,918.843878,-9801.001370
5123.996402,1627.119368,899.701298,-9399.007173
5123.998970,-1110.269686,-1454.836141,-9590.432981
5124.001538,1244.267752,-1550.549045,-9781.858789
5124.004106,1186.840010,2048.256146,-9896.714274
5124.006673,-842.273555,-2641.676150,-11255.837510
5124.009241,287.138712,-918.843878,-8920.442653
5124.011809,1627.119368,-2584.248408,-9111.868461
5124.014377,-1550.549045,-5608.776174,-11255.837510
5124.016945,2105.683888,-784.845813,-9820.143950
5124.019513,1569.691626,-631.705166,-9437.292334
5124.022081,-2469.392923,842.273555,-10375.278794
5124.024648,3081.955509,57.427742,-9571.290400
5124.027216,-1397.408398,7044.469734,-8575.876198
5124.029784,1607.976787,3311.666478,-10566.704602
5124.032352,995.414202,3751.945837,-9207.581365
5124.034920,-2086.541307,1933.400661,-9571.290400
5124.037489,2316.252277,976.271621,-9839.286531
5124.040057,306.281293,1014.556782,-9379.864592
5124.042626,-401.994197,153.140646,-10700.702667
5124.045195,1205.982590,1875.972918,-10068.997501
5124.047764,459.421939,2718.246474,-9379.864592
5124.050332,-803.988394,-555.134843,-9494.720077
5124.052901,1952.543242,2947.957443,-8920.442653
5124.055470,287.138712,2813.959378,-10107.282662
5124.058039,-1990.828403,3369.094221,-10356.136213
5124.060607,2565.105827,4996.213589,-8671.589102
5124.063176,-401.994197,5723.631659,-9092.725880
5124.065745,-1531.406464,1684.547110,-10126.425243
5124.068314,3885.943902,4153.940034,-8327.022648
5124.070882,-1339.980656,-3732.803256,-11102.696864
5124.073451,-114.855485,-5436.492947,-10547.562021
5124.076020,593.420005,-2411.965181,-9418.149754
5124.078588,784.845813,-2086.541307,-10011.569758
5124.081157,1435.693560,669.990328,-9609.575562
5124.083726,-287.138712,3656.232933,-9035.298138
5124.086295,-669.990328,172.283227,-10279.565890
5124.088863,2297.109696,-114.855485,-9552.147819
5124.091432,-248.853550,325.423874,-8958.727814
5124.094001,363.709035,-2813.959378,-10356.136213
5124.096570,1205.982590,1780.260014,-10107.282662
5124.099138,-287.138712,-95.712904,-10011.569758
5124.101707,363.709035,-3483.949706,-9877.571693
5124.104276,1186.840010,-2450.250342,-9360.722011
5124.106845,-191.425808,-3426.521963,-10394.421374
5124.109413,-153.140646,-4747.360038,-11294.122672
5124.111982,1722.832272,3407.379382,-8480.163294
5124.114551,0.000000,-133.998066,-10107.282662
5124.117120,-497.707101,3215.953574,-9322.436850
5124.119688,1052.841944,4919.643266,-9169.296203
5124.122257,95.712904,2852.244539,-10413.563955
5124.124826,1454.836141,4173.082614,-8920.442653
5124.127395,-1646.261949,1952.543242,-9513.862658
5124.129963,2105.683888,1722.832272,-9303.294269
5124.132532,1301.695494,2852.244539,-9265.009107
5124.135101,19.142581,2163.111630,-10030.712339
5124.137669,-612.562586,1205.982590,-10068.997501
5124.140239,823.130974,1320.838075,-9781.858789
5124.142809,-344.566454,1875.972918,-8882.157491
5124.145379,401.994197,1837.687757,-9169.296203
5124.147948,1205.982590,4134.797453,-10183.852986
5124.150518,-1952.543242,6814.758765,-9360.722011
5124.153088,2277.967115,4517.649069,-9188.438784
5124.155658,784.845813,4039.084549,-9686.145885
5124.158227,-3081.955509,76.570323,-9781.858789
5124.160797,1990.828403,880.558717,-9399.007173
5124.163367,-76.570323,-5321.637462,-10911.271056
5124.165937,1799.402595,-612.562586,-9418.149754
5124.168506,401.994197,-3043.670347,-9533.005238
5124.171076,-2048.256146,-3924.229064,-11274.980091
5124.173646,2239.681954,1129.412267,-9303.294269
5124.176216,401.994197,2258.824534,-9667.003304
5124.178785,-861.416136,803.988394,-10298.708470
5124.181355,19.142581,-191.425808,-9016.155557
5124.183925,1339.980656,-1205.982590,-9705.288466
5124.186495,535.992262,-1244.267752,-10222.138147
5124.189064,95.712904,823.130974,-9934.999435
5124.191634,746.560651,-1971.685822,-10738.987829
5124.194204,516.849682,-2679.961312,-9284.151688
5124.196774,38.285162,-2813.959378,-9150.153622
5124.199343,1359.123237,-3024.527766,-10777.272990
5124.201913,19.142581,-2794.816797,-10566.704602
5124.204483,-1186.840010,2450.250342,-9303.294269
5124.207053,3215.953574,-1301.695494,-10394.421374
5124.209622,-1148.554848,7695.317482,-7982.456194
5124.212192,1435.693560,2986.242605,-10126.425243
5124.214762,114.855485,3962.514226,-9839.286531
5124.217332,-497.707101,3656.232933,-9303.294269
5124.219901,1684.547110,727.418070,-9513.862658
5124.222471,-957.129040,-1627.119368,-10490.134278
5124.225041,574.277424,2354.537438,-9207.581365
5124.227611,1301.695494,4134.797453,-9475.577496
5124.230180,57.427742,803.988394,-9552.147819
5124.232750,248.853550,478.564520,-9379.864592
5124.235320,1014.556782,1607.976787,-9322.436850
5124.237890,861.416136,3235.096155,-9494.720077
5124.240459,-1454.836141,2928.814862,-10451.849117
5124.243028,2277.967115,3924.229064,-9896.714274
5124.245598,-784.845813,7389.036189,-8575.876198
5124.248168,-937.986459,2565.105827,-9418.149754
5124.250739,2947.957443,3254.238736,-8786.444587
5124.253309,-727.418070,-3311.666478,-10930.413637
5124.255879,1033.699363,-3790.230998,-10279.565890
5124.258449,-459.421939,-4441.078746,-10126.425243
5124.261019,133.998066,-3273.381317,-10336.993632
5124.263589,2048.256146,1225.125171,-9054.440718
5124.266159,-593.420005,2737.389054,-9820.143950
5124.268730,784.845813,1703.689691,-9915.856854
5124.271300,1531.406464,1186.840010,-9418.149754
5124.273870,-497.707101,-2316.252277,-9705.288466
5124.276440,478.564520,-4096.512291,-10202.995566
5124.279010,803.988394,3196.810994,-9437.292334
5124.281580,995.414202,-995.414202,-10260.423309
5124.284151,267.996131,-4479.363907,-10202.995566
5124.286721,-555.134843,861.416136,-8384.450390
5124.289291,2009.970984,-4326.223261,-10336.993632
5124.291861,-497.707101,-4019.941968,-10834.700733
5124.294431,-1205.982590,2392.822600,-9724.431046
5124.297001,4000.799387,-2182.254211,-10566.704602
5124.299571,-1875.972918,7503.891674,-8346.165229
5124.302142,689.132909,4192.225195,-9456.434915
5124.304712,325.423874,3847.658741,-9781.858789
5124.307282,-593.420005,3962.514226,-9513.862658
5124.309852,1091.127106,-555.134843,-10011.569758
5124.312422,-861.416136,-918.843878,-10164.710405
5124.314992,976.271621,3445.664544,-8671.589102
5124.317562,1033.699363,2297.109696,-9915.856854
5124.320133,-746.560651,1646.261949,-10547.562021
5124.322703,650.847747,1722.832272,-9150.153622
5124.325273,1282.552914,1359.123237,-9016.155557
5124.327843,-593.420005,1320.838075,-9667.003304
5124.330413,-1665.404530,4249.652938,-10049.854920
5124.332983,2335.394858,5206.781978,-9513.862658
5124.335553,-210.568389,5876.772306,-9207.581365
