#time,accel_x,accel_y,accel_z
474.622805,421.136778,1244.267752,-10088.140082
474.625208,363.709035,95.712904,-9992.427178
474.627612,574.277424,1397.408398,-9628.718142
474.630016,631.705166,669.990328,-10030.712339
474.632419,248.853550,229.710970,-9934.999435
474.634823,421.136778,1301.695494,-9743.573627
474.637227,650.847747,899.701298,-9781.858789
474.639630,421.136778,478.564520,-10011.569758
474.642034,325.423874,1091.127106,-9839.286531
474.644437,1780.260014,574.277424,-9858.429112
474.646841,38.285162,880.558717,-9858.429112
474.649245,-57.427742,631.705166,-9743.573627
474.651648,1512.263883,1263.410333,-9628.718142
474.654052,325.423874,440.279358,-10126.425243
474.656456,1129.412267,382.851616,-9628.718142
474.658859,2871.387120,1416.550979,-9896.714274
474.661263,3330.809059,516.849682,-9762.716208
474.663667,2143.969050,784.845813,-9743.573627
474.666126,1205.982590,1359.123237,-9762.716208
474.668585,-2641.676150,-535.992262,-10260.423309
474.671044,-4632.504554,2067.398726,-9820.143950
474.673503,535.992262,-57.427742,-9992.427178
474.675962,1990.828403,1550.549045,-9839.286531
474.678422,3426.521963,555.134843,-9934.999435
474.680881,765.703232,172.283227,-9915.856854
474.683340,-2737.389054,1665.404530,-9552.147819
474.685799,-1186.840010,497.707101,-10470.991698
474.688258,1837.687757,880.558717,-10183.852986
474.690717,1282.552914,899.701298,-9494.720077
474.693177,669.990328,38.285162,-10030.712339
474.695636,-555.134843,1071.984525,-9954.142016
474.698095,-1684.547110,478.564520,-9647.860723
474.700554,631.705166,1205.982590,-10413.563955
474.703013,1263.410333,669.990328,-9954.142016
474.705473,440.279358,248.853550,-9667.003304
474.707932,-153.140646,1684.547110,-9992.427178
474.710391,976.271621,-344.566454,-9954.142016
474.712850,-650.847747,1186.840010,-9992.427178
474.715309,1493.121302,1282.552914,-10049.854920
474.717768,-382.851616,-38.285162,-9858.429112
474.720228,-1091.127106,1071.984525,-9896.714274
474.722687,19.142581,823.130974,-10049.854920
474.725146,-153.140646,306.281293,-10317.851051
474.727605,-746.560651,1167.697429,-9820.143950
474.730064,-382.851616,344.566454,-9705.288466
474.732523,689.132909,631.705166,-10088.140082
474.734983,2182.254211,478.564520,-9647.860723
474.737442,-306.281293,1665.404530,-10049.854920
474.739901,631.705166,-153.140646,-9896.714274
474.742360,-1531.406464,746.560651,-9801.001370
474.744819,-2450.250342,1129.412267,-10107.282662
474.747278,267.996131,248.853550,-10030.712339
474.749738,2813.959378,2239.681954,-9954.142016
474.752197,7657.032320,382.851616,-9647.860723
474.754656,842.273555,-57.427742,-9265.009107
474.757115,-4383.651003,1914.258080,-10624.132344
474.759574,-4211.367776,19.142581,-10126.425243
474.762034,-2928.814862,1263.410333,-10298.708470
474.764529,3292.523898,2009.970984,-9781.858789
474.767025,8078.169098,-746.560651,-9590.432981
474.769521,1493.121302,1071.984525,-9839.286531
474.772017,-1684.547110,612.562586,-9781.858789
474.774513,-1741.974853,555.134843,-10183.852986
474.777009,-708.275490,861.416136,-10241.280728
474.779505,1895.115499,421.136778,-9590.432981
474.782001,2947.957443,1339.980656,-9781.858789
474.784496,2545.963246,-248.853550,-10011.569758
474.786992,267.996131,1493.121302,-9513.862658
474.789488,-593.420005,708.275490,-10126.425243
474.791984,-114.855485,478.564520,-9667.003304
474.794480,1397.408398,1263.410333,-9915.856854
474.796976,1569.691626,229.710970,-10164.710405
474.799472,248.853550,1282.552914,-9839.286531
474.801968,555.134843,746.560651,-9724.431046
474.804463,976.271621,650.847747,-10202.995566
474.806959,1225.125171,1071.984525,-9896.714274
474.809455,-382.851616,-38.285162,-9705.288466
474.811951,708.275490,1110.269686,-10241.280728
474.814447,1110.269686,478.564520,-9743.573627
474.816943,2239.681954,1071.984525,-9992.427178
474.819439,2392.822600,478.564520,-10222.138147
474.821935,1722.832272,344.566454,-9494.720077
474.824430,-1301.695494,1473.978722,-10107.282662
474.826926,650.847747,-248.853550,-10298.708470
474.829422,1244.267752,1761.117434,-9437.292334
474.831918,1569.691626,-95.712904,-10336.993632
474.834414,-612.562586,363.709035,-9628.718142
474.836910,631.705166,803.988394,-10164.710405
474.839406,1416.550979,1205.982590,-10145.567824
474.841902,5053.641331,-76.570323,-9590.432981
474.844397,-344.566454,1282.552914,-9954.142016
474.846893,-4019.941968,689.132909,-10068.997501
474.849389,-5034.498750,535.992262,-10202.995566
474.851885,1722.832272,937.986459,-9552.147819
474.854381,6125.625856,1473.978722,-9858.429112
474.856877,4326.223261,-306.281293,-10547.562021
474.859373,-1895.115499,3139.383251,-9188.438784
474.861869,-5532.205851,-899.701298,-10126.425243
474.864295,-4173.082614,937.986459,-10049.854920
474.866721,2967.100024,1684.547110,-9781.858789
474.869147,5091.926493,-133.998066,-10758.130410
474.871573,1780.260014,918.843878,-9111.868461
474.873999,-2143.969050,459.421939,-9628.718142
474.876425,-3579.662610,478.564520,-10183.852986
474.878852,-153.140646,1205.982590,-10222.138147
474.881278,2699.103893,1014.556782,-10164.710405
474.883704,1244.267752,861.416136,-9399.007173
474.886130,-1378.265818,153.140646,-10068.997501
474.888556,-114.855485,1512.263883,-9781.858789
474.890982,516.849682,516.849682,-10049.854920
474.893409,478.564520,210.568389,-10509.276859
474.895835,535.992262,1550.549045,-9456.434915
474.898261,325.423874,-133.998066,-10068.997501
474.900687,-382.851616,918.843878,-9781.858789
474.903113,1761.117434,803.988394,-9820.143950
474.905539,-267.996131,401.994197,-10394.421374
474.907966,-1186.840010,1244.267752,-9667.003304
474.910392,325.423874,1244.267752,-9686.145885
474.912818,-823.130974,19.142581,-10088.140082
474.915244,-784.845813,1186.840010,-10011.569758
474.917670,306.281293,1071.984525,-10088.140082
474.920096,248.853550,172.283227,-9992.427178
474.922523,1148.554848,803.988394,-9647.860723
474.924949,153.140646,1225.125171,-9628.718142
474.927375,-76.570323,19.142581,-10241.280728
474.929801,-2009.970984,708.275490,-9973.284597
474.932227,-1359.123237,1454.836141,-9513.862658
474.934653,-574.277424,-287.138712,-10336.993632
474.937080,1282.552914,2124.826469,-9743.573627
474.939506,8633.303941,306.281293,-9379.864592
474.941932,306.281293,-267.996131,-9934.999435
474.944358,-4019.941968,1244.267752,-10145.567824
474.946784,-3847.658741,1186.840010,-10164.710405
474.949210,-746.560651,401.994197,-10394.421374
474.951636,3637.090352,1627.119368,-9628.718142
474.954063,7350.751027,-191.425808,-9475.577496
474.956489,2239.681954,1129.412267,-10049.854920
474.958915,-2813.959378,746.560651,-9915.856854
474.961305,-287.138712,937.986459,-9552.147819
474.963696,-995.414202,1282.552914,-10049.854920
474.966086,1397.408398,459.421939,-9954.142016
474.968477,2641.676150,1607.976787,-9647.860723
474.970867,1627.119368,-153.140646,-10413.563955
474.973257,267.996131,1339.980656,-9647.860723
474.975648,-229.710970,574.277424,-10049.854920
474.978038,267.996131,267.996131,-10336.993632
474.980429,1397.408398,1320.838075,-9456.434915
474.982819,1205.982590,823.130974,-10260.423309
474.985210,133.998066,1052.841944,-9858.429112
474.987600,708.275490,440.279358,-9686.145885
474.989990,76.570323,631.705166,-10222.138147
474.992381,2316.252277,669.990328,-9762.716208
474.994771,-555.134843,1052.841944,-9973.284597
474.997162,1722.832272,784.845813,-10126.425243
474.999552,1320.838075,-153.140646,-9801.001370
475.001942,2086.541307,1263.410333,-9801.001370
475.004333,1473.978722,612.562586,-9954.142016
475.006723,1416.550979,95.712904,-9992.427178
475.009114,133.998066,1952.543242,-9647.860723
475.011504,727.418070,-497.707101,-10413.563955
475.013894,-1110.269686,746.560651,-10145.567824
475.016285,1378.265818,2067.398726,-9188.438784
475.018675,1837.687757,-861.416136,-10413.563955
475.021066,2986.242605,1378.265818,-9934.999435
475.023456,4211.367776,421.136778,-9590.432981
475.025847,-3081.955509,248.853550,-10298.708470
475.028237,-4843.072942,2354.537438,-9973.284597
475.030627,-1110.269686,555.134843,-9494.720077
475.033018,4632.504554,-229.710970,-10241.280728
475.035408,6163.911018,1435.693560,-9647.860723
475.037799,1646.261949,937.986459,-9896.714274
475.040189,-5551.348432,191.425808,-10030.712339
475.042579,-5800.201982,976.271621,-9513.862658
475.044970,784.845813,1225.125171,-10088.140082
475.047360,3196.810994,689.132909,-10298.708470
475.049751,3943.371645,516.849682,-9973.284597
475.052141,382.851616,1339.980656,-9188.438784
475.054532,-4192.225195,-57.427742,-10107.282662
475.056977,-2163.111630,1167.697429,-10145.567824
475.059423,2813.959378,535.992262,-10145.567824
475.061868,937.986459,459.421939,-9954.142016
475.064314,76.570323,937.986459,-9456.434915
475.066759,-38.285162,784.845813,-9590.432981
475.069205,-957.129040,612.562586,-10164.710405
475.071650,842.273555,555.134843,-9915.856854
475.074096,727.418070,1646.261949,-10030.712339
475.076542,210.568389,19.142581,-9839.286531
475.078987,-957.129040,612.562586,-9571.290400
475.081433,229.710970,1722.832272,-10030.712339
475.083878,1454.836141,-574.277424,-10547.562021
475.086324,-38.285162,2163.111630,-9552.147819
475.088769,-1703.689691,-229.710970,-9915.856854
475.091215,-689.132909,325.423874,-9915.856854
475.093660,-516.849682,1263.410333,-10030.712339
475.096106,401.994197,459.421939,-10011.569758
475.098551,3120.240670,631.705166,-9954.142016
475.100997,287.138712,899.701298,-9724.431046
475.103443,-784.845813,555.134843,-9801.001370
475.105888,-1818.545176,248.853550,-10413.563955
475.108334,-1205.982590,1301.695494,-9954.142016
475.110779,-1014.556782,976.271621,-10088.140082
475.113225,2182.254211,765.703232,-10375.278794
475.115670,8307.880067,-191.425808,-9131.011042
475.118116,-287.138712,325.423874,-9533.005238
475.120561,-2086.541307,1052.841944,-10470.991698
475.123007,-2086.541307,937.986459,-9992.427178
475.125453,-2450.250342,918.843878,-10260.423309
475.127898,3024.527766,918.843878,-9896.714274
475.130344,7197.610381,-38.285162,-9494.720077
475.132789,2431.107762,1550.549045,-10088.140082
475.135235,-2316.252277,555.134843,-10375.278794
475.137680,-746.560651,861.416136,-10049.854920
475.140126,-19.142581,937.986459,-9705.288466
475.142571,1569.691626,-344.566454,-10490.134278
475.145017,2488.535504,1952.543242,-9360.722011
475.147463,1301.695494,-95.712904,-10356.136213
475.149908,-478.564520,574.277424,-10107.282662
475.152354,689.132909,1359.123237,-9552.147819
475.154838,1148.554848,38.285162,-10432.706536
475.157323,937.986459,1052.841944,-9475.577496
475.159808,689.132909,880.558717,-9896.714274
475.162293,172.283227,114.855485,-10547.562021
475.164778,440.279358,976.271621,-9877.571693
475.167263,899.701298,976.271621,-10183.852986
475.169747,363.709035,784.845813,-10068.997501
475.172232,976.271621,76.570323,-9705.288466
475.174717,1320.838075,1569.691626,-9896.714274
475.177202,2277.967115,-76.570323,-10126.425243
475.179687,516.849682,765.703232,-9820.143950
475.182171,1875.972918,1320.838075,-9513.862658
475.184656,1225.125171,401.994197,-10202.995566
475.187141,612.562586,382.851616,-10202.995566
475.189626,-1569.691626,631.705166,-9992.427178
475.192111,1588.834206,1569.691626,-10183.852986
475.194596,1875.972918,-440.279358,-9647.860723
475.197080,3445.664544,1225.125171,-9781.858789
475.199565,3445.664544,823.130974,-10030.712339
475.202050,-3388.236802,-937.986459,-10011.569758
475.204535,-4651.647134,3139.383251,-10279.565890
475.207020,-1588.834206,-401.994197,-9820.143950
475.209504,4268.795518,133.998066,-9858.429112
475.211989,5417.350366,2603.390989,-9877.571693
475.214474,2297.109696,-1110.269686,-10260.423309
475.216959,-5455.635528,1971.685822,-9724.431046
475.219444,-5206.781978,727.418070,-9743.573627
475.221929,210.568389,574.277424,-10011.569758
475.224413,2756.531635,1607.976787,-9934.999435
475.226898,4919.643266,153.140646,-9973.284597
475.229383,57.427742,1167.697429,-9513.862658
475.231868,-2871.387120,555.134843,-9609.575562
475.234353,-1952.543242,842.273555,-9896.714274
475.236837,1722.832272,918.843878,-10470.991698
475.239322,1531.406464,727.418070,-9705.288466
475.241807,-153.140646,1071.984525,-9781.858789
475.244292,76.570323,19.142581,-9839.286531
475.246777,76.570323,1110.269686,-9915.856854
475.249262,0.000000,899.701298,-10394.421374
475.251746,708.275490,306.281293,-9896.714274
475.254261,976.271621,918.843878,-9647.860723
475.256775,-918.843878,95.712904,-9992.427178
475.259290,401.994197,937.986459,-9877.571693
475.261805,708.275490,861.416136,-10451.849117
475.264319,-823.130974,612.562586,-9762.716208
475.266834,-2143.969050,976.271621,-10183.852986
475.269348,-497.707101,555.134843,-9954.142016
475.271863,287.138712,976.271621,-9743.573627
475.274377,2450.250342,153.140646,-10298.708470
475.276892,823.130974,937.986459,-9820.143950
475.279407,-306.281293,918.843878,-9743.573627
475.281921,-2660.818731,-631.705166,-10279.565890
475.284436,-2029.113565,2009.970984,-9686.145885
475.286950,593.420005,38.285162,-10394.421374
475.289465,1627.119368,1722.832272,-10011.569758
475.291979,7925.028451,440.279358,-9494.720077
475.294494,229.710970,-555.134843,-9475.577496
475.297009,-4096.512291,1569.691626,-10298.708470
475.299523,-3388.236802,1167.697429,-10738.987829
475.302038,-76.570323,803.988394,-9992.427178
475.304552,3617.947771,1320.838075,-9724.431046
475.307067,6355.336826,-248.853550,-9590.432981
475.309581,1895.115499,1225.125171,-9820.143950
475.312096,-2679.961312,459.421939,-10317.851051
475.314611,-516.849682,1205.982590,-9877.571693
475.317125,918.843878,1263.410333,-9992.427178
475.319640,1895.115499,-593.420005,-10068.997501
475.322154,1588.834206,1875.972918,-9399.007173
475.324669,631.705166,19.142581,-10566.704602
475.327183,516.849682,918.843878,-9705.288466
475.329698,-861.416136,1110.269686,-10145.567824
475.332212,2143.969050,-76.570323,-10279.565890
475.334750,1512.263883,1435.693560,-9150.153622
475.337287,153.140646,689.132909,-10317.851051
475.339825,19.142581,784.845813,-10068.997501
475.342362,1301.695494,937.986459,-9724.431046
475.344899,-325.423874,899.701298,-10241.280728
475.347437,1493.121302,823.130974,-9839.286531
475.349974,1722.832272,401.994197,-10088.140082
475.352511,746.560651,1301.695494,-9820.143950
475.355049,1378.265818,153.140646,-9973.284597
475.357586,1722.832272,516.849682,-10011.569758
475.360124,1569.691626,1416.550979,-9552.147819
475.362661,421.136778,57.427742,-10336.993632
475.365198,-1971.685822,459.421939,-9934.999435
475.367736,918.843878,669.990328,-10068.997501
475.370273,2182.254211,957.129040,-9858.429112
475.372810,5225.924558,76.570323,-9724.431046
475.375348,784.845813,1895.115499,-9781.858789
475.377885,-3675.375514,-210.568389,-10222.138147
475.380423,-4479.363907,1282.552914,-10241.280728
475.382960,-210.568389,1263.410333,-9954.142016
475.385497,5513.063270,-57.427742,-9533.005238
475.388035,4785.645200,114.855485,-10317.851051
475.390572,38.285162,2507.678085,-9571.290400
475.393109,-5379.065205,-957.129040,-10011.569758
475.395647,-5264.209720,1627.119368,-10068.997501
475.398184,3024.527766,1359.123237,-9628.718142
475.400722,2584.248408,153.140646,-10490.134278
475.403259,2411.965181,1110.269686,-9571.290400
475.405796,133.998066,612.562586,-9360.722011
475.408334,-2890.529701,478.564520,-10375.278794
475.410871,-1550.549045,1416.550979,-9820.143950
475.413408,2852.244539,689.132909,-10049.854920
475.415946,-267.996131,421.136778,-10107.282662
475.418483,440.279358,861.416136,-9284.151688
475.421021,382.851616,1435.693560,-9801.001370
475.423558,-708.275490,325.423874,-10317.851051
475.426095,1033.699363,689.132909,-10126.425243
475.428633,861.416136,1722.832272,-9552.147819
475.431170,-612.562586,-631.705166,-10222.138147
475.433707,631.705166,1569.691626,-9628.718142
475.436262,344.566454,880.558717,-9839.286531
475.438816,-1454.836141,229.710970,-10432.706536
475.441369,-1378.265818,1550.549045,-9801.001370
475.443922,-325.423874,631.705166,-9686.145885
475.446476,2660.818731,95.712904,-9839.286531
475.449029,306.281293,1665.404530,-10049.854920
475.451583,-95.712904,57.427742,-9992.427178
475.454136,-114.855485,1359.123237,-9781.858789
475.456690,-2392.822600,133.998066,-9915.856854
475.459243,-3445.664544,1205.982590,-10126.425243
475.461797,1952.543242,612.562586,-10164.710405
475.464350,5398.207786,727.418070,-9915.856854
475.466904,593.420005,-497.707101,-9896.714274
475.469457,-746.560651,1301.695494,-9571.290400
475.472011,-861.416136,-191.425808,-10298.708470
475.474564,-4881.358104,2143.969050,-10241.280728
475.477117,2220.539373,-574.277424,-9762.716208
475.479671,5551.348432,995.414202,-9915.856854
475.482224,4058.227130,440.279358,-9533.005238
475.484778,38.285162,38.285162,-9820.143950
475.487331,-1856.830338,1512.263883,-10490.134278
475.489885,708.275490,574.277424,-9667.003304
475.492438,1703.689691,478.564520,-10336.993632
475.494992,2105.683888,1263.410333,-9724.431046
475.497545,689.132909,133.998066,-9609.575562
475.500099,631.705166,497.707101,-10413.563955
475.502652,-574.277424,1569.691626,-9552.147819
475.505206,1493.121302,229.710970,-10279.565890
475.507759,1627.119368,555.134843,-9533.005238
475.510312,497.707101,957.129040,-9552.147819
475.512866,-382.851616,574.277424,-10528.419440
475.515419,1454.836141,1225.125171,-9858.429112
475.517973,-95.712904,210.568389,-10183.852986
475.520526,1493.121302,1052.841944,-10011.569758
475.523080,1856.830338,114.855485,-9896.714274
475.525633,0.000000,1186.840010,-10049.854920
475.528187,2928.814862,555.134843,-9686.145885
475.530740,2163.111630,593.420005,-10222.138147
475.533294,267.996131,727.418070,-9801.001370
475.535847,-2124.826469,0.000000,-9858.429112
475.538413,1818.545176,1684.547110,-10202.995566
475.540979,1914.258080,-57.427742,-9743.573627
475.543544,2871.387120,784.845813,-10088.140082
475.546110,4287.938099,803.988394,-9915.856854
475.548676,-2603.390989,-306.281293,-9839.286531
475.551242,-4192.225195,2411.965181,-10394.421374
475.553808,-2699.103893,-401.994197,-10145.567824
475.556374,3598.805190,574.277424,-10068.997501
475.558939,5091.926493,2124.826469,-9475.577496
475.561505,1646.261949,-1320.838075,-10413.563955
475.564071,-4000.799387,2718.246474,-9571.290400
475.566637,-4153.940034,-497.707101,-9973.284597
475.569203,-2124.826469,1186.840010,-10222.138147
475.571768,2488.535504,1397.408398,-9915.856854
475.574334,4843.072942,-555.134843,-10068.997501
475.576900,-267.996131,1741.974853,-9724.431046
475.579466,-2277.967115,248.853550,-10011.569758
475.582032,-1359.123237,287.138712,-10049.854920
475.584597,-229.710970,1320.838075,-10279.565890
475.587163,1014.556782,478.564520,-9743.573627
475.589729,976.271621,535.992262,-9858.429112
475.592295,229.710970,478.564520,-9781.858789
475.594861,-38.285162,899.701298,-9686.145885
475.597427,440.279358,516.849682,-10470.991698
475.599992,765.703232,861.416136,-10068.997501
475.602558,-497.707101,-95.712904,-10011.569758
475.605124,-593.420005,497.707101,-10107.282662
475.607690,19.142581,1588.834206,-9609.575562
475.610256,-1071.984525,650.847747,-10260.423309
475.612821,-842.273555,574.277424,-9934.999435
475.615387,114.855485,1205.982590,-9858.429112
475.617953,1627.119368,363.709035,-9590.432981
475.620519,401.994197,555.134843,-9954.142016
475.623085,-229.710970,1014.556782,-10145.567824
475.625650,-2048.256146,-114.855485,-10011.569758
475.628216,-2105.683888,1110.269686,-10145.567824
475.630782,229.710970,727.418070,-9896.714274
475.633348,1263.410333,1339.980656,-9762.716208
475.635914,7197.610381,210.568389,-9973.284597
475.638480,708.275490,344.566454,-9360.722011
475.641055,-3177.668413,1339.980656,-10241.280728
475.643630,-727.418070,-287.138712,-10183.852986
475.646205,-2967.100024,1933.400661,-9781.858789
475.648780,2297.109696,1282.552914,-10241.280728
475.651355,5781.059402,-612.562586,-9533.005238
475.653930,2297.109696,1703.689691,-9667.003304
475.656505,-1875.972918,344.566454,-10413.563955
475.659080,-708.275490,708.275490,-9858.429112
475.661655,1531.406464,1512.263883,-9667.003304
475.664230,1493.121302,172.283227,-10088.140082
475.666805,2143.969050,459.421939,-9743.573627
475.669380,727.418070,1301.695494,-9418.149754
475.671955,-1225.125171,535.992262,-10011.569758
475.674531,1205.982590,650.847747,-10088.140082
475.677106,2316.252277,1263.410333,-9839.286531
475.679681,-344.566454,191.425808,-10011.569758
475.682256,57.427742,612.562586,-10088.140082
475.684831,1225.125171,1435.693560,-9628.718142
475.687406,287.138712,631.705166,-10394.421374
475.689981,1493.121302,344.566454,-9915.856854
475.692556,1282.552914,957.129040,-9686.145885
475.695131,1339.980656,114.855485,-10107.282662
475.697706,2124.826469,995.414202,-9724.431046
475.700281,2277.967115,669.990328,-9934.999435
475.702856,-516.849682,497.707101,-9896.714274
475.705431,-1607.976787,153.140646,-9801.001370
475.708006,1607.976787,1607.976787,-10202.995566
475.710582,1875.972918,669.990328,-9552.147819
475.713157,4153.940034,-76.570323,-10241.280728
475.715732,1665.404530,1971.685822,-9667.003304
475.718307,-3503.092286,-478.564520,-9934.999435
475.720882,-3943.371645,1397.408398,-10509.276859
475.723457,631.705166,1741.974853,-9226.723946
475.726032,4575.076811,-574.277424,-9858.429112
475.728607,3962.514226,1665.404530,-10202.995566
475.731182,1205.982590,459.421939,-9533.005238
475.733757,-5091.926493,325.423874,-10030.712339
475.736332,-3637.090352,708.275490,-9896.714274
475.738907,1071.984525,1607.976787,-9934.999435
475.741482,2622.533570,114.855485,-10777.272990
475.744063,2124.826469,1588.834206,-9284.151688
475.746644,210.568389,612.562586,-9494.720077
475.749225,-2699.103893,76.570323,-10260.423309
475.751806,-1263.410333,1263.410333,-9973.284597
475.754387,1225.125171,842.273555,-10126.425243
475.756968,803.988394,421.136778,-9896.714274
475.759549,593.420005,1071.984525,-9781.858789
475.762130,19.142581,497.707101,-9494.720077
475.764711,287.138712,478.564520,-10068.997501
475.767292,708.275490,937.986459,-10126.425243
475.769873,708.275490,1148.554848,-9552.147819
475.772454,-459.421939,114.855485,-10298.708470
475.775035,-306.281293,861.416136,-9686.145885
475.777616,-650.847747,1244.267752,-9494.720077
475.780197,-1339.980656,38.285162,-10987.841379
475.782778,708.275490,1244.267752,-9609.575562
475.785359,133.998066,1052.841944,-9877.571693
475.787940,-38.285162,-325.423874,-10375.278794
475.790521,1416.550979,1837.687757,-9035.298138
475.793102,-2469.392923,-229.710970,-10413.563955
475.795683,-3043.670347,1186.840010,-10183.852986
475.798264,1741.974853,267.996131,-9647.860723
475.800845,1933.400661,1435.693560,-10011.569758
475.803426,4938.785846,363.709035,-9724.431046
475.806007,1416.550979,708.275490,-9379.864592
475.808588,-2067.398726,555.134843,-10681.560086
475.811169,-3483.949706,344.566454,-10413.563955
475.813750,708.275490,516.849682,-9954.142016
475.816331,4307.080680,1110.269686,-9762.716208
475.818912,4498.506488,-574.277424,-9820.143950
475.821493,1588.834206,1531.406464,-9858.429112
475.824074,-1684.547110,-19.142581,-10183.852986
475.826655,-1071.984525,497.707101,-9973.284597
475.829236,2718.246474,995.414202,-9533.005238
475.831817,2029.113565,555.134843,-9877.571693
475.834398,937.986459,689.132909,-9934.999435
475.836979,-650.847747,861.416136,-9896.714274
475.839560,823.130974,976.271621,-10068.997501
475.842141,1033.699363,133.998066,-10068.997501
475.844722,631.705166,1033.699363,-9992.427178
475.847308,306.281293,823.130974,-9820.143950
475.849893,842.273555,-133.998066,-9992.427178
475.852479,1914.258080,1933.400661,-9762.716208
475.855065,440.279358,-172.283227,-9820.143950
475.857650,401.994197,574.277424,-9992.427178
475.860236,2354.537438,1301.695494,-9571.290400
475.862822,2699.103893,344.566454,-9801.001370
475.865407,842.273555,1014.556782,-10222.138147
475.867993,-1205.982590,899.701298,-9513.862658
475.870579,-38.285162,861.416136,-9781.858789
475.873164,1339.980656,382.851616,-10432.706536
475.875750,2660.818731,1914.258080,-9322.436850
475.878335,4996.213589,-382.851616,-10164.710405
475.880921,-727.418070,1263.410333,-10049.854920
475.883507,-3560.520029,899.701298,-9494.720077
475.886092,-3847.658741,306.281293,-10719.845248
475.888678,2871.387120,1071.984525,-9705.288466
475.891264,5149.354235,1378.265818,-9284.151688
475.893849,2143.969050,-899.701298,-11121.839445
475.896435,-1741.974853,2699.103893,-9188.438784
475.899021,-4421.936165,-593.420005,-9934.999435
475.901606,-3617.947771,708.275490,-10107.282662
475.904192,2871.387120,1646.261949,-9877.571693
475.906778,3139.383251,440.279358,-10241.280728
475.909363,803.988394,1186.840010,-9494.720077
475.911949,-1225.125171,172.283227,-9839.286531
475.914534,-1837.687757,1129.412267,-10145.567824
475.917120,-516.849682,344.566454,-10126.425243
475.919706,2411.965181,1129.412267,-10164.710405
475.922291,-76.570323,1091.127106,-9686.145885
475.924877,-555.134843,-248.853550,-10260.423309
475.927463,229.710970,1454.836141,-9494.720077
475.930048,746.560651,937.986459,-9954.142016
475.932634,267.996131,38.285162,-10624.132344
475.935220,440.279358,1761.117434,-9456.434915
475.937805,76.570323,-248.853550,-10088.140082
475.940391,-1722.832272,995.414202,-9992.427178
475.942977,-918.843878,784.845813,-9781.858789
475.945562,1799.402595,421.136778,-10317.851051
475.948148,325.423874,957.129040,-9992.427178
475.950736,-191.425808,-95.712904,-9954.142016
475.953324,1416.550979,2029.113565,-9801.001370
475.955912,-1607.976787,-746.560651,-10336.993632
475.958501,-3483.949706,1741.974853,-10202.995566
475.961089,1914.258080,631.705166,-9896.714274
475.963677,4192.225195,-57.427742,-10126.425243
475.966265,2182.254211,1665.404530,-9801.001370
475.968853,1761.117434,631.705166,-9245.866526
475.971442,-2067.398726,478.564520,-10853.843314
475.974030,-3522.234867,1607.976787,-10183.852986
475.976618,1646.261949,-1186.840010,-9686.145885
475.979206,5589.633594,1435.693560,-9762.716208
475.981795,3330.809059,95.712904,-9839.286531
475.984383,114.855485,937.986459,-10030.712339
475.986971,-1301.695494,803.988394,-10356.136213
475.989559,-1148.554848,650.847747,-9705.288466
475.992147,2718.246474,631.705166,-9973.284597
475.994736,2297.109696,593.420005,-10164.710405
475.997324,421.136778,1339.980656,-10088.140082
475.999912,765.703232,382.851616,-10241.280728
476.002500,-133.998066,803.988394,-9571.290400
476.005088,-267.996131,842.273555,-10222.138147
476.007677,2335.394858,555.134843,-9705.288466
476.010265,784.845813,612.562586,-9762.716208
476.012853,-669.990328,803.988394,-10202.995566
476.015441,1550.549045,497.707101,-9934.999435
476.018029,689.132909,612.562586,-10260.423309
476.020618,1684.547110,1071.984525,-9647.860723
476.023206,2890.529701,0.000000,-10011.569758
476.025794,1052.841944,937.986459,-9992.427178
476.028382,-899.701298,1244.267752,-9667.003304
476.030970,-133.998066,344.566454,-10260.423309
476.033559,1339.980656,727.418070,-9858.429112
476.036147,2526.820666,1263.410333,-9437.292334
476.038735,4747.360038,-210.568389,-10068.997501
476.041323,133.998066,1914.258080,-9647.860723
476.043911,-3139.383251,38.285162,-10490.134278
476.046500,-3254.238736,363.709035,-10183.852986
476.049088,1454.836141,689.132909,-9513.862658
476.051676,4498.506488,1033.699363,-9533.005238
476.054266,3445.664544,382.851616,-10317.851051
476.056857,-593.420005,1244.267752,-9954.142016
476.059447,-5111.069074,689.132909,-9877.571693
476.062037,-2928.814862,-95.712904,-9896.714274
476.064628,1244.267752,1914.258080,-9724.431046
476.067218,3062.812928,-76.570323,-10394.421374
476.069808,1359.123237,1052.841944,-9667.003304
476.072399,-784.845813,727.418070,-9877.571693
476.074989,-1837.687757,440.279358,-9667.003304
476.077579,-918.843878,1129.412267,-10030.712339
476.080170,1359.123237,306.281293,-10336.993632
476.082760,229.710970,1741.974853,-9513.862658
476.085350,459.421939,-191.425808,-10088.140082
476.087941,-76.570323,689.132909,-9628.718142
476.090531,76.570323,1531.406464,-9877.571693
476.093121,1186.840010,172.283227,-10490.134278
476.095711,555.134843,1473.978722,-9552.147819
476.098302,-593.420005,363.709035,-9877.571693
476.100892,-1320.838075,306.281293,-10068.997501
476.103482,-229.710970,1761.117434,-9743.573627
476.106073,689.132909,133.998066,-10049.854920
476.108663,421.136778,248.853550,-10164.710405
476.111253,746.560651,1512.263883,-9628.718142
476.113844,-1014.556782,-210.568389,-9820.143950
476.116434,-2660.818731,1454.836141,-10298.708470
476.119024,516.849682,976.271621,-9667.003304
476.121615,937.986459,765.703232,-10107.282662
476.124205,6776.473603,478.564520,-9858.429112
476.126795,1052.841944,306.281293,-9169.296203
476.129386,-3139.383251,1378.265818,-10394.421374
476.131976,-229.710970,-229.710970,-10336.993632
476.134566,-2316.252277,2009.970984,-9896.714274
476.137157,2258.824534,1052.841944,-10164.710405
476.139747,5206.781978,19.142581,-9360.722011
476.142337,2469.392923,1301.695494,-9992.427178
476.144928,-1895.115499,248.853550,-10470.991698
476.147518,-1493.121302,880.558717,-9934.999435
476.150108,1761.117434,1167.697429,-9724.431046
476.152699,3081.955509,-440.279358,-9973.284597
476.155289,1320.838075,1684.547110,-9686.145885
476.157842,114.855485,401.994197,-9915.856854
476.160394,344.566454,459.421939,-9820.143950
476.162947,937.986459,1110.269686,-10068.997501
476.165500,1799.402595,497.707101,-10126.425243
476.168053,689.132909,382.851616,-9801.001370
476.170606,95.712904,1014.556782,-9724.431046
476.173158,267.996131,861.416136,-10068.997501
476.175711,440.279358,689.132909,-10509.276859
476.178264,3215.953574,746.560651,-9399.007173
476.180817,2450.250342,842.273555,-9954.142016
476.183370,516.849682,306.281293,-10241.280728
476.185922,-2048.256146,1205.982590,-9552.147819
476.188475,1397.408398,1397.408398,-10317.851051
476.191028,2411.965181,-535.992262,-10222.138147
476.193581,2086.541307,1818.545176,-9303.294269
476.196133,4192.225195,57.427742,-10049.854920
476.198686,-1205.982590,478.564520,-9877.571693
476.201239,-3885.943902,1588.834206,-10068.997501
476.203792,-2909.672282,172.283227,-10260.423309
476.206345,3732.803256,-172.283227,-9781.858789
476.208897,4307.080680,2220.539373,-9647.860723
476.211450,1588.834206,-899.701298,-10681.560086
476.214003,-2297.109696,2373.680019,-9609.575562
476.216556,-4421.936165,-440.279358,-10222.138147
476.219109,-3330.809059,995.414202,-9992.427178
476.221661,3043.670347,1225.125171,-9801.001370
476.224214,2833.101958,38.285162,-10126.425243
476.226767,803.988394,1818.545176,-9667.003304
476.229320,-1052.841944,421.136778,-9954.142016
476.231872,-1378.265818,1244.267752,-9877.571693
476.234425,-1014.556782,784.845813,-9934.999435
476.236978,2029.113565,669.990328,-9992.427178
476.239531,153.140646,1301.695494,-9667.003304
476.242084,-344.566454,421.136778,-10107.282662
476.244636,306.281293,650.847747,-9628.718142
476.247189,1129.412267,1301.695494,-9973.284597
476.249742,-344.566454,516.849682,-9820.143950
476.252295,-1148.554848,842.273555,-9705.288466
476.254848,-1052.841944,631.705166,-10202.995566
476.257400,287.138712,727.418070,-9552.147819
476.259925,-535.992262,1148.554848,-10183.852986
476.262450,497.707101,689.132909,-9934.999435
476.264974,1741.974853,899.701298,-9513.862658
476.267499,-2009.970984,-153.140646,-10241.280728
476.270023,-2048.256146,1818.545176,-9686.145885
476.272548,-593.420005,-401.994197,-9973.284597
476.275072,708.275490,2048.256146,-9915.856854
476.277597,5934.200048,593.420005,-9609.575562
476.280122,2048.256146,76.570323,-9552.147819
476.282646,-2220.539373,1167.697429,-10356.136213
476.285171,-3407.379382,650.847747,-10375.278794
476.287695,823.130974,459.421939,-10183.852986
476.290220,3158.525832,1263.410333,-9571.290400
476.292745,4498.506488,-382.851616,-9801.001370
476.295269,2201.396792,1110.269686,-9934.999435
476.297794,-1550.549045,440.279358,-9973.284597
476.300318,-2048.256146,1110.269686,-10222.138147
476.302843,1875.972918,535.992262,-9475.577496
476.305368,3081.955509,459.421939,-9820.143950
476.307892,0.000000,1263.410333,-10068.997501
476.310417,1263.410333,-172.283227,-10011.569758
476.312941,-153.140646,1588.834206,-9896.714274
476.315466,191.425808,497.707101,-10222.138147
476.317991,2124.826469,153.140646,-9934.999435
476.320515,-191.425808,1493.121302,-9820.143950
476.323040,-306.281293,287.138712,-9896.714274
476.325564,1205.982590,669.990328,-10088.140082
476.328089,1895.115499,1071.984525,-9877.571693
476.330613,2335.394858,-210.568389,-10260.423309
476.333138,1856.830338,1052.841944,-9915.856854
476.335663,-1129.412267,650.847747,-9647.860723
476.338187,38.285162,1359.123237,-10088.140082
476.340712,2220.539373,-95.712904,-10336.993632
476.343236,1339.980656,1741.974853,-9513.862658
476.345761,4517.649069,-191.425808,-9954.142016
476.348286,210.568389,727.418070,-9992.427178
476.350810,-2871.387120,2067.398726,-9839.286531
476.353335,-3732.803256,-440.279358,-10394.421374
476.355859,2411.965181,555.134843,-9724.431046
476.358384,4115.654872,2009.970984,-9169.296203
476.360922,2163.111630,-689.132909,-10700.702667
476.363461,-1282.552914,2201.396792,-9781.858789
476.365999,-4173.082614,133.998066,-9934.999435
476.368538,-2794.816797,133.998066,-10088.140082
476.371076,1397.408398,2029.113565,-9896.714274
476.373614,2584.248408,-172.283227,-10126.425243
476.376153,880.558717,1320.838075,-9360.722011
476.378691,-918.843878,650.847747,-10202.995566
476.381230,-1588.834206,823.130974,-9820.143950
476.383768,421.136778,1129.412267,-9896.714274
476.386307,765.703232,172.283227,-10413.563955
476.388845,229.710970,1493.121302,-9667.003304
476.391383,574.277424,95.712904,-10049.854920
476.393922,76.570323,669.990328,-9858.429112
476.396460,-248.853550,823.130974,-10088.140082
476.398999,19.142581,114.855485,-10145.567824
476.401537,-765.703232,1397.408398,-9571.290400
476.404075,-937.986459,593.420005,-10107.282662
476.406614,229.710970,287.138712,-10030.712339
476.409152,-363.709035,1416.550979,-9801.001370
476.411691,76.570323,191.425808,-10222.138147
476.414229,1837.687757,1071.984525,-9781.858789
476.416768,-2048.256146,267.996131,-9513.862658
476.419306,-2813.959378,803.988394,-10375.278794
476.421844,1301.695494,229.710970,-10279.565890
476.424383,5570.491013,1244.267752,-9418.149754
476.426921,1914.258080,-267.996131,-10222.138147
476.429460,1071.984525,1167.697429,-9571.290400
476.431998,-727.418070,306.281293,-9839.286531
476.434536,-4039.084549,1971.685822,-10470.991698
476.437075,1473.978722,-727.418070,-9915.856854
476.439613,4862.215523,1225.125171,-9226.723946
476.442152,2507.678085,555.134843,-10222.138147
476.444690,-95.712904,459.421939,-9858.429112
476.447228,-957.129040,1378.265818,-10088.140082
476.449767,-803.988394,842.273555,-10088.140082
476.452305,1952.543242,172.283227,-9954.142016
476.454844,3254.238736,1397.408398,-9877.571693
476.457382,555.134843,1339.980656,-9667.003304
476.459921,-440.279358,-421.136778,-10164.710405
476.462471,899.701298,2220.539373,-9801.001370
476.465021,1129.412267,-497.707101,-10336.993632
476.467571,918.843878,918.843878,-9934.999435
476.470121,421.136778,1397.408398,-9552.147819
476.472671,803.988394,-401.994197,-10260.423309
476.475221,1473.978722,1741.974853,-9839.286531
476.477772,3101.098090,555.134843,-9801.001370
476.480322,1531.406464,555.134843,-10279.565890
476.482872,-650.847747,650.847747,-9820.143950
476.485422,1129.412267,1282.552914,-9877.571693
476.487972,1684.547110,0.000000,-10336.993632
476.490522,1588.834206,1282.552914,-9877.571693
476.493072,4498.506488,593.420005,-9552.147819
476.495623,-631.705166,306.281293,-10241.280728
476.498173,-3158.525832,708.275490,-9973.284597
476.500723,-3579.662610,1244.267752,-9877.571693
476.503273,1933.400661,19.142581,-9934.999435
476.505823,3330.809059,2067.398726,-9284.151688
476.508373,1512.263883,-516.849682,-10815.558152
476.510923,-1684.547110,1875.972918,-9552.147819
476.513474,-4058.227130,-95.712904,-10088.140082
476.516024,-2545.963246,937.986459,-10011.569758
476.518574,2431.107762,1186.840010,-9992.427178
476.521124,2871.387120,-210.568389,-10528.419440
476.523674,727.418070,1780.260014,-8901.300072
476.526224,-344.566454,-114.855485,-10202.995566
476.528774,-746.560651,1722.832272,-9801.001370
476.531324,-650.847747,459.421939,-10107.282662
476.533875,1416.550979,172.283227,-10643.274925
476.536425,593.420005,1818.545176,-9265.009107
476.538975,-172.283227,306.281293,-10241.280728
476.541525,248.853550,689.132909,-9896.714274
476.544084,344.566454,1071.984525,-9762.716208
476.546642,-287.138712,210.568389,-10375.278794
476.549201,-574.277424,880.558717,-9303.294269
476.551760,267.996131,478.564520,-9858.429112
476.554319,-1550.549045,1569.691626,-10107.282662
476.556877,-325.423874,-478.564520,-10088.140082
476.559436,2526.820666,2220.539373,-9667.003304
476.561995,-1320.838075,-267.996131,-10164.710405
476.564554,-3483.949706,918.843878,-10222.138147
476.567112,995.414202,1167.697429,-9590.432981
476.569671,1091.127106,976.271621,-10068.997501
476.572230,4785.645200,574.277424,-10126.425243
476.574788,2258.824534,1818.545176,-8882.157491
476.577347,-1205.982590,-57.427742,-10700.702667
476.579906,-2967.100024,1014.556782,-10356.136213
476.582465,1110.269686,612.562586,-9399.007173
476.585023,2833.101958,1205.982590,-10298.708470
476.587582,4039.084549,-689.132909,-9628.718142
476.590141,2699.103893,1971.685822,-9494.720077
476.592700,-1550.549045,0.000000,-10451.849117
476.595258,-899.701298,38.285162,-9973.284597
476.597817,1741.974853,1799.402595,-9724.431046
476.600376,2967.100024,-76.570323,-10202.995566
476.602934,555.134843,842.273555,-9877.571693
476.605493,727.418070,1129.412267,-9839.286531
476.608052,-191.425808,363.709035,-9934.999435
476.610611,765.703232,976.271621,-10202.995566
476.613169,1416.550979,880.558717,-9686.145885
476.615728,287.138712,899.701298,-9954.142016
476.618287,555.134843,555.134843,-9954.142016
476.620846,2316.252277,957.129040,-9762.716208
476.623404,2507.678085,172.283227,-10126.425243
476.625963,1607.976787,765.703232,-9915.856854
476.628522,-1205.982590,497.707101,-9743.573627
476.631080,918.843878,976.271621,-10164.710405
476.633639,2641.676150,172.283227,-9762.716208
476.636198,2086.541307,1378.265818,-9973.284597
476.638757,2699.103893,-57.427742,-9667.003304
476.641315,-1148.554848,191.425808,-9973.284597
476.643874,-2048.256146,2679.961312,-10222.138147
476.646440,-2411.965181,-459.421939,-10088.140082
476.649006,3158.525832,363.709035,-10011.569758
476.651571,4211.367776,2182.254211,-9609.575562
476.654137,957.129040,-2124.826469,-10911.271056
476.656703,-2679.961312,3292.523898,-9418.149754
476.659269,-2833.101958,-306.281293,-9743.573627
476.661835,-2450.250342,172.283227,-10604.989763
476.664400,2201.396792,1933.400661,-9762.716208
476.666966,2928.814862,306.281293,-9781.858789
476.669532,-459.421939,593.420005,-10260.423309
476.672098,-669.990328,650.847747,-9705.288466
476.674663,-1531.406464,1148.554848,-9877.571693
476.677229,497.707101,95.712904,-10604.989763
476.679795,1588.834206,1167.697429,-9686.145885
476.682361,-267.996131,1205.982590,-9973.284597
476.684927,-210.568389,-516.849682,-10145.567824
476.687492,1148.554848,1493.121302,-9207.581365
476.690058,-191.425808,459.421939,-10336.993632
476.692624,-880.558717,650.847747,-10222.138147
476.695190,669.990328,1263.410333,-9609.575562
476.697755,-1397.408398,823.130974,-9973.284597
476.700321,-976.271621,631.705166,-9839.286531
476.702887,2220.539373,1435.693560,-9820.143950
476.705453,-1148.554848,-210.568389,-9915.856854
476.708019,-3177.668413,995.414202,-10126.425243
476.710584,937.986459,880.558717,-9762.716208
476.713150,1493.121302,899.701298,-9820.143950
476.715716,3943.371645,765.703232,-10011.569758
476.718282,2622.533570,1071.984525,-8863.014910
476.720847,-2297.109696,784.845813,-10777.272990
476.723413,-2986.242605,1627.119368,-10222.138147
476.725979,1263.410333,459.421939,-9647.860723
476.728545,2967.100024,861.416136,-10260.423309
476.731111,3675.375514,-229.710970,-9513.862658
476.733676,2603.390989,1607.976787,-9647.860723
476.736242,-1627.119368,191.425808,-10547.562021
476.738808,-880.558717,555.134843,-9647.860723
476.741374,1129.412267,1780.260014,-9705.288466
476.743939,1818.545176,-440.279358,-10298.708470
476.746505,1588.834206,1378.265818,-9571.290400
476.749077,574.277424,555.134843,-10145.567824
476.751649,-440.279358,478.564520,-10068.997501
476.754221,803.988394,1014.556782,-9973.284597
476.756792,1799.402595,650.847747,-10011.569758
476.759364,114.855485,478.564520,-9896.714274
476.761936,382.851616,689.132909,-9705.288466
476.764508,2297.109696,1301.695494,-9934.999435
476.767079,2220.539373,555.134843,-10126.425243
476.769651,-382.851616,1244.267752,-9801.001370
476.772223,1167.697429,1320.838075,-9781.858789
476.774795,1416.550979,-421.136778,-10298.708470
476.777366,861.416136,1895.115499,-9686.145885
476.779938,4575.076811,-459.421939,-10088.140082
476.782510,669.990328,1167.697429,-9896.714274
476.785082,-2718.246474,306.281293,-10068.997501
476.787654,-2239.681954,1359.123237,-10183.852986
476.790225,1990.828403,631.705166,-9820.143950
476.792797,3139.383251,1301.695494,-9437.292334
476.795369,1990.828403,191.425808,-10585.847182
476.797941,-325.423874,1225.125171,-9494.720077
476.800512,-3751.945837,650.847747,-10126.425243
476.803084,-2258.824534,669.990328,-10088.140082
476.805656,746.560651,861.416136,-9762.716208
476.808228,1627.119368,344.566454,-10490.134278
476.810800,1914.258080,1378.265818,-9475.577496
476.813371,-287.138712,-574.277424,-10183.852986
476.815943,-880.558717,1818.545176,-9609.575562
476.818515,-344.566454,382.851616,-10241.280728
476.821087,976.271621,-133.998066,-10719.845248
476.823658,459.421939,2316.252277,-9073.583299
476.826230,555.134843,-229.710970,-10432.706536
476.828802,-2373.680019,267.996131,-10068.997501
476.831374,1378.265818,1435.693560,-9552.147819
476.833945,363.709035,76.570323,-10777.272990
476.836517,-995.414202,1167.697429,-9667.003304
476.839089,-1569.691626,650.847747,-9820.143950
476.841661,-650.847747,823.130974,-9992.427178
476.844233,1856.830338,650.847747,-9839.286531
476.846804,-803.988394,478.564520,-10068.997501
476.849376,-2603.390989,1493.121302,-10088.140082
476.851952,976.271621,-459.421939,-10088.140082
476.854528,421.136778,2105.683888,-9781.858789
476.857104,4134.797453,114.855485,-9973.284597
476.859680,1895.115499,1359.123237,-9399.007173
476.862256,-459.421939,1167.697429,-10222.138147
476.864832,-2699.103893,-191.425808,-10394.421374
476.867408,1033.699363,1263.410333,-9762.716208
476.869984,2354.537438,1205.982590,-9801.001370
476.872560,4000.799387,-765.703232,-9877.571693
476.875136,2450.250342,1780.260014,-9628.718142
476.877711,-1091.127106,153.140646,-10241.280728
476.880287,-1397.408398,708.275490,-10088.140082
476.882863,1148.554848,1397.408398,-9839.286531
476.885439,3101.098090,382.851616,-10088.140082
476.888015,478.564520,689.132909,-9896.714274
476.890591,478.564520,535.992262,-10126.425243
476.893167,133.998066,1435.693560,-9705.288466
476.895743,842.273555,-19.142581,-10107.282662
476.898319,2105.683888,1282.552914,-9973.284597
476.900895,478.564520,937.986459,-9590.432981
476.903471,937.986459,-153.140646,-10394.421374
476.906047,2335.394858,1895.115499,-9590.432981
476.908623,1761.117434,248.853550,-9801.001370
476.911199,-95.712904,-153.140646,-10279.565890
476.913775,1397.408398,2526.820666,-9839.286531
476.916351,1856.830338,-95.712904,-9724.431046
476.918927,1761.117434,708.275490,-9992.427178
476.921502,1665.404530,1761.117434,-9628.718142
476.924078,-803.988394,-248.853550,-10049.854920
476.926654,-1722.832272,2067.398726,-10222.138147
476.929230,-1607.976787,727.418070,-9513.862658
476.931806,2928.814862,-153.140646,-10222.138147
476.934382,3905.086483,1282.552914,-9896.714274
476.936958,210.568389,-459.421939,-10202.995566
476.939534,-2660.818731,2124.826469,-9667.003304
476.942110,-2277.967115,-861.416136,-10126.425243
476.944686,-1512.263883,1856.830338,-9934.999435
476.947262,1282.552914,823.130974,-9934.999435
476.949838,2660.818731,440.279358,-9686.145885
476.952414,248.853550,1703.689691,-9456.434915
476.954993,-1703.689691,-746.560651,-10356.136213
476.957573,344.566454,1665.404530,-9839.286531
476.960153,899.701298,880.558717,-9954.142016
476.962732,-19.142581,-172.283227,-10394.421374
476.965312,784.845813,1282.552914,-9839.286531
476.967892,650.847747,574.277424,-9418.149754
476.970471,-727.418070,459.421939,-10413.563955
476.973051,287.138712,689.132909,-10011.569758
476.975631,-172.283227,1244.267752,-9552.147819
476.978210,-1895.115499,191.425808,-10681.560086
476.980790,-1033.699363,459.421939,-9647.860723
476.983370,2316.252277,2086.541307,-9456.434915
476.985949,-1071.984525,-918.843878,-10777.272990
476.988529,-2584.248408,1493.121302,-9762.716208
476.991109,1129.412267,689.132909,-9762.716208
476.993688,516.849682,765.703232,-10030.712339
476.996268,1665.404530,650.847747,-9839.286531
476.998848,2143.969050,1512.263883,-9437.292334
477.001427,-287.138712,153.140646,-10432.706536
477.004007,-2373.680019,1301.695494,-10317.851051
477.006587,1359.123237,555.134843,-9762.716208
477.009166,2258.824534,401.994197,-10011.569758
477.011746,3694.518094,-38.285162,-9896.714274
477.014326,2354.537438,1780.260014,-9628.718142
477.016905,-612.562586,-382.851616,-10222.138147
477.019485,-1320.838075,1741.974853,-9801.001370
477.022064,2258.824534,899.701298,-9781.858789
477.024644,2775.674216,-153.140646,-10241.280728
477.027224,-57.427742,1990.828403,-9743.573627
477.029803,1014.556782,210.568389,-10336.993632
477.032383,459.421939,229.710970,-9877.571693
477.034963,172.283227,1282.552914,-9820.143950
477.037542,2737.389054,861.416136,-10183.852986
477.040122,248.853550,535.992262,-9475.577496
477.042702,1454.836141,1225.125171,-9724.431046
477.045281,2124.826469,1014.556782,-9973.284597
477.047861,344.566454,-689.132909,-10126.425243
477.050441,1282.552914,2565.105827,-9590.432981
477.053020,2679.961312,0.000000,-9934.999435
477.055600,-306.281293,421.136778,-10336.993632
477.058153,3120.240670,1282.552914,-9571.290400
477.060707,1378.265818,631.705166,-10030.712339
477.063260,-1339.980656,976.271621,-10068.997501
477.065813,-3675.375514,899.701298,-9303.294269
477.068367,1895.115499,-95.712904,-10126.425243
477.070920,2603.390989,1378.265818,-9820.143950
477.073473,1646.261949,574.277424,-9973.284597
477.076027,-784.845813,1550.549045,-9915.856854
477.078580,-3235.096155,-210.568389,-10126.425243
477.081133,-1550.549045,918.843878,-9628.718142
477.083686,440.279358,1837.687757,-10107.282662
477.086240,1971.685822,-1052.841944,-10604.989763
477.088793,1148.554848,2641.676150,-8920.442653
477.091346,76.570323,-535.992262,-10490.134278
477.093900,-1722.832272,497.707101,-9647.860723
477.096453,172.283227,2392.822600,-9456.434915
477.099006,1397.408398,-823.130974,-10796.415571
477.101560,-574.277424,1607.976787,-9686.145885
477.104113,1301.695494,708.275490,-9667.003304
477.106666,-401.994197,-76.570323,-10011.569758
477.109220,-95.712904,1071.984525,-9915.856854
477.111773,-1129.412267,1091.127106,-10317.851051
477.114326,-478.564520,172.283227,-10183.852986
477.116880,-2067.398726,1014.556782,-9781.858789
477.119433,-248.853550,689.132909,-9992.427178
477.121986,133.998066,-57.427742,-9934.999435
477.124539,-2392.822600,1588.834206,-10241.280728
477.127093,899.701298,823.130974,-9934.999435
477.129646,3254.238736,-76.570323,-9915.856854
477.132199,1225.125171,842.273555,-9839.286531
477.134753,1856.830338,1703.689691,-9494.720077
477.137306,306.281293,-612.562586,-10700.702667
477.139859,-2718.246474,2737.389054,-9743.573627
477.142413,803.988394,-306.281293,-9915.856854
477.144966,5225.924558,459.421939,-9456.434915
477.147519,1378.265818,459.421939,-9934.999435
477.150073,976.271621,1550.549045,-10030.712339
477.152626,-210.568389,-172.283227,-10049.854920
477.155179,-1033.699363,1416.550979,-9781.858789
477.157733,2335.394858,899.701298,-9647.860723
477.160293,1665.404530,-401.994197,-10241.280728
477.162853,-191.425808,2201.396792,-9915.856854
477.165413,574.277424,-76.570323,-10049.854920
477.167973,976.271621,708.275490,-9992.427178
477.170533,1856.830338,1703.689691,-9762.716208
477.173094,918.843878,-401.994197,-10088.140082
477.175654,1244.267752,1205.982590,-9743.573627
477.178214,1856.830338,1071.984525,-9609.575562
477.180774,861.416136,363.709035,-10298.708470
477.183334,1531.406464,421.136778,-9724.431046
477.185895,1895.115499,784.845813,-9609.575562
477.188455,0.000000,1052.841944,-10509.276859
477.191015,3751.945837,-440.279358,-9820.143950
477.193575,574.277424,2526.820666,-9724.431046
477.196135,-2220.539373,-708.275490,-10853.843314
477.198695,-1091.127106,976.271621,-9590.432981
477.201256,-1110.269686,2105.683888,-9437.292334
477.203816,2335.394858,-1033.699363,-10375.278794
477.206376,3943.371645,1091.127106,-9820.143950
477.208936,-995.414202,1780.260014,-9686.145885
477.211496,-3139.383251,-210.568389,-10317.851051
477.214057,-1531.406464,669.990328,-9781.858789
477.216617,248.853550,2201.396792,-9590.432981
477.219177,669.990328,-746.560651,-11006.983960
477.221737,1435.693560,1014.556782,-9820.143950
477.224297,382.851616,1703.689691,-9379.864592
477.226857,-1033.699363,-669.990328,-10624.132344
477.229418,-363.709035,1320.838075,-9590.432981
477.231978,803.988394,153.140646,-10049.854920
477.234538,38.285162,957.129040,-10068.997501
477.237098,574.277424,574.277424,-9915.856854
477.239658,38.285162,899.701298,-9647.860723
477.242219,765.703232,-38.285162,-10202.995566
477.244779,-1301.695494,631.705166,-10183.852986
477.247339,-1665.404530,1818.545176,-9915.856854
477.249899,-287.138712,-229.710970,-10107.282662
477.252459,459.421939,1244.267752,-9858.429112
477.255019,-880.558717,1550.549045,-9705.288466
477.257580,-1588.834206,-650.847747,-10432.706536
477.260140,497.707101,2067.398726,-9973.284597
477.262706,3771.088418,708.275490,-9647.860723
477.265272,1320.838075,-937.986459,-10260.423309
477.267838,1186.840010,2354.537438,-9131.011042
477.270404,574.277424,-19.142581,-10317.851051
477.272970,-2450.250342,823.130974,-10662.417506
477.275536,1397.408398,727.418070,-9456.434915
477.278102,5647.061336,497.707101,-9322.436850
477.280668,1378.265818,-248.853550,-10604.989763
477.283235,708.275490,1990.828403,-9513.862658
477.285801,-172.283227,803.988394,-10183.852986
477.288367,-363.709035,-382.851616,-10356.136213
477.290933,1129.412267,1665.404530,-9284.151688
477.293499,2545.963246,880.558717,-10049.854920
477.296065,708.275490,-210.568389,-10107.282662
477.298631,153.140646,1780.260014,-9418.149754
477.301197,-382.851616,363.709035,-10432.706536
477.303763,1091.127106,-114.855485,-10088.140082
477.306329,2048.256146,1761.117434,-9590.432981
477.308895,1493.121302,421.136778,-10030.712339
477.311461,1588.834206,-114.855485,-10241.280728
477.314027,172.283227,1378.265818,-9590.432981
477.316593,2220.539373,1148.554848,-9877.571693
477.319160,2316.252277,-842.273555,-10432.706536
477.321726,497.707101,1990.828403,-9322.436850
477.324292,1741.974853,-38.285162,-10413.563955
477.326858,-784.845813,287.138712,-10241.280728
477.329424,-976.271621,2737.389054,-9341.579430
477.331990,-3311.666478,-1186.840010,-10796.415571
477.334556,2086.541307,421.136778,-9686.145885
477.337122,2775.674216,2124.826469,-9169.296203
477.339688,918.843878,-708.275490,-11428.120738
477.342254,-1167.697429,1588.834206,-9322.436850
477.344820,-1665.404530,267.996131,-9820.143950
477.347386,-1646.261949,382.851616,-10509.276859
477.349952,1359.123237,1167.697429,-9322.436850
477.352518,1454.836141,612.562586,-10566.704602
477.355085,-38.285162,937.986459,-9877.571693
477.357651,708.275490,-363.709035,-9858.429112
477.360217,-803.988394,1895.115499,-9513.862658
477.362783,-401.994197,-57.427742,-10528.419440
477.365326,1378.265818,899.701298,-10011.569758
477.367870,937.986459,2373.680019,-9628.718142
477.370414,-344.566454,-1205.982590,-10528.419440
477.372958,440.279358,1665.404530,-9437.292334
477.375501,76.570323,1512.263883,-9341.579430
477.378045,-2756.531635,-401.994197,-10968.698798
477.380589,-1071.984525,1684.547110,-9265.009107
477.383132,1454.836141,842.273555,-9934.999435
477.385676,-1397.408398,-172.283227,-10241.280728
477.388220,-2258.824534,1148.554848,-10030.712339
477.390763,1416.550979,689.132909,-10145.567824
477.393307,2641.676150,344.566454,-9992.427178
477.395851,1186.840010,191.425808,-9954.142016
477.398394,1952.543242,2143.969050,-9245.866526
477.400938,133.998066,-727.418070,-10317.851051
477.403482,-2009.970984,1741.974853,-10260.423309
477.406025,1320.838075,1148.554848,-9705.288466
477.408569,2565.105827,-555.134843,-9954.142016
477.411113,1646.261949,1244.267752,-10068.997501
477.413657,1110.269686,1033.699363,-9628.718142
477.416200,-172.283227,-516.849682,-10336.993632
477.418744,-1205.982590,2067.398726,-9858.429112
477.421288,2067.398726,440.279358,-9667.003304
477.423831,2794.816797,-191.425808,-10222.138147
477.426375,-459.421939,1933.400661,-9494.720077
477.428919,516.849682,191.425808,-10183.852986
477.431462,880.558717,-38.285162,-9992.427178
477.434006,1359.123237,1933.400661,-9111.868461
477.436550,229.710970,-248.853550,-10336.993632
477.439093,1971.685822,459.421939,-10164.710405
477.441637,880.558717,1722.832272,-9513.862658
477.444181,1301.695494,746.560651,-10183.852986
477.446724,1952.543242,-344.566454,-10490.134278
477.449268,1454.836141,2124.826469,-9437.292334
477.451812,2201.396792,114.855485,-9724.431046
477.454356,918.843878,0.000000,-10336.993632
477.456899,-2048.256146,1263.410333,-9781.858789
477.459443,-306.281293,1129.412267,-10260.423309
477.461987,-1397.408398,-153.140646,-10088.140082
477.464530,2067.398726,1148.554848,-9322.436850
477.467083,3522.234867,899.701298,-10049.854920
477.469635,-593.420005,-842.273555,-11026.126541
477.472187,-2431.107762,2928.814862,-8939.585234
477.474739,-1531.406464,-746.560651,-10260.423309
477.477292,-535.992262,574.277424,-10394.421374
477.479844,612.562586,1148.554848,-9934.999435
477.482396,1531.406464,-95.712904,-10490.134278
477.484948,-765.703232,1091.127106,-9667.003304
477.487500,363.709035,478.564520,-9801.001370
477.490053,-153.140646,593.420005,-10202.995566
477.492605,478.564520,153.140646,-10011.569758
477.495157,172.283227,1397.408398,-9877.571693
477.497709,344.566454,172.283227,-10394.421374
477.500261,803.988394,-153.140646,-10088.140082
477.502813,-1129.412267,1990.828403,-9628.718142
477.505366,-1569.691626,-708.275490,-10528.419440
477.507918,-1588.834206,1512.263883,-9533.005238
477.510470,2220.539373,1512.263883,-9934.999435
477.513022,-880.558717,-1091.127106,-10222.138147
477.515574,-2813.959378,2201.396792,-9877.571693
477.518127,1301.695494,612.562586,-9801.001370
477.520679,-516.849682,708.275490,-10336.993632
477.523231,4268.795518,612.562586,-9896.714274
477.525783,3024.527766,1186.840010,-8977.870395
477.528335,-995.414202,-38.285162,-10738.987829
477.530887,-1550.549045,1205.982590,-9973.284597
477.533440,842.273555,1397.408398,-9667.003304
477.535992,2718.246474,38.285162,-10222.138147
477.538544,2603.390989,1091.127106,-9475.577496
477.541096,1895.115499,1282.552914,-9877.571693
477.543648,-918.843878,-478.564520,-10643.274925
477.546201,-1186.840010,1454.836141,-9418.149754
477.548753,2641.676150,1627.119368,-9801.001370
477.551305,803.988394,-1091.127106,-10394.421374
477.553857,861.416136,2239.681954,-9494.720077
477.556409,1167.697429,957.129040,-9896.714274
477.558961,765.703232,-19.142581,-10011.569758
477.561514,-76.570323,1990.828403,-9724.431046
477.564066,3081.955509,-38.285162,-10298.708470
477.566618,1397.408398,114.855485,-9705.288466
477.569178,306.281293,1550.549045,-9590.432981
477.571737,2258.824534,1186.840010,-9877.571693
477.574297,1722.832272,-440.279358,-10222.138147
477.576856,19.142581,1875.972918,-9379.864592
477.579416,3790.230998,-114.855485,-9724.431046
477.581975,1071.984525,516.849682,-10049.854920
477.584535,-1722.832272,1607.976787,-9724.431046
477.587094,-1244.267752,191.425808,-10413.563955
477.589654,153.140646,593.420005,-9628.718142
477.592213,1550.549045,1301.695494,-9111.868461
477.594773,2584.248408,899.701298,-10604.989763
477.597332,-1263.410333,-421.136778,-10011.569758
477.599892,-3043.670347,2699.103893,-9265.009107
477.602451,-937.986459,-401.994197,-10336.993632
477.605011,1301.695494,1320.838075,-9494.720077
477.607570,440.279358,976.271621,-10451.849117
477.610130,631.705166,344.566454,-9839.286531
477.612689,-574.277424,440.279358,-9820.143950
477.615249,229.710970,1320.838075,-9820.143950
477.617808,76.570323,344.566454,-9973.284597
477.620368,976.271621,0.000000,-10298.708470
477.622927,-727.418070,1971.685822,-9379.864592
477.625487,516.849682,-38.285162,-10509.276859
477.628046,-363.709035,1263.410333,-9839.286531
477.630606,-708.275490,1416.550979,-9513.862658
477.633165,-2182.254211,-478.564520,-10585.847182
477.635725,899.701298,1799.402595,-9628.718142
477.638284,-574.277424,-421.136778,-10126.425243
477.640844,-1856.830338,1397.408398,-10126.425243
477.643403,325.423874,248.853550,-9762.716208
477.645963,-363.709035,1875.972918,-10049.854920
477.648522,4173.082614,19.142581,-10317.851051
477.651082,1761.117434,287.138712,-9303.294269
477.653641,-650.847747,2143.969050,-10164.710405
477.656201,918.843878,-1282.552914,-10164.710405
477.658760,-1071.984525,2450.250342,-9801.001370
477.661320,114.855485,746.560651,-10088.140082
477.663879,5091.926493,-248.853550,-9686.145885
477.666439,1531.406464,1110.269686,-10107.282662
477.668998,-19.142581,1225.125171,-9762.716208
477.671564,0.000000,-38.285162,-10088.140082
477.674129,-287.138712,1665.404530,-9590.432981
477.676694,2699.103893,765.703232,-9877.571693
477.679259,2124.826469,19.142581,-10164.710405
477.681824,-976.271621,1320.838075,-9743.573627
477.684389,382.851616,555.134843,-9839.286531
477.686954,1627.119368,363.709035,-10260.423309
477.689519,689.132909,957.129040,-9839.286531
477.692084,2794.816797,1110.269686,-9896.714274
477.694649,1186.840010,440.279358,-9915.856854
477.697214,1244.267752,1569.691626,-9494.720077
477.699779,2163.111630,612.562586,-10145.567824
477.702344,899.701298,421.136778,-10164.710405
477.704909,2277.967115,459.421939,-9705.288466
477.707474,1148.554848,2143.969050,-9724.431046
477.710040,-1435.693560,-1244.267752,-10700.702667
477.712605,-937.986459,2679.961312,-9628.718142
477.715170,-382.851616,746.560651,-9686.145885
477.717735,1818.545176,-38.285162,-9571.290400
477.720300,1454.836141,1837.687757,-9934.999435
477.722865,-1454.836141,555.134843,-10107.282662
477.725430,-2565.105827,459.421939,-9973.284597
477.727995,-1148.554848,995.414202,-9571.290400
477.730560,861.416136,957.129040,-10107.282662
477.733125,325.423874,191.425808,-10432.706536
477.735690,516.849682,1091.127106,-9686.145885
477.738255,727.418070,-114.855485,-10126.425243
477.740820,-306.281293,267.996131,-9934.999435
477.743385,440.279358,2048.256146,-9475.577496
477.745950,344.566454,-401.994197,-10509.276859
477.748516,497.707101,765.703232,-9456.434915
477.751081,918.843878,1588.834206,-9724.431046
477.753646,-1569.691626,344.566454,-10279.565890
477.756211,-727.418070,172.283227,-9667.003304
477.758776,-1091.127106,1971.685822,-9781.858789
477.761341,689.132909,631.705166,-10375.278794
477.763906,-765.703232,-306.281293,-9915.856854
477.766471,-1875.972918,2335.394858,-9724.431046
477.769036,995.414202,-957.129040,-10126.425243
477.771601,708.275490,1205.982590,-9954.142016
477.774171,2871.387120,1627.119368,-9705.288466
477.776741,1971.685822,-555.134843,-9456.434915
477.779311,-1167.697429,1359.123237,-10394.421374
477.781881,172.283227,1110.269686,-9743.573627
477.784451,1320.838075,-861.416136,-10298.708470
477.787021,1607.976787,1646.261949,-10011.569758
477.789591,3043.670347,612.562586,-9418.149754
477.792161,2258.824534,363.709035,-10030.712339
477.794731,-861.416136,918.843878,-10222.138147
477.797301,95.712904,1129.412267,-9533.005238
477.799871,631.705166,133.998066,-9896.714274
477.802441,2258.824534,612.562586,-10049.854920
477.805011,1148.554848,1780.260014,-9628.718142
477.807581,-133.998066,-248.853550,-10566.704602
477.810151,823.130974,1282.552914,-9609.575562
477.812721,880.558717,1052.841944,-9992.427178
477.815291,2182.254211,-421.136778,-10260.423309
477.817861,1148.554848,2067.398726,-9341.579430
477.820430,1971.685822,306.281293,-9934.999435
477.823000,1416.550979,-95.712904,-10088.140082
477.825570,1282.552914,1627.119368,-9628.718142
477.828140,1646.261949,0.000000,-9781.858789
477.830710,803.988394,1014.556782,-9762.716208
477.833280,-1320.838075,593.420005,-10183.852986
477.835850,114.855485,1665.404530,-10068.997501
477.838420,-2316.252277,-38.285162,-10241.280728
477.840990,1531.406464,516.849682,-9494.720077
477.843560,3024.527766,1933.400661,-9934.999435
477.846130,-459.421939,-1703.689691,-11198.409768
477.848700,-2622.533570,2833.101958,-8805.587168
477.851270,-1550.549045,-114.855485,-10145.567824
477.853840,-114.855485,478.564520,-9915.856854
477.856414,478.564520,1607.976787,-9628.718142
477.858989,899.701298,267.996131,-10681.560086
477.861563,-267.996131,746.560651,-9513.862658
477.864138,210.568389,995.414202,-9839.286531
477.866712,325.423874,861.416136,-10164.710405
477.869286,421.136778,267.996131,-10107.282662
477.871861,-803.988394,1167.697429,-9839.286531
477.874435,861.416136,1091.127106,-9801.001370
477.877010,172.283227,133.998066,-10068.997501
477.879584,-1569.691626,1359.123237,-9858.429112
477.882158,-669.990328,-19.142581,-9896.714274
477.884733,0.000000,823.130974,-10260.423309
477.887307,-746.560651,689.132909,-9647.860723
477.889882,-2392.822600,440.279358,-10260.423309
477.892456,1569.691626,76.570323,-9992.427178
477.895030,421.136778,1550.549045,-9475.577496
477.897605,1397.408398,287.138712,-10260.423309
477.900179,2067.398726,1339.980656,-9245.866526
477.902754,574.277424,306.281293,-10451.849117
477.905328,-1320.838075,708.275490,-10470.991698
477.907902,1473.978722,267.996131,-9437.292334
477.910477,1339.980656,1282.552914,-10107.282662
477.913051,3292.523898,363.709035,-9762.716208
477.915625,2048.256146,306.281293,-9705.288466
477.918200,-1244.267752,1607.976787,-10241.280728
477.920774,-478.564520,-382.851616,-9896.714274
477.923349,1952.543242,1397.408398,-9724.431046
477.925923,1627.119368,1014.556782,-10145.567824
477.928497,612.562586,-210.568389,-9915.856854
477.931072,229.710970,1646.261949,-9858.429112
477.933646,899.701298,918.843878,-9858.429112
477.936221,497.707101,401.994197,-9896.714274
477.938795,2277.967115,957.129040,-9839.286531
477.941369,727.418070,421.136778,-9954.142016
477.943944,2201.396792,1033.699363,-10164.710405
477.946518,2182.254211,918.843878,-9801.001370
477.949093,-516.849682,976.271621,-9724.431046
477.951667,2258.824534,-535.992262,-10222.138147
477.954241,976.271621,1186.840010,-9456.434915
477.956816,-210.568389,784.845813,-10222.138147
477.959393,-2909.672282,-191.425808,-10375.278794
477.961970,803.988394,1071.984525,-9265.009107
477.964548,1416.550979,1225.125171,-9954.142016
477.967125,1148.554848,-344.566454,-10604.989763
477.969702,-1378.265818,2105.683888,-9743.573627
477.972280,-2009.970984,440.279358,-10126.425243
477.974857,-689.132909,-325.423874,-9781.858789
477.977434,1167.697429,2277.967115,-9743.573627
477.980012,133.998066,-535.992262,-10949.556218
477.982589,-535.992262,1014.556782,-9284.151688
477.985167,746.560651,1167.697429,-9762.716208
477.987744,-957.129040,-306.281293,-10375.278794
477.990321,1435.693560,1646.261949,-9686.145885
477.992899,842.273555,459.421939,-9877.571693
477.995476,-1837.687757,325.423874,-10336.993632
477.998053,631.705166,1052.841944,-10011.569758
478.000631,210.568389,612.562586,-9762.716208
478.003208,-1990.828403,516.849682,-10298.708470
478.005785,-612.562586,823.130974,-10068.997501
478.008363,-650.847747,574.277424,-9475.577496
478.010940,-2986.242605,708.275490,-10719.845248
478.013517,2373.680019,-76.570323,-9705.288466
478.016095,842.273555,2277.967115,-9533.005238
478.018672,2373.680019,-555.134843,-10738.987829
478.021249,1971.685822,1741.974853,-8920.442653
478.023827,191.425808,746.560651,-10681.560086
478.026404,-861.416136,306.281293,-10451.849117
478.028981,1435.693560,861.416136,-9265.009107
478.031559,1033.699363,995.414202,-10202.995566
478.034136,4000.799387,421.136778,-9609.575562
478.036713,1473.978722,861.416136,-9934.999435
478.039291,-1129.412267,1244.267752,-10011.569758
478.041868,229.710970,267.996131,-9896.714274
478.044445,2545.963246,1607.976787,-9724.431046
478.047023,1512.263883,306.281293,-10126.425243
478.049600,-478.564520,0.000000,-9992.427178
478.052177,650.847747,1684.547110,-9839.286531
478.054755,976.271621,191.425808,-10049.854920
478.057332,191.425808,612.562586,-10145.567824
478.059909,2622.533570,1588.834206,-9475.577496
478.062489,1129.412267,153.140646,-9896.714274
478.065069,1875.972918,708.275490,-10011.569758
478.067649,2086.541307,1473.978722,-9456.434915
478.070229,1397.408398,421.136778,-10202.995566
478.072809,325.423874,363.709035,-9954.142016
478.075389,689.132909,1129.412267,-9628.718142
478.077968,612.562586,1435.693560,-10490.134278
478.080548,-2431.107762,-784.845813,-10107.282662
478.083128,823.130974,1646.261949,-9494.720077
478.085708,1531.406464,1244.267752,-9686.145885
478.088288,95.712904,-650.847747,-10738.987829
478.090868,-2392.822600,3235.096155,-9245.866526
478.093448,-459.421939,-612.562586,-10241.280728
478.096027,-133.998066,0.000000,-9820.143950
478.098607,899.701298,2660.818731,-9475.577496
478.101187,95.712904,-1148.554848,-10930.413637
478.103767,-210.568389,1665.404530,-9322.436850
478.106347,306.281293,555.134843,-9686.145885
478.108927,-38.285162,363.709035,-10451.849117
478.111507,1397.408398,995.414202,-9667.003304
478.114086,612.562586,689.132909,-9762.716208
478.116666,-823.130974,1052.841944,-10241.280728
478.119246,344.566454,-76.570323,-10011.569758
478.121826,-937.986459,1282.552914,-9820.143950
478.124406,-401.994197,861.416136,-10164.710405
478.126986,-1263.410333,-727.418070,-10222.138147
478.129566,-1167.697429,2967.100024,-9628.718142
478.132145,-1071.984525,-612.562586,-10413.563955
478.134725,1014.556782,803.988394,-9705.288466
478.137305,4058.227130,555.134843,-10088.140082
478.139885,401.994197,-957.129040,-9877.571693
478.142465,421.136778,2431.107762,-9667.003304
478.145045,2124.826469,-248.853550,-10356.136213
478.147625,-995.414202,1416.550979,-10030.712339
478.150204,555.134843,440.279358,-9552.147819
478.152784,3981.656806,1167.697429,-9437.292334
478.155364,727.418070,153.140646,-10643.274925
478.157944,1282.552914,727.418070,-9705.288466
478.160524,1244.267752,1225.125171,-9743.573627
478.163104,-918.843878,-650.847747,-10566.704602
478.165686,1914.258080,1799.402595,-9245.866526
478.168268,2220.539373,478.564520,-9934.999435
478.170849,-1320.838075,-172.283227,-10470.991698
478.173431,1684.547110,1627.119368,-9494.720077
478.176013,995.414202,535.992262,-10222.138147
478.178595,995.414202,-38.285162,-10107.282662
478.181177,1818.545176,880.558717,-9437.292334
478.183759,3158.525832,957.129040,-10490.134278
478.186341,2029.113565,-172.283227,-9954.142016
478.188922,-344.566454,1531.406464,-9590.432981
478.191504,1493.121302,229.710970,-10298.708470
478.194086,1397.408398,287.138712,-9858.429112
478.196668,-133.998066,1435.693560,-10011.569758
478.199250,-1110.269686,574.277424,-9896.714274
478.201832,248.853550,344.566454,-9915.856854
478.204414,248.853550,2488.535504,-9265.009107
478.206995,516.849682,-708.275490,-10987.841379
478.209577,-1799.402595,1320.838075,-9915.856854
478.212159,-1512.263883,1703.689691,-9609.575562
478.214741,267.996131,-689.132909,-10202.995566
478.217323,229.710970,1665.404530,-9705.288466
478.219905,689.132909,593.420005,-10068.997501
478.222487,-191.425808,861.416136,-10011.569758
478.225068,-382.851616,535.992262,-9954.142016
478.227650,153.140646,1320.838075,-9647.860723
478.230232,535.992262,689.132909,-10432.706536
478.232814,76.570323,-267.996131,-9954.142016
478.235396,-937.986459,2507.678085,-9379.864592
478.237978,421.136778,-823.130974,-11102.696864
478.240560,-1225.125171,478.564520,-9533.005238
478.243141,-95.712904,2507.678085,-9379.864592
478.245723,-937.986459,-1722.832272,-11006.983960
478.248305,-1856.830338,2182.254211,-9111.868461
478.250887,1033.699363,516.849682,-10164.710405
478.253469,401.994197,631.705166,-10279.565890
478.256051,3790.230998,535.992262,-9533.005238
478.258633,727.418070,153.140646,-9743.573627
478.261214,267.996131,1014.556782,-10451.849117
478.263796,1627.119368,-306.281293,-9801.001370
478.266378,-803.988394,2679.961312,-9552.147819
478.268961,937.986459,-593.420005,-10528.419440
478.271544,3541.377448,1761.117434,-9111.868461
478.274127,2029.113565,880.558717,-10145.567824
478.276710,-229.710970,0.000000,-10547.562021
478.279293,287.138712,1397.408398,-9322.436850
478.281876,631.705166,363.709035,-10183.852986
478.284458,669.990328,574.277424,-9973.284597
478.287041,2239.681954,593.420005,-9571.290400
478.289624,153.140646,1339.980656,-10145.567824
478.292207,784.845813,191.425808,-10088.140082
478.294790,2009.970984,937.986459,-9705.288466
478.297373,631.705166,803.988394,-10394.421374
478.299956,2660.818731,555.134843,-9877.571693
478.302539,2928.814862,1052.841944,-9743.573627
478.305121,535.992262,1301.695494,-10164.710405
478.307704,1014.556782,-746.560651,-9954.142016
478.310287,401.994197,2086.541307,-9571.290400
478.312870,421.136778,248.853550,-10451.849117
478.315453,1416.550979,957.129040,-10183.852986
478.318036,-2297.109696,1837.687757,-9801.001370
478.320619,957.129040,-1052.841944,-10336.993632
478.323202,1397.408398,1550.549045,-9647.860723
478.325785,-593.420005,382.851616,-10298.708470
478.328367,-1493.121302,1359.123237,-9992.427178
478.330950,-421.136778,-363.709035,-10030.712339
478.333533,-497.707101,1129.412267,-9437.292334
478.336116,325.423874,1588.834206,-10164.710405
478.338699,459.421939,-823.130974,-10643.274925
478.341282,-440.279358,1914.258080,-9131.011042
478.343865,459.421939,-382.851616,-10413.563955
478.346448,574.277424,344.566454,-9954.142016
478.349031,669.990328,2086.541307,-9686.145885
478.351613,-976.271621,-535.992262,-10528.419440
478.354196,497.707101,689.132909,-9705.288466
478.356779,-1263.410333,1569.691626,-9820.143950
478.359362,-267.996131,-344.566454,-10356.136213
478.361945,-976.271621,976.271621,-9954.142016
478.364528,-1531.406464,2067.398726,-9705.288466
478.367111,-555.134843,-344.566454,-10317.851051
478.369694,1014.556782,899.701298,-10183.852986
478.372277,2105.683888,1607.976787,-9456.434915
478.374861,574.277424,-1129.412267,-10107.282662
478.377445,535.992262,2679.961312,-9781.858789
478.380028,1837.687757,114.855485,-9877.571693
478.382612,-918.843878,1071.984525,-10317.851051
478.385196,1339.980656,555.134843,-9533.005238
478.387780,3101.098090,1052.841944,-9092.725880
478.390363,957.129040,478.564520,-10796.415571
478.392947,1205.982590,861.416136,-9456.434915
478.395531,-191.425808,1569.691626,-9820.143950
478.398114,689.132909,38.285162,-10470.991698
478.400698,2029.113565,1531.406464,-8901.300072
478.403282,631.705166,880.558717,-10413.563955
478.405866,-746.560651,191.425808,-10298.708470
478.408449,1627.119368,1110.269686,-9456.434915
478.411033,842.273555,842.273555,-10222.138147
478.413617,746.560651,-76.570323,-10126.425243
478.416200,3101.098090,1990.828403,-9245.866526
478.418784,2545.963246,267.996131,-9896.714274
478.421368,-57.427742,478.564520,-9724.431046
478.423952,2163.111630,1186.840010,-9628.718142
478.426535,344.566454,1588.834206,-10145.567824
478.429119,-669.990328,-1167.697429,-10432.706536
478.431703,1225.125171,2833.101958,-9437.292334
478.434286,-1627.119368,287.138712,-10202.995566
478.436870,325.423874,-880.558717,-10356.136213
478.439454,1856.830338,2794.816797,-8824.729749
478.442038,-669.990328,-593.420005,-10643.274925
478.444621,-1933.400661,1167.697429,-9839.286531
478.447205,-363.709035,937.986459,-9494.720077
478.449789,555.134843,421.136778,-10222.138147
478.452373,-229.710970,516.849682,-9954.142016
478.454956,650.847747,1071.984525,-10145.567824
478.457540,-765.703232,1052.841944,-10030.712339
478.460124,95.712904,-421.136778,-9820.143950
478.462707,1071.984525,2335.394858,-9877.571693
478.465291,861.416136,-114.855485,-10260.423309
478.467875,-746.560651,229.710970,-9609.575562
478.470459,-1186.840010,2201.396792,-9858.429112
478.473042,-363.709035,-421.136778,-10222.138147
478.475603,306.281293,899.701298,-9858.429112
478.478164,-2679.961312,918.843878,-9839.286531
478.480726,-1091.127106,421.136778,-10145.567824
478.483287,1148.554848,459.421939,-10164.710405
478.485848,-574.277424,2220.539373,-9609.575562
478.488410,3101.098090,-823.130974,-10317.851051
478.490971,1282.552914,708.275490,-9303.294269
478.493532,-784.845813,2182.254211,-9858.429112
478.496094,2526.820666,-995.414202,-10872.985894
478.498655,363.709035,1990.828403,-9628.718142
478.501216,-401.994197,401.994197,-9628.718142
478.503777,3215.953574,784.845813,-9743.573627
478.506339,1646.261949,382.851616,-10222.138147
478.508900,-172.283227,1607.976787,-9781.858789
478.511461,-153.140646,287.138712,-10317.851051
478.514023,2201.396792,650.847747,-9437.292334
478.516584,803.988394,1416.550979,-9667.003304
478.519145,38.285162,-248.853550,-10451.849117
478.521707,861.416136,976.271621,-9877.571693
478.524268,842.273555,1684.547110,-9705.288466
478.526829,650.847747,-784.845813,-10317.851051
478.529391,1473.978722,1320.838075,-9858.429112
478.531952,3483.949706,1129.412267,-9801.001370
478.534513,2124.826469,153.140646,-9896.714274
478.537075,114.855485,1588.834206,-9647.860723
478.539636,593.420005,593.420005,-9992.427178
478.542197,708.275490,172.283227,-10202.995566
478.544758,1052.841944,1818.545176,-9533.005238
478.547320,-2182.254211,19.142581,-9934.999435
478.549881,-57.427742,172.283227,-10375.278794
478.552442,593.420005,1722.832272,-9303.294269
478.555004,516.849682,574.277424,-10470.991698
478.557565,-1339.980656,1263.410333,-9877.571693
478.560126,-535.992262,1052.841944,-9245.866526
478.562688,746.560651,229.710970,-10298.708470
478.565249,0.000000,957.129040,-9781.858789
478.567810,38.285162,459.421939,-9896.714274
478.570372,-344.566454,1588.834206,-9820.143950
478.572933,765.703232,-612.562586,-9915.856854
478.575494,-248.853550,1588.834206,-9552.147819
478.578059,-38.285162,669.990328,-10490.134278
478.580625,535.992262,-172.283227,-9896.714274
478.583190,-1493.121302,2411.965181,-9303.294269
478.585755,-976.271621,114.855485,-10490.134278
478.588320,574.277424,746.560651,-10011.569758
478.590885,-2048.256146,803.988394,-9628.718142
478.593450,-1799.402595,976.271621,-10298.708470
478.596016,1320.838075,421.136778,-10068.997501
478.598581,0.000000,1703.689691,-9647.860723
478.601146,3177.668413,-497.707101,-10126.425243
478.603711,899.701298,287.138712,-9341.579430
478.606276,-306.281293,2163.111630,-9877.571693
478.608842,2622.533570,-516.849682,-10604.989763
478.611407,-19.142581,1895.115499,-9647.860723
478.613972,57.427742,344.566454,-9628.718142
478.616537,3713.660675,593.420005,-9839.286531
478.619102,1301.695494,574.277424,-10145.567824
478.621667,478.564520,1607.976787,-9801.001370
478.624233,1052.841944,669.990328,-10107.282662
478.626798,133.998066,114.855485,-9590.432981
478.629363,784.845813,1895.115499,-9839.286531
478.631928,2488.535504,0.000000,-10298.708470
478.634493,191.425808,593.420005,-9839.286531
478.637059,-287.138712,1301.695494,-10030.712339
478.639624,1359.123237,-401.994197,-10375.278794
478.642189,2775.674216,1148.554848,-9360.722011
478.644754,2545.963246,1014.556782,-9801.001370
478.647319,1225.125171,57.427742,-10107.282662
478.649885,650.847747,803.988394,-9609.575562
478.652450,38.285162,1531.406464,-9992.427178
478.655015,-95.712904,-95.712904,-10547.562021
478.657580,1971.685822,1895.115499,-9494.720077
478.660145,-2718.246474,306.281293,-10088.140082
478.662710,421.136778,-229.710970,-10547.562021
478.665276,1320.838075,1703.689691,-9322.436850
478.667841,-593.420005,612.562586,-10853.843314
478.670406,-1780.260014,976.271621,-9762.716208
478.672971,306.281293,669.990328,-9379.864592
478.675536,650.847747,765.703232,-10183.852986
478.678102,19.142581,976.271621,-9628.718142
478.680648,-248.853550,344.566454,-10260.423309
478.683194,-325.423874,1703.689691,-9743.573627
478.685740,631.705166,-669.990328,-9896.714274
478.688286,-172.283227,1761.117434,-9705.288466
478.690832,-727.418070,1282.552914,-9973.284597
478.693379,325.423874,-535.992262,-10011.569758
478.695925,-861.416136,2584.248408,-9609.575562
478.698471,-401.994197,-95.712904,-10068.997501
478.701017,-1493.121302,306.281293,-10030.712339
478.703563,-1091.127106,2048.256146,-9322.436850
478.706109,-1799.402595,-287.138712,-10681.560086
478.708656,1569.691626,306.281293,-9781.858789
478.711202,689.132909,1990.828403,-9437.292334
478.713748,1512.263883,421.136778,-10241.280728
478.716294,1378.265818,1244.267752,-9494.720077
478.718840,1282.552914,1473.978722,-10145.567824
478.721386,650.847747,784.845813,-10700.702667
478.723933,1741.974853,-19.142581,-9513.862658
478.726479,267.996131,1550.549045,-9705.288466
478.729025,2067.398726,708.275490,-9743.573627
478.731571,1914.258080,-459.421939,-10068.997501
478.734117,-306.281293,2392.822600,-10126.425243
478.736663,1569.691626,-516.849682,-10183.852986
478.739210,727.418070,555.134843,-9820.143950
478.741756,1320.838075,1837.687757,-9781.858789
478.744302,1071.984525,-248.853550,-10049.854920
478.746848,746.560651,937.986459,-10394.421374
478.749394,287.138712,1225.125171,-9820.143950
478.751940,1665.404530,-210.568389,-9762.716208
478.754487,3120.240670,784.845813,-10183.852986
478.757033,3043.670347,1282.552914,-9743.573627
478.759579,937.986459,57.427742,-10222.138147
478.762125,344.566454,995.414202,-9973.284597
478.764671,650.847747,899.701298,-9475.577496
478.767217,1531.406464,669.990328,-10222.138147
478.769764,-1512.263883,267.996131,-9973.284597
478.772310,-172.283227,1225.125171,-9418.149754
478.774856,172.283227,421.136778,-10068.997501
478.777402,19.142581,631.705166,-10356.136213
478.779948,-1665.404530,1875.972918,-9954.142016
478.782479,95.712904,-57.427742,-10279.565890
478.785009,401.994197,421.136778,-9456.434915
478.787540,95.712904,1799.402595,-9973.284597
478.790070,57.427742,-1033.699363,-10930.413637
478.792601,363.709035,1971.685822,-8997.012976
478.795131,-325.423874,114.855485,-10681.560086
478.797662,593.420005,344.566454,-10030.712339
478.800193,1225.125171,1799.402595,-9513.862658
478.802723,-1033.699363,76.570323,-10777.272990
478.805254,-1627.119368,459.421939,-9915.856854
478.807784,995.414202,1339.980656,-9533.005238
478.810315,-2143.969050,306.281293,-10432.706536
478.812845,-1435.693560,478.564520,-10068.997501
478.815376,-1110.269686,1091.127106,-9877.571693
478.817906,1301.695494,325.423874,-10183.852986
478.820437,516.849682,401.994197,-10030.712339
478.822967,1167.697429,1359.123237,-9571.290400
478.825498,1933.400661,478.564520,-9801.001370
478.828028,861.416136,153.140646,-10490.134278
478.830559,1091.127106,1895.115499,-10107.282662
478.833090,1339.980656,229.710970,-10011.569758
478.835620,0.000000,57.427742,-9667.003304
478.838151,1952.543242,1684.547110,-9915.856854
478.840681,1952.543242,-38.285162,-10356.136213
478.843212,-95.712904,803.988394,-9896.714274
478.845742,1148.554848,1493.121302,-9647.860723
478.848273,1359.123237,-57.427742,-9934.999435
478.850803,19.142581,-19.142581,-10049.854920
478.853334,765.703232,2431.107762,-9686.145885
478.855864,3579.662610,-229.710970,-10260.423309
478.858395,-2067.398726,19.142581,-9973.284597
478.860925,2431.107762,2182.254211,-9647.860723
478.863456,4938.785846,-746.560651,-10011.569758
478.865986,669.990328,1225.125171,-9705.288466
478.868517,555.134843,1473.978722,-9667.003304
478.871048,803.988394,248.853550,-10317.851051
478.873578,-1091.127106,267.996131,-10107.282662
478.876109,2297.109696,2718.246474,-9150.153622
478.878639,-1550.549045,-1129.412267,-10738.987829
478.881170,-478.564520,363.709035,-9858.429112
478.883709,765.703232,2182.254211,-9379.864592
478.886248,-382.851616,-1263.410333,-11236.694930
478.888788,-1473.978722,1684.547110,-9150.153622
478.891327,287.138712,1091.127106,-9590.432981
478.893866,937.986459,-631.705166,-10604.989763
478.896405,-76.570323,1493.121302,-9628.718142
478.898945,-38.285162,937.986459,-10202.995566
478.901484,-459.421939,210.568389,-9839.286531
478.904023,267.996131,823.130974,-9590.432981
478.906563,19.142581,1167.697429,-10126.425243
478.909102,-1263.410333,114.855485,-10164.710405
478.911641,1397.408398,1339.980656,-9781.858789
478.914180,-2277.967115,1071.984525,-9877.571693
478.916720,19.142581,-325.423874,-10298.708470
478.919259,-1473.978722,1110.269686,-9686.145885
478.921798,-1914.258080,1493.121302,-9820.143950
478.924338,976.271621,-363.709035,-10681.560086
478.926877,689.132909,2737.389054,-9418.149754
478.929416,2928.814862,-669.990328,-10222.138147
478.931955,-153.140646,114.855485,-9475.577496
478.934495,727.418070,2297.109696,-9839.286531
478.937034,3445.664544,-650.847747,-10643.274925
478.939573,-287.138712,1952.543242,-9858.429112
478.942113,440.279358,248.853550,-9456.434915
478.944652,1875.972918,1301.695494,-9571.290400
478.947191,1741.974853,344.566454,-10585.847182
478.949730,765.703232,1339.980656,-9628.718142
478.952270,0.000000,899.701298,-10164.710405
478.954809,306.281293,-401.994197,-9896.714274
478.957348,1282.552914,2354.537438,-9131.011042
478.959887,1014.556782,210.568389,-10356.136213
478.962427,1588.834206,-153.140646,-9954.142016
478.964966,-478.564520,2297.109696,-9609.575562
478.967505,2411.965181,-114.855485,-10145.567824
478.970045,1952.543242,650.847747,-9724.431046
478.972584,1914.258080,1990.828403,-9724.431046
478.975123,1493.121302,-172.283227,-10202.995566
478.977662,19.142581,1186.840010,-9801.001370
478.980202,-153.140646,1588.834206,-9762.716208
478.982741,2431.107762,363.709035,-9954.142016
478.985288,-2239.681954,153.140646,-10145.567824
478.987835,-287.138712,1378.265818,-9379.864592
478.990382,229.710970,880.558717,-9973.284597
478.992929,-459.421939,153.140646,-10470.991698
478.995476,-2220.539373,1875.972918,-9245.866526
478.998023,574.277424,114.855485,-10222.138147
479.000569,76.570323,-19.142581,-9686.145885
479.003116,-382.851616,2411.965181,-9743.573627
479.005663,1110.269686,-823.130974,-11102.696864
479.008210,-1129.412267,976.271621,-9265.009107
479.010757,-382.851616,1646.261949,-9992.427178
479.013304,1512.263883,-478.564520,-10049.854920
479.015851,-1473.978722,1225.125171,-9667.003304
479.018398,-76.570323,957.129040,-10643.274925
479.020945,-1071.984525,-95.712904,-10068.997501
479.023492,-38.285162,1397.408398,-9647.860723
479.026039,-2086.541307,421.136778,-9954.142016
479.028586,-1397.408398,344.566454,-10241.280728
479.031133,1320.838075,727.418070,-9858.429112
479.033679,287.138712,1990.828403,-9609.575562
479.036226,2163.111630,-669.990328,-10758.130410
479.038773,-344.566454,76.570323,-9188.438784
479.041320,842.273555,1531.406464,-10107.282662
479.043867,3464.807125,-1378.265818,-10872.985894
479.046414,440.279358,2909.672282,-9245.866526
479.048961,95.712904,-306.281293,-10164.710405
479.051508,1033.699363,210.568389,-9647.860723
479.054055,2239.681954,1378.265818,-9839.286531
479.056602,1186.840010,765.703232,-10375.278794
479.059149,803.988394,287.138712,-10049.854920
479.061696,727.418070,880.558717,-9494.720077
479.064242,689.132909,976.271621,-9762.716208
479.066796,421.136778,76.570323,-10107.282662
479.069349,976.271621,1895.115499,-9877.571693
479.071902,842.273555,746.560651,-9934.999435
479.074455,708.275490,-133.998066,-10107.282662
479.077008,3866.801322,1818.545176,-9475.577496
479.079561,2890.529701,689.132909,-10011.569758
479.082114,-38.285162,57.427742,-10164.710405
479.084667,401.994197,2067.398726,-9647.860723
479.087220,344.566454,-1014.556782,-10375.278794
479.089773,1741.974853,1761.117434,-9839.286531
479.092326,-1627.119368,1186.840010,-9571.290400
479.094879,306.281293,-1091.127106,-10317.851051
479.097432,-153.140646,2029.113565,-9628.718142
479.099985,-114.855485,555.134843,-10451.849117
479.102538,-1646.261949,784.845813,-9973.284597
479.105091,344.566454,535.992262,-9494.720077
479.107644,937.986459,880.558717,-9705.288466
479.110197,-765.703232,880.558717,-10336.993632
479.112750,1033.699363,19.142581,-10260.423309
479.115303,-899.701298,2029.113565,-9456.434915
479.117857,-19.142581,-478.564520,-10604.989763
479.120410,1339.980656,440.279358,-9743.573627
479.122963,-172.283227,2392.822600,-9609.575562
479.125516,-1339.980656,-612.562586,-10451.849117
479.128069,-153.140646,842.273555,-9858.429112
479.130622,-1225.125171,1014.556782,-9628.718142
479.133175,-1875.972918,57.427742,-10413.563955
479.135728,-401.994197,995.414202,-9954.142016
479.138281,1378.265818,1091.127106,-9858.429112
479.140834,325.423874,287.138712,-10164.710405
479.143387,344.566454,708.275490,-10107.282662
479.145940,1856.830338,1665.404530,-8748.159426
479.148493,1033.699363,19.142581,-10834.700733
479.151046,2277.967115,746.560651,-10336.993632
479.153599,1569.691626,516.849682,-9475.577496
479.156152,-421.136778,-210.568389,-10432.706536
479.158705,784.845813,1646.261949,-9265.009107
479.161258,2545.963246,555.134843,-10183.852986
479.163811,1550.549045,344.566454,-10738.987829
479.166364,-746.560651,957.129040,-9207.581365
479.168923,937.986459,1052.841944,-9781.858789
479.171481,1148.554848,172.283227,-10222.138147
479.174040,1684.547110,995.414202,-9705.288466
479.176598,-76.570323,1014.556782,-10490.134278
479.179157,1971.685822,363.709035,-10088.140082
479.181715,2335.394858,1110.269686,-9399.007173
479.184274,3235.096155,1359.123237,-9724.431046
479.186832,727.418070,-267.996131,-10298.708470
479.189391,382.851616,1378.265818,-9743.573627
479.191949,1244.267752,1454.836141,-9781.858789
479.194508,1052.841944,-516.849682,-10624.132344
479.197066,-593.420005,1014.556782,-9820.143950
479.199625,248.853550,325.423874,-9820.143950
479.202183,-363.709035,727.418070,-10088.140082
479.204742,-497.707101,1033.699363,-10202.995566
479.207300,-1531.406464,1071.984525,-9877.571693
479.209859,823.130974,593.420005,-9839.286531
479.212417,248.853550,842.273555,-9552.147819
479.214976,976.271621,1148.554848,-9915.856854
479.217534,-861.416136,-497.707101,-10700.702667
479.220093,153.140646,2048.256146,-9111.868461
479.222651,325.423874,-57.427742,-10279.565890
479.225210,401.994197,459.421939,-9762.716208
479.227768,-114.855485,2048.256146,-9647.860723
479.230327,478.564520,-267.996131,-10643.274925
479.232885,-478.564520,1454.836141,-9647.860723
479.235444,-1895.115499,382.851616,-10107.282662
479.238002,-1225.125171,631.705166,-9973.284597
479.240561,-1014.556782,344.566454,-9839.286531
479.243119,1186.840010,1129.412267,-10202.995566
479.245678,1033.699363,918.843878,-9628.718142
479.248236,248.853550,-191.425808,-10432.706536
479.250795,1225.125171,2431.107762,-8652.446522
479.253353,3024.527766,-1378.265818,-10758.130410
479.255912,1454.836141,1971.685822,-10088.140082
479.258470,1148.554848,803.988394,-9456.434915
479.261029,-133.998066,-842.273555,-10490.134278
479.263587,650.847747,1799.402595,-9456.434915
479.266146,2718.246474,650.847747,-9839.286531
479.268704,1473.978722,0.000000,-10796.415571
479.271267,-478.564520,937.986459,-9590.432981
479.273830,1205.982590,1033.699363,-9533.005238
479.276393,1339.980656,669.990328,-10279.565890
479.278955,191.425808,325.423874,-9705.288466
479.281518,880.558717,1339.980656,-10260.423309
479.284081,2507.678085,497.707101,-10413.563955
479.286644,2239.681954,-172.283227,-9571.290400
479.289206,1837.687757,2048.256146,-9513.862658
479.291769,2239.681954,-689.132909,-10451.849117
479.294332,-19.142581,1282.552914,-9820.143950
479.296895,191.425808,1359.123237,-9839.286531
479.299457,2833.101958,1225.125171,-9571.290400
479.302020,-1837.687757,555.134843,-9839.286531
479.304583,-708.275490,248.853550,-10279.565890
479.307146,229.710970,1263.410333,-9801.001370
479.309708,210.568389,-153.140646,-10662.417506
479.312271,-2182.254211,1512.263883,-9781.858789
479.314834,1148.554848,401.994197,-10107.282662
479.317397,535.992262,306.281293,-9456.434915
479.319959,57.427742,1741.974853,-9858.429112
479.322522,-1454.836141,-306.281293,-10490.134278
479.325085,210.568389,2029.113565,-9341.579430
479.327648,1493.121302,172.283227,-10528.419440
479.330210,-133.998066,574.277424,-9839.286531
479.332773,-325.423874,1071.984525,-9762.716208
479.335336,-76.570323,669.990328,-10681.560086
479.337899,229.710970,861.416136,-9399.007173
479.340461,-2928.814862,401.994197,-10068.997501
479.343024,-1703.689691,1588.834206,-10126.425243
479.345587,2660.818731,-19.142581,-9590.432981
479.348150,19.142581,2335.394858,-10164.710405
479.350712,1780.260014,38.285162,-10068.997501
479.353275,-153.140646,-765.703232,-9571.290400
479.355838,1071.984525,2507.678085,-9954.142016
479.358401,3828.516160,-631.705166,-10107.282662
479.360963,899.701298,1646.261949,-9934.999435
479.363526,382.851616,593.420005,-9743.573627
479.366089,287.138712,421.136778,-8977.870395
479.368652,1550.549045,918.843878,-10547.562021
479.371214,1588.834206,1110.269686,-9973.284597
479.373781,2411.965181,899.701298,-9705.288466
479.376347,-803.988394,19.142581,-10164.710405
479.378914,287.138712,1320.838075,-9820.143950
479.381481,1895.115499,937.986459,-9801.001370
479.384047,880.558717,-133.998066,-9915.856854
479.386614,287.138712,1607.976787,-10145.567824
479.389180,1722.832272,153.140646,-10088.140082
479.391747,3617.947771,976.271621,-9456.434915
479.394314,650.847747,1627.119368,-9877.571693
479.396880,842.273555,-344.566454,-10202.995566
479.399447,1761.117434,1282.552914,-9705.288466
479.402013,861.416136,1282.552914,-10145.567824
479.404580,38.285162,114.855485,-9877.571693
479.407146,-363.709035,1301.695494,-9513.862658
479.409713,-1378.265818,995.414202,-9647.860723
479.412280,-363.709035,-650.847747,-10968.698798
479.414846,-669.990328,1990.828403,-9705.288466
479.417413,1033.699363,1148.554848,-9475.577496
479.419979,-363.709035,-899.701298,-10145.567824
479.422546,114.855485,1780.260014,-10030.712339
479.425112,689.132909,555.134843,-9992.427178
479.427679,-765.703232,459.421939,-10145.567824
479.430246,-133.998066,899.701298,-9915.856854
479.432812,823.130974,784.845813,-9494.720077
479.435379,612.562586,823.130974,-10298.708470
479.437945,-593.420005,765.703232,-9954.142016
479.440512,191.425808,1282.552914,-9628.718142
479.443078,-2507.678085,-440.279358,-10547.562021
479.445645,-1990.828403,1129.412267,-9877.571693
479.448212,-191.425808,1225.125171,-9494.720077
479.450778,1512.263883,-133.998066,-10509.276859
479.453345,535.992262,1646.261949,-10030.712339
479.455911,-287.138712,459.421939,-10107.282662
479.458478,1703.689691,497.707101,-10011.569758
479.461044,3196.810994,708.275490,-9781.858789
479.463611,1741.974853,1550.549045,-9973.284597
479.466178,976.271621,-516.849682,-10145.567824
479.468744,-19.142581,1244.267752,-9513.862658
479.471311,765.703232,574.277424,-9839.286531
479.473877,2565.105827,344.566454,-10394.421374
479.476447,593.420005,1071.984525,-9915.856854
479.479017,-421.136778,-421.136778,-10432.706536
479.481587,861.416136,1301.695494,-9513.862658
479.484157,1263.410333,1033.699363,-9973.284597
479.486727,-19.142581,38.285162,-10432.706536
479.489297,2143.969050,1512.263883,-9724.431046
479.491867,1493.121302,440.279358,-9915.856854
479.494436,2737.389054,1167.697429,-9628.718142
479.497006,899.701298,765.703232,-9705.288466
479.499576,1301.695494,669.990328,-10107.282662
479.502146,899.701298,937.986459,-10068.997501
479.504716,2029.113565,440.279358,-9686.145885
479.507286,-1397.408398,1071.984525,-10126.425243
479.509856,-421.136778,459.421939,-9801.001370
479.512426,-1071.984525,401.994197,-9609.575562
479.514996,-689.132909,1703.689691,-10394.421374
479.517566,-344.566454,0.000000,-10317.851051
479.520136,191.425808,1359.123237,-9686.145885
479.522706,-861.416136,516.849682,-9590.432981
479.525276,-440.279358,784.845813,-10088.140082
479.527846,1244.267752,669.990328,-10202.995566
479.530416,-248.853550,1167.697429,-9533.005238
479.532986,-574.277424,153.140646,-10222.138147
479.535556,1091.127106,555.134843,-9571.290400
479.538126,478.564520,918.843878,-9762.716208
479.540696,-2009.970984,708.275490,-10183.852986
479.543266,727.418070,765.703232,-9571.290400
479.545836,-2718.246474,861.416136,-10126.425243
479.548406,-2928.814862,650.847747,-10202.995566
479.550976,2182.254211,746.560651,-9820.143950
479.553546,1205.982590,1588.834206,-10011.569758
479.556116,842.273555,-344.566454,-10107.282662
479.558686,-421.136778,555.134843,-9647.860723
479.561256,1588.834206,1837.687757,-9877.571693
479.563826,3771.088418,-1110.269686,-9934.999435
479.566396,1531.406464,2603.390989,-9781.858789
479.568966,976.271621,-210.568389,-10107.282662
479.571536,-459.421939,784.845813,-9226.723946
479.574106,1129.412267,1627.119368,-10356.136213
479.576676,2718.246474,19.142581,-10222.138147
479.579249,133.998066,1033.699363,-9934.999435
479.581821,133.998066,478.564520,-10030.712339
479.584394,1588.834206,1033.699363,-9609.575562
479.586966,306.281293,478.564520,-10451.849117
479.589539,421.136778,823.130974,-9915.856854
479.592111,2660.818731,1531.406464,-9934.999435
479.594684,2756.531635,363.709035,-9992.427178
479.597257,516.849682,995.414202,-9552.147819
479.599829,2067.398726,248.853550,-10298.708470
479.602402,880.558717,1033.699363,-9801.001370
479.604974,-363.709035,210.568389,-10317.851051
479.607547,2967.100024,2029.113565,-9839.286531
479.610119,-2105.683888,-708.275490,-10030.712339
479.612692,-1722.832272,535.992262,-10317.851051
479.615265,38.285162,1895.115499,-9360.722011
479.617837,976.271621,-1205.982590,-10758.130410
479.620410,-2277.967115,1990.828403,-9705.288466
479.622982,1722.832272,650.847747,-9494.720077
479.625555,650.847747,229.710970,-9686.145885
479.628127,-1186.840010,1990.828403,-10068.997501
479.630700,-133.998066,-19.142581,-10413.563955
479.633273,612.562586,1282.552914,-9418.149754
479.635845,76.570323,823.130974,-9896.714274
479.638418,-440.279358,-114.855485,-10222.138147
479.640990,287.138712,1512.263883,-9724.431046
479.643563,401.994197,803.988394,-9973.284597
479.646135,-2775.674216,229.710970,-10336.993632
479.648708,-2392.822600,1493.121302,-9533.005238
479.651281,918.843878,574.277424,-9858.429112
479.653853,1473.978722,957.129040,-10356.136213
479.656426,727.418070,631.705166,-9571.290400
479.658998,114.855485,459.421939,-10011.569758
479.661571,1129.412267,1301.695494,-9781.858789
479.664143,3024.527766,-38.285162,-9934.999435
479.666716,2163.111630,1895.115499,-10107.282662
479.669289,1971.685822,153.140646,-9820.143950
479.671861,210.568389,593.420005,-9341.579430
479.674434,593.420005,1569.691626,-10164.710405
479.677006,2641.676150,-153.140646,-10030.712339
479.679579,1148.554848,1397.408398,-9820.143950
479.682154,-19.142581,478.564520,-10030.712339
479.684728,727.418070,114.855485,-9896.714274
479.687303,1167.697429,1435.693560,-9915.856854
479.689878,937.986459,382.851616,-10088.140082
479.692453,1569.691626,1186.840010,-10222.138147
479.695028,2488.535504,631.705166,-9973.284597
479.697602,1454.836141,555.134843,-9915.856854
479.700177,1263.410333,535.992262,-9877.571693
479.702752,995.414202,1416.550979,-9705.288466
479.705327,363.709035,-153.140646,-10490.134278
479.707902,2411.965181,1952.543242,-9533.005238
479.710476,-2277.967115,-153.140646,-9973.284597
479.713051,-1263.410333,191.425808,-10547.562021
479.715626,-401.994197,1722.832272,-9207.581365
479.718201,937.986459,-593.420005,-11045.269122
479.720776,-2373.680019,1320.838075,-9877.571693
479.723350,1569.691626,593.420005,-9150.153622
479.725925,459.421939,172.283227,-10298.708470
479.728500,-1703.689691,1225.125171,-10011.569758
479.731075,1416.550979,-153.140646,-10068.997501
479.733650,-267.996131,1722.832272,-9858.429112
479.736224,19.142581,-306.281293,-10260.423309
479.738799,516.849682,535.992262,-9609.575562
479.741374,95.712904,1550.549045,-10068.997501
479.743949,19.142581,-57.427742,-10298.708470
479.746524,-3005.385186,689.132909,-9934.999435
479.749098,-1799.402595,1588.834206,-9762.716208
479.751673,-267.996131,-114.855485,-10145.567824
479.754248,2029.113565,1110.269686,-9934.999435
479.756823,1091.127106,1014.556782,-9915.856854
479.759398,-574.277424,267.996131,-10260.423309
479.761972,1359.123237,1320.838075,-9226.723946
479.764547,3866.801322,-440.279358,-9801.001370
479.767122,1607.976787,2009.970984,-10068.997501
479.769697,1799.402595,-38.285162,-9743.573627
479.772272,-382.851616,823.130974,-9781.858789
479.774846,306.281293,1091.127106,-9839.286531
479.777421,2163.111630,-76.570323,-10298.708470
479.779996,2201.396792,1301.695494,-9973.284597
479.782571,248.853550,535.992262,-9571.290400
479.785148,-287.138712,995.414202,-9456.434915
479.787724,1301.695494,899.701298,-10011.569758
479.790301,1244.267752,153.140646,-10049.854920
479.792878,2163.111630,1741.974853,-10068.997501
479.795455,2584.248408,114.855485,-9801.001370
479.798031,1416.550979,593.420005,-9801.001370
479.800608,1531.406464,899.701298,-9915.856854
479.803185,995.414202,1225.125171,-9724.431046
479.805762,-153.140646,-172.283227,-10758.130410
479.808338,1493.121302,2029.113565,-9418.149754
479.810915,-2220.539373,133.998066,-9801.001370
479.813492,-1665.404530,-114.855485,-10451.849117
479.816069,401.994197,2507.678085,-9092.725880
479.818645,861.416136,-708.275490,-11006.983960
479.821222,-2239.681954,1205.982590,-9762.716208
479.823799,1071.984525,861.416136,-9322.436850
479.826376,612.562586,-76.570323,-10049.854920
479.828953,-1493.121302,1225.125171,-10011.569758
479.831529,-210.568389,784.845813,-10298.708470
479.834106,1684.547110,1129.412267,-9973.284597
479.836683,-38.285162,-133.998066,-9686.145885
479.839260,-2067.398726,1282.552914,-9896.714274
479.841836,2220.539373,650.847747,-10222.138147
479.844413,-842.273555,574.277424,-10164.710405
479.846990,-3139.383251,631.705166,-9973.284597
479.849567,-2124.826469,765.703232,-9973.284597
479.852143,1339.980656,516.849682,-10011.569758
479.854720,-57.427742,1799.402595,-9973.284597
479.857297,2086.541307,-440.279358,-10260.423309
479.859874,-248.853550,937.986459,-9169.296203
479.862451,574.277424,1339.980656,-10068.997501
479.865027,4134.797453,-344.566454,-10336.993632
479.867604,784.845813,2584.248408,-9169.296203
479.870181,-287.138712,-516.849682,-10164.710405
479.872758,880.558717,1225.125171,-9801.001370
479.875334,784.845813,1186.840010,-9762.716208
479.877911,1646.261949,555.134843,-10375.278794
479.880488,1416.550979,976.271621,-9934.999435
479.883065,-38.285162,76.570323,-9437.292334
479.885641,-153.140646,1703.689691,-10030.712339
479.888219,2526.820666,325.423874,-10088.140082
479.890797,899.701298,823.130974,-9513.862658
479.893375,2316.252277,918.843878,-10164.710405
479.895953,3292.523898,210.568389,-9934.999435
479.898530,1799.402595,535.992262,-9590.432981
479.901108,823.130974,1473.978722,-10317.851051
479.903686,937.986459,-210.568389,-10298.708470
479.906264,1952.543242,1531.406464,-9647.860723
479.908842,-2297.109696,248.853550,-9954.142016
479.911419,-669.990328,-153.140646,-10183.852986
479.913997,-1110.269686,1703.689691,-9475.577496
479.916575,-133.998066,-38.285162,-10643.274925
479.919153,-535.992262,1091.127106,-10183.852986
479.921731,1186.840010,1263.410333,-9475.577496
479.924309,-306.281293,-899.701298,-10068.997501
479.926886,-287.138712,1799.402595,-10030.712339
479.929464,555.134843,133.998066,-10279.565890
479.932042,-612.562586,1167.697429,-10068.997501
479.934620,363.709035,401.994197,-10068.997501
479.937198,76.570323,478.564520,-9590.432981
479.939775,-306.281293,1416.550979,-9877.571693
479.942353,-114.855485,191.425808,-10356.136213
479.944931,-2220.539373,401.994197,-9743.573627
479.947509,-2584.248408,1148.554848,-10202.995566
479.950087,1320.838075,-306.281293,-10107.282662
479.952664,1359.123237,2105.683888,-9456.434915
479.955242,1607.976787,-574.277424,-10298.708470
479.957820,-784.845813,95.712904,-10164.710405
479.960398,1378.265818,2048.256146,-9628.718142
479.962976,3847.658741,-976.271621,-10107.282662
479.965553,1588.834206,2048.256146,-10183.852986
479.968131,95.712904,-133.998066,-9896.714274
479.970709,612.562586,650.847747,-9609.575562
479.973287,57.427742,1435.693560,-10509.276859
479.975865,2297.109696,497.707101,-9801.001370
479.978443,2756.531635,861.416136,-9934.999435
479.981020,-1205.982590,535.992262,-10011.569758
479.983598,440.279358,746.560651,-9686.145885
479.986176,2009.970984,899.701298,-10107.282662
479.988754,1014.556782,612.562586,-9552.147819
479.991333,2316.252277,287.138712,-9934.999435
479.993911,2833.101958,861.416136,-10030.712339
479.996490,1091.127106,631.705166,-9456.434915
479.999069,899.701298,1091.127106,-10241.280728
480.001648,1761.117434,803.988394,-10164.710405
480.004227,1607.976787,650.847747,-9801.001370
480.006805,-1799.402595,976.271621,-9839.286531
480.009384,-516.849682,325.423874,-9686.145885
480.011963,-516.849682,1952.543242,-9265.009107
480.014542,-344.566454,38.285162,-11179.267187
480.017121,-325.423874,842.273555,-9896.714274
480.019699,1129.412267,1569.691626,-9207.581365
480.022278,-631.705166,-57.427742,-9934.999435
480.024857,382.851616,1186.840010,-9954.142016
480.027436,-535.992262,497.707101,-10222.138147
480.030015,-440.279358,1205.982590,-9954.142016
480.032594,957.129040,650.847747,-10222.138147
480.035172,421.136778,746.560651,-9207.581365
480.037751,0.000000,1014.556782,-10107.282662
480.040330,287.138712,689.132909,-10375.278794
480.042909,-2909.672282,440.279358,-9418.149754
480.045488,-3215.953574,1531.406464,-10202.995566
480.048066,2297.109696,-363.709035,-10164.710405
480.050645,823.130974,1741.974853,-9169.296203
480.053224,1129.412267,-38.285162,-10815.558152
480.055803,-306.281293,689.132909,-9456.434915
480.058382,1071.984525,1052.841944,-9973.284597
480.060960,3751.945837,210.568389,-10279.565890
480.063539,1531.406464,1722.832272,-9533.005238
480.066118,-267.996131,-57.427742,-10183.852986
480.068697,267.996131,1607.976787,-9207.581365
480.071276,746.560651,19.142581,-10336.993632
480.073854,1378.265818,1148.554848,-9839.286531
480.076433,1971.685822,746.560651,-9628.718142
480.079012,-172.283227,325.423874,-9992.427178
480.081591,210.568389,1378.265818,-9628.718142
480.084170,2143.969050,-19.142581,-10222.138147
480.086749,1856.830338,1205.982590,-10088.140082
480.089327,2584.248408,976.271621,-9533.005238
480.091906,1646.261949,478.564520,-9915.856854
480.094486,2277.967115,708.275490,-9705.288466
480.097065,976.271621,1684.547110,-9820.143950
480.099645,76.570323,-497.707101,-10949.556218
480.102225,2182.254211,2182.254211,-9360.722011
480.104804,-2124.826469,-57.427742,-9801.001370
480.107384,-1588.834206,-153.140646,-10470.991698
480.109964,-574.277424,2143.969050,-9322.436850
480.112543,842.273555,-306.281293,-10872.985894
480.115123,-1703.689691,1416.550979,-9877.571693
480.117703,459.421939,516.849682,-9437.292334
480.120282,401.994197,746.560651,-10222.138147
480.122862,382.851616,1014.556782,-10088.140082
480.125442,-555.134843,133.998066,-10260.423309
480.128021,-57.427742,1607.976787,-9896.714274
480.130601,727.418070,-344.566454,-10068.997501
480.133181,-440.279358,1071.984525,-9533.005238
480.135760,401.994197,1320.838075,-9915.856854
480.138340,-2603.390989,-1091.127106,-10490.134278
480.140920,-2699.103893,2411.965181,-9762.716208
480.143499,-287.138712,363.709035,-9973.284597
480.146079,1531.406464,421.136778,-10068.997501
480.148659,689.132909,1320.838075,-9609.575562
480.151238,-382.851616,-76.570323,-10394.421374
480.153818,1167.697429,1550.549045,-9533.005238
480.156398,1952.543242,-114.855485,-10317.851051
480.158977,2775.674216,1512.263883,-10336.993632
480.161557,1378.265818,-363.709035,-9973.284597
480.164137,-899.701298,918.843878,-9552.147819
480.166716,-421.136778,1627.119368,-10011.569758
480.169296,2890.529701,-497.707101,-10222.138147
480.171876,1780.260014,1339.980656,-9820.143950
480.174455,-325.423874,574.277424,-9896.714274
480.177035,995.414202,76.570323,-9801.001370
480.179615,497.707101,1895.115499,-10126.425243
480.182194,708.275490,842.273555,-10030.712339
480.184774,2239.681954,382.851616,-10049.854920
480.187354,2220.539373,1493.121302,-9437.292334
480.189933,1014.556782,248.853550,-9647.860723
480.192513,1091.127106,669.990328,-10260.423309
480.195093,1129.412267,1301.695494,-9896.714274
480.197673,2526.820666,957.129040,-9590.432981
480.200252,-1646.261949,-95.712904,-10375.278794
480.202832,-1512.263883,1091.127106,-9284.151688
480.205412,-1761.117434,1186.840010,-9456.434915
480.207992,-38.285162,-344.566454,-11351.550414
480.210572,-516.849682,1607.976787,-9150.153622
480.213152,1435.693560,1244.267752,-9705.288466
480.215731,172.283227,-421.136778,-10183.852986
480.218311,-784.845813,1607.976787,-9169.296203
480.220891,803.988394,325.423874,-10566.704602
480.223471,-325.423874,995.414202,-9954.142016
480.226051,191.425808,1244.267752,-9647.860723
480.228630,19.142581,172.283227,-9552.147819
480.231210,727.418070,1091.127106,-9494.720077
480.233790,-1703.689691,440.279358,-10681.560086
480.236370,-2699.103893,1052.841944,-10202.995566
480.238950,-1205.982590,612.562586,-9781.858789
480.241530,2143.969050,421.136778,-9954.142016
480.244109,344.566454,1378.265818,-9628.718142
480.246689,555.134843,516.849682,-10260.423309
480.249269,612.562586,1263.410333,-8977.870395
480.251849,1033.699363,516.849682,-10470.991698
480.254429,3139.383251,976.271621,-10049.854920
480.257009,1722.832272,1186.840010,-9494.720077
480.259588,-555.134843,-593.420005,-10413.563955
480.262168,-382.851616,1971.685822,-9360.722011
480.264748,2565.105827,459.421939,-10336.993632
480.267328,995.414202,382.851616,-10470.991698
480.269908,1282.552914,976.271621,-9073.583299
480.272487,478.564520,516.849682,-9858.429112
480.275067,133.998066,765.703232,-10394.421374
480.277647,1339.980656,669.990328,-9877.571693
480.280227,2813.959378,1473.978722,-10126.425243
480.282807,2201.396792,-133.998066,-9992.427178
480.285387,1014.556782,497.707101,-9590.432981
480.287966,1339.980656,1703.689691,-9992.427178
480.290546,1263.410333,-95.712904,-10241.280728
480.293126,2009.970984,1454.836141,-9820.143950
480.295706,-803.988394,535.992262,-10107.282662
480.298286,-1301.695494,-153.140646,-9609.575562
480.300866,-1167.697429,2507.678085,-9743.573627
480.303446,535.992262,-287.138712,-11026.126541
480.306026,-918.843878,899.701298,-9762.716208
480.308605,1301.695494,1473.978722,-9705.288466
480.311185,-19.142581,-248.853550,-10011.569758
480.313765,-1569.691626,1186.840010,-9743.573627
480.316345,1531.406464,574.277424,-10317.851051
480.318925,-229.710970,861.416136,-10164.710405
480.321505,-612.562586,708.275490,-10183.852986
480.324085,-593.420005,823.130974,-9590.432981
480.326665,976.271621,880.558717,-9877.571693
480.329245,-2201.396792,-191.425808,-10547.562021
480.331825,-2890.529701,1531.406464,-9781.858789
480.334405,-708.275490,708.275490,-10222.138147
480.336985,1665.404530,-267.996131,-9781.858789
480.339565,114.855485,1895.115499,-9590.432981
480.342145,401.994197,459.421939,-10394.421374
480.344725,2048.256146,1339.980656,-9609.575562
480.347305,2603.390989,574.277424,-10126.425243
480.349885,2220.539373,976.271621,-10241.280728
480.352465,1569.691626,-191.425808,-9494.720077
480.355045,-784.845813,746.560651,-9820.143950
480.357625,38.285162,1378.265818,-9705.288466
480.360205,2507.678085,363.709035,-10528.419440
480.362785,1569.691626,1033.699363,-9915.856854
480.365364,899.701298,382.851616,-9379.864592
480.367944,287.138712,1282.552914,-9896.714274
480.370524,2029.113565,1397.408398,-10011.569758
480.373104,937.986459,-38.285162,-10145.567824
480.375684,3445.664544,1320.838075,-10011.569758
480.378264,1818.545176,1014.556782,-9494.720077
480.380844,784.845813,-38.285162,-10107.282662
480.383424,1282.552914,1684.547110,-9437.292334
480.386005,133.998066,-287.138712,-10413.563955
480.388585,2603.390989,2220.539373,-9954.142016
480.391165,-1971.685822,382.851616,-9475.577496
480.393745,-1359.123237,-229.710970,-10126.425243
480.396326,-1186.840010,2565.105827,-9762.716208
480.398906,842.273555,-1110.269686,-10681.560086
480.401486,-1397.408398,2029.113565,-9839.286531
480.404067,1167.697429,689.132909,-9609.575562
480.406647,1225.125171,-497.707101,-9724.431046
480.409227,-2488.535504,2029.113565,-9877.571693
480.411807,689.132909,-114.855485,-10490.134278
480.414388,1818.545176,1167.697429,-9801.001370
480.416968,784.845813,1033.699363,-10049.854920
480.419548,-1359.123237,-76.570323,-9628.718142
480.422128,-382.851616,1320.838075,-9647.860723
480.424709,-1952.543242,976.271621,-10317.851051
480.427289,-2641.676150,440.279358,-10451.849117
480.429869,689.132909,1052.841944,-9628.718142
480.432449,1148.554848,1205.982590,-9743.573627
480.435030,1933.400661,-382.851616,-10164.710405
480.437610,-612.562586,746.560651,-9590.432981
480.440190,1454.836141,1493.121302,-9992.427178
480.442770,4555.934230,-555.134843,-10222.138147
480.445351,784.845813,2239.681954,-9456.434915
480.447931,-57.427742,-306.281293,-10260.423309
480.450511,-248.853550,1052.841944,-9131.011042
480.453091,248.853550,1129.412267,-10490.134278
480.455672,2603.390989,823.130974,-10413.563955
480.458252,1971.685822,1263.410333,-9303.294269
480.460832,-689.132909,-287.138712,-10126.425243
480.463412,-191.425808,1205.982590,-9647.860723
480.465993,3235.096155,708.275490,-9877.571693
480.468573,3311.666478,440.279358,-10049.854920
480.471153,1148.554848,957.129040,-9475.577496
480.473733,1071.984525,-153.140646,-9992.427178
480.476314,1627.119368,1914.258080,-9513.862658
480.478894,133.998066,-114.855485,-10222.138147
480.481474,2335.394858,1761.117434,-10030.712339
480.484054,-1320.838075,325.423874,-10030.712339
480.486632,-1646.261949,-325.423874,-9762.716208
480.489212,-2086.541307,2086.541307,-9513.862658
480.491792,899.701298,-612.562586,-10987.841379
480.494372,-957.129040,1263.410333,-9743.573627
480.496952,1148.554848,1339.980656,-9686.145885
480.499532,669.990328,-306.281293,-9762.716208
480.502112,-1588.834206,1339.980656,-9743.573627
480.504691,459.421939,287.138712,-10375.278794
480.507271,1339.980656,1148.554848,-9571.290400
480.509851,-287.138712,459.421939,-10336.993632
480.512431,-19.142581,210.568389,-9877.571693
480.515011,-133.998066,1148.554848,-9418.149754
480.517591,-2775.674216,153.140646,-10738.987829
480.520171,-2469.392923,1186.840010,-9858.429112
480.522751,1435.693560,976.271621,-10145.567824
480.525331,593.420005,803.988394,-9820.143950
480.527910,1837.687757,-459.421939,-9820.143950
480.530490,-1091.127106,784.845813,-9858.429112
480.533070,2335.394858,1531.406464,-9647.860723
480.535650,4000.799387,-210.568389,-10509.276859
480.538230,899.701298,2852.244539,-9571.290400
480.540810,-114.855485,-1033.699363,-9896.714274
480.543390,-382.851616,1684.547110,-9360.722011
480.545970,631.705166,1607.976787,-10413.563955
480.548550,2718.246474,-191.425808,-10394.421374
480.551129,2009.970984,1646.261949,-9456.434915
480.553709,-516.849682,-153.140646,-9954.142016
480.556289,440.279358,1014.556782,-10030.712339
480.558869,1856.830338,1320.838075,-9762.716208
480.561449,2163.111630,267.996131,-10183.852986
480.564029,2239.681954,1129.412267,-9513.862658
480.566609,1550.549045,153.140646,-9705.288466
480.569189,1359.123237,1014.556782,-9647.860723
480.571769,746.560651,421.136778,-10279.565890
480.574349,2182.254211,1148.554848,-9743.573627
480.576928,-1167.697429,823.130974,-10126.425243
480.579508,-937.986459,19.142581,-9724.431046
480.582088,-2029.113565,1531.406464,-9188.438784
480.584668,-267.996131,-631.705166,-11408.978157
480.587248,-803.988394,1627.119368,-9647.860723
480.589828,1627.119368,1263.410333,-9628.718142
480.592407,-765.703232,-210.568389,-10183.852986
480.594987,-248.853550,1033.699363,-9494.720077
480.597567,669.990328,535.992262,-10241.280728
480.600146,-421.136778,880.558717,-9954.142016
480.602726,133.998066,593.420005,-10279.565890
480.605306,612.562586,593.420005,-9858.429112
480.607885,-1416.550979,1148.554848,-9437.292334
480.610465,-3215.953574,172.283227,-10700.702667
480.613045,-1646.261949,1627.119368,-9820.143950
480.615624,1397.408398,133.998066,-10394.421374
480.618204,-229.710970,1780.260014,-9858.429112
480.620783,2622.533570,-172.283227,-9647.860723
480.623363,-1416.550979,76.570323,-10107.282662
480.625943,1684.547110,2105.683888,-9609.575562
480.628522,4862.215523,-574.277424,-10336.993632
480.631102,459.421939,2545.963246,-9552.147819
480.633682,-1205.982590,-689.132909,-9896.714274
480.636261,497.707101,1129.412267,-9513.862658
480.638841,440.279358,1569.691626,-10624.132344
480.641421,1971.685822,-19.142581,-10126.425243
480.644000,2316.252277,1569.691626,-9743.573627
480.646580,-478.564520,-133.998066,-10068.997501
480.649160,708.275490,1014.556782,-9667.003304
480.651739,1186.840010,1301.695494,-10317.851051
480.654319,3024.527766,95.712904,-9896.714274
480.656899,1818.545176,1339.980656,-9322.436850
480.659478,1550.549045,-191.425808,-10088.140082
480.662058,650.847747,1473.978722,-9360.722011
480.664638,-191.425808,401.994197,-10298.708470
480.667217,2737.389054,2048.256146,-10068.997501
480.669797,-1799.402595,19.142581,-10030.712339
480.672376,-1818.545176,-19.142581,-10030.712339
480.674956,-689.132909,2794.816797,-9284.151688
480.677536,210.568389,-976.271621,-11026.126541
480.680115,-918.843878,1588.834206,-9418.149754
480.682695,1320.838075,1244.267752,-9456.434915
480.685275,-38.285162,-363.709035,-9954.142016
480.687854,-1244.267752,1646.261949,-9303.294269
480.690434,669.990328,593.420005,-10375.278794
480.693013,57.427742,995.414202,-9705.288466
480.695592,-1895.115499,-114.855485,-10279.565890
480.698171,-57.427742,1359.123237,-9934.999435
480.700750,-631.705166,535.992262,-9360.722011
480.703329,-3598.805190,401.994197,-10451.849117
480.705908,-1588.834206,1454.836141,-10049.854920
480.708488,2928.814862,-382.851616,-9552.147819
480.711067,-957.129040,1665.404530,-9896.714274
480.713646,593.420005,689.132909,-9801.001370
480.716225,1493.121302,133.998066,-9245.866526
480.718804,2009.970984,803.988394,-10872.985894
480.721383,2794.816797,669.990328,-10164.710405
480.723962,2048.256146,574.277424,-9475.577496
480.726541,-1225.125171,133.998066,-10298.708470
480.729120,-153.140646,1320.838075,-9513.862658
480.731699,1895.115499,325.423874,-10681.560086
480.734278,2105.683888,823.130974,-10183.852986
480.736857,1225.125171,803.988394,-9494.720077
480.739436,-306.281293,-267.996131,-9954.142016
480.742016,1435.693560,1263.410333,-9992.427178
480.744595,2565.105827,497.707101,-10241.280728
480.747174,2871.387120,535.992262,-10049.854920
480.749753,1282.552914,995.414202,-9762.716208
480.752332,1588.834206,172.283227,-10011.569758
480.754911,1473.978722,1129.412267,-9724.431046
480.757490,1091.127106,38.285162,-10336.993632
480.760069,631.705166,1225.125171,-9973.284597
480.762648,-1110.269686,306.281293,-9533.005238
480.765227,-1665.404530,1607.976787,-9437.292334
480.767806,-574.277424,229.710970,-10547.562021
480.770385,-210.568389,784.845813,-10183.852986
480.772964,210.568389,1052.841944,-9762.716208
480.775544,-937.986459,172.283227,-9954.142016
480.778123,1588.834206,1397.408398,-9915.856854
480.780702,-325.423874,382.851616,-10222.138147
480.783281,-861.416136,459.421939,-10145.567824
480.785860,976.271621,1378.265818,-10011.569758
480.788439,1856.830338,459.421939,-9858.429112
480.791018,-2411.965181,-191.425808,-9915.856854
480.793597,-2603.390989,1014.556782,-10030.712339
480.796176,-1339.980656,344.566454,-10279.565890
480.798754,1339.980656,631.705166,-10432.706536
480.801333,-191.425808,1416.550979,-9456.434915
480.803912,2469.392923,-593.420005,-10030.712339
480.806491,-937.986459,382.851616,-9934.999435
480.809069,1914.258080,1550.549045,-9475.577496
480.811648,4862.215523,114.855485,-10604.989763
480.814227,612.562586,2009.970984,-9820.143950
480.816805,-1148.554848,-650.847747,-9915.856854
480.819384,76.570323,1780.260014,-9399.007173
480.821963,1454.836141,957.129040,-10528.419440
480.824541,995.414202,267.996131,-10183.852986
480.827120,1914.258080,1493.121302,-9839.286531
480.829699,516.849682,-38.285162,-9724.431046
480.832277,-287.138712,1339.980656,-9609.575562
480.834856,2737.389054,1110.269686,-10241.280728
480.837435,3235.096155,267.996131,-9896.714274
480.840013,535.992262,1320.838075,-9762.716208
480.842592,2239.681954,210.568389,-9954.142016
480.845171,1378.265818,1263.410333,-9762.716208
480.847750,229.710970,-401.994197,-10375.278794
480.850328,1263.410333,1550.549045,-10049.854920
480.852907,-1607.976787,861.416136,-9724.431046
480.855486,-1856.830338,-574.277424,-9801.001370
480.858064,-325.423874,918.843878,-10088.140082
480.860643,765.703232,689.132909,-10298.708470
480.863222,-516.849682,497.707101,-9801.001370
480.865800,-210.568389,1339.980656,-9896.714274
480.868379,803.988394,267.996131,-9628.718142
480.870958,-172.283227,612.562586,-10088.140082
480.873536,-708.275490,1339.980656,-10202.995566
480.876115,746.560651,516.849682,-9781.858789
480.878694,1033.699363,401.994197,-10068.997501
480.881272,-2048.256146,880.558717,-9820.143950
480.883851,-1741.974853,440.279358,-9954.142016
480.886430,-2488.535504,976.271621,-10432.706536
480.889009,1780.260014,669.990328,-9915.856854
480.891587,-76.570323,995.414202,-9667.003304
480.894166,842.273555,823.130974,-10030.712339
480.896745,765.703232,421.136778,-9494.720077
480.899323,1263.410333,995.414202,-10317.851051
480.901901,4823.930362,746.560651,-10222.138147
480.904480,842.273555,1512.263883,-9628.718142
480.907058,-1225.125171,0.000000,-10298.708470
480.909636,133.998066,1301.695494,-8997.012976
480.912215,1875.972918,1129.412267,-10413.563955
480.914793,823.130974,746.560651,-10222.138147
480.917371,1301.695494,918.843878,-9513.862658
480.919950,861.416136,708.275490,-9839.286531
480.922528,1033.699363,708.275490,-9896.714274
480.925106,1512.263883,593.420005,-10241.280728
480.927685,3713.660675,1167.697429,-9954.142016
480.930263,1435.693560,306.281293,-9858.429112
480.932841,1320.838075,497.707101,-9915.856854
480.935420,2067.398726,995.414202,-9552.147819
480.937998,2316.252277,1014.556782,-9781.858789
480.940576,-1684.547110,478.564520,-10604.989763
480.943155,-803.988394,823.130974,-9284.151688
480.945733,-1665.404530,823.130974,-9552.147819
480.948311,-995.414202,861.416136,-10815.558152
480.950890,937.986459,746.560651,-9781.858789
480.953468,-172.283227,516.849682,-9896.714274
480.956046,-708.275490,1167.697429,-9858.429112
480.958625,1110.269686,478.564520,-9762.716208
480.961203,535.992262,421.136778,-10202.995566
480.963781,-612.562586,1205.982590,-9877.571693
480.966360,555.134843,401.994197,-10164.710405
480.968938,95.712904,918.843878,-9801.001370
480.971516,-1684.547110,287.138712,-9839.286531
480.974095,-2411.965181,1244.267752,-10088.140082
480.976673,-1052.841944,669.990328,-9858.429112
480.979251,1282.552914,440.279358,-10145.567824
480.981830,-421.136778,861.416136,-10279.565890
480.984408,765.703232,535.992262,-9743.573627
480.986986,1856.830338,1301.695494,-9628.718142
480.989565,1971.685822,401.994197,-10566.704602
480.992143,4153.940034,555.134843,-10222.138147
480.994721,1186.840010,1569.691626,-9590.432981
480.997300,-1550.549045,-421.136778,-10068.997501
480.999878,574.277424,1091.127106,-9743.573627
481.002455,2450.250342,1416.550979,-10107.282662
481.005033,1856.830338,401.994197,-10183.852986
481.007611,-918.843878,497.707101,-10126.425243
481.010188,1722.832272,1110.269686,-9341.579430
481.012766,899.701298,440.279358,-10088.140082
481.015343,1818.545176,516.849682,-10585.847182
481.017921,2909.672282,1473.978722,-9552.147819
481.020498,2048.256146,-114.855485,-10164.710405
481.023076,325.423874,1148.554848,-9475.577496
481.025653,574.277424,267.996131,-10030.712339
481.028231,2526.820666,1895.115499,-10222.138147
481.030808,-2105.683888,133.998066,-10183.852986
481.033386,-1052.841944,-248.853550,-9839.286531
481.035964,-1244.267752,2622.533570,-9322.436850
